time,seconds_elapsed,z,y,x
195564849756825,0.000000,0.034896374,0.035160065,-0.0026305914
195564857743556,0.007987,0.14687777,0.04290104,-0.0031641722
195564865772902,0.016016,0.15819597,0.047439575,0.07692036
195564873744171,0.023987,0.055137634,0.025184631,0.0729
195564881800979,0.032044,-0.078808784,0.02481985,0.015974998
195564889773902,0.040017,-0.24453974,0.03314829,-0.064254105
195564897790671,0.048034,-0.3690648,-0.025488853,-0.09344429
195564905794556,0.056038,-0.33528614,-0.12231636,-0.11002278
195564913834363,0.064078,-0.091246605,-0.16635847,-0.09409821
195564921850902,0.072094,0.13928843,-0.20856142,-0.120719016
195564929837594,0.080081,0.23086023,-0.16069126,-0.20932007
195564937811056,0.088054,0.17432451,-0.09528494,-0.27178866
195564945846863,0.096090,0.08287525,-0.07434225,-0.23421776
195564953820209,0.104063,-0.066260815,-0.0878706,-0.15499413
195564961877594,0.112121,-0.08982706,-0.15637064,-0.05992037
195564969851440,0.120095,-0.03940153,-0.129745,-0.007201433
195564977867632,0.128111,0.003914833,-0.08172417,-0.0056313276
195564985874632,0.136118,0.00971365,-0.08738661,0.0048419833
195564993858671,0.144102,7.534027E-5,-0.06966257,-0.039798617
195565001874171,0.152117,-0.013802052,-0.08673525,-0.057913125
195565009949901,0.160193,-0.030979633,-0.105811596,-0.056100726
195565017993325,0.168237,-0.0043172836,-0.0988636,-0.029588282
195565026088632,0.176332,0.21896362,-0.093682766,0.03183055
195565034059709,0.184303,0.36168242,-0.042531967,0.07123476
195565042115248,0.192358,0.31507874,0.011354923,0.05110377
195565050087094,0.200330,0.17433882,0.020092964,0.051352203
195565058101671,0.208345,0.0044374466,0.0043911934,0.09013635
195565066105863,0.216349,-0.08821964,0.012938976,0.14675671
195565074090247,0.224333,-0.16168022,0.028743744,0.12397915
195565082106017,0.232349,-0.23213482,0.027648926,0.08617365
195565090092901,0.240336,-0.28209782,-0.012238026,0.037233472
195565098067478,0.248311,-0.30403614,-0.007701397,-0.001110673
195565106106863,0.256350,-0.25487185,-0.021062374,-0.01971066
195565114079747,0.264323,-0.08675432,-0.012265682,0.010529935
195565122136324,0.272379,0.007910728,0.021870136,0.04755485
195565130108324,0.280351,0.06655979,0.045780182,0.07106936
195565138124939,0.288368,0.21109915,0.07565212,0.20283943
195565146130363,0.296374,0.40044832,0.024971485,0.40721932
195565154113670,0.304357,0.53484106,0.031606674,0.505833
195565162131901,0.312375,0.59546375,0.09280062,0.45543435
195565170116670,0.320360,0.49948072,0.16217852,0.2382142
195565178112670,0.328356,0.36264133,0.17656231,0.11674631
195565186186747,0.336430,0.2678032,0.17512655,0.07548487
195565194281285,0.344524,0.1548605,0.1317358,0.08970189
195565202328862,0.352572,0.03763342,0.11409235,0.11981538
195565210336208,0.360579,-0.050931454,0.106059074,0.13016844
195565218369208,0.368612,-0.12595415,0.10855198,0.12716258
195565226356362,0.376600,-0.20643711,0.13819838,0.087222606
195565234353362,0.384597,-0.18261623,0.12598658,0.018061578
195565242362593,0.392606,-0.12938881,0.14918566,-0.016209424
195565250379708,0.400623,-0.058237553,0.14732265,0.018931985
195565258396631,0.408640,0.13860846,0.18739653,0.09939182
195565266443554,0.416687,0.38982344,0.22341251,0.23252147
195565274430285,0.424673,0.5191183,0.23769283,0.3153191
195565282478093,0.432721,0.57314205,0.19794416,0.38896567
195565290484093,0.440727,0.5637412,0.16414928,0.34100008
195565298516554,0.448760,0.4743395,0.10975027,0.2141456
195565306532900,0.456776,0.28877878,0.08437157,0.055955976
195565314530977,0.464774,0.15986633,0.11475515,-0.067035556
195565322542746,0.472786,0.006275177,0.17203856,-0.16990101
195565330561131,0.480804,-0.15372324,0.21644068,-0.17136598
195565338577285,0.488820,-0.15603018,0.19403839,-0.033201456
195565346624477,0.496868,-0.15162897,0.20320559,0.123230666
195565354609362,0.504853,-0.21205378,0.22219706,0.18210393
195565362650362,0.512894,-0.2080884,0.26790524,0.16582975
195565370657400,0.520901,-0.14026022,0.27863216,0.19670016
195565378688746,0.528932,-0.027662754,0.23029661,0.20424569
195565386703285,0.536946,0.10107994,0.18263912,0.23152958
195565394702323,0.544945,0.28963614,0.16851282,0.22721125
195565402713785,0.552957,0.37330627,0.16103792,0.2793948
195565410732900,0.560976,0.3603859,0.18773556,0.30564862
195565418764131,0.569007,0.31740522,0.22523737,0.35687062
195565426810900,0.577054,0.18951654,0.23505783,0.35942188
195565434797938,0.585041,0.03893709,0.15023565,0.38806087
195565442845284,0.593088,-0.077962875,0.07961702,0.36112523
195565450850938,0.601094,-0.16870642,0.069084644,0.34165296
195565458881823,0.609125,-0.21915007,0.056637287,0.29653504
195565466891477,0.617135,-0.16482353,0.042446136,0.25691804
195565474894784,0.625138,-0.07385969,-0.005955696,0.28175578
195565482908592,0.633152,0.042387486,-0.029314995,0.3069787
195565490927438,0.641171,0.09583092,-0.049648285,0.2997557
195565498918823,0.649162,0.12726307,-0.040708065,0.27707016
195565506961169,0.657204,0.14399672,-0.03376293,0.23871948
195565514947784,0.665191,0.12961245,-0.055491447,0.24704167
195565522994438,0.673238,0.041070938,-0.11073542,0.2183432
195565531000092,0.681243,-0.001955986,-0.17793131,0.18091515
195565539033207,0.689276,-0.023861885,-0.16807699,0.16994242
195565547048323,0.697291,-0.017015457,-0.13190317,0.15182576
195565555047361,0.705291,-0.08894682,-0.09114456,0.08639008
195565563067553,0.713311,-0.12730694,-0.079138756,0.007174939
195565571087169,0.721330,-0.084552765,-0.073987484,-0.009045333
195565579089399,0.729333,-0.030483246,-0.08970404,0.025481582
195565587137707,0.737381,-0.012785912,-0.08337402,0.10151465
195565595125553,0.745369,-0.047943115,-0.07682657,0.12791136
195565603175476,0.753419,-0.09072256,-0.100939274,0.13566664
195565611183630,0.761427,-0.069366455,-0.102972984,0.16061696
195565619215322,0.769458,-0.012763023,-0.09953356,0.111617446
195565627230361,0.777474,0.11245203,-0.10004187,0.0533776
195565635229707,0.785473,0.20367527,-0.08330774,0.016796172
195565643251861,0.793495,0.43068838,-0.11379719,-0.032247275
195565651272091,0.801515,0.58306694,-0.11038494,-0.10597184
195565659286707,0.809530,0.56801844,-0.10476065,-0.1800231
195565667334822,0.817578,0.4202776,-0.064646244,-0.1637466
195565675322053,0.825565,0.24017715,-0.04728365,-0.0931288
195565683371437,0.833615,0.15132904,-0.03982544,-0.011508703
195565691379514,0.841623,0.16019821,-0.048704147,0.04092267
195565699413168,0.849656,0.20886612,-0.09020281,0.11465034
195565707429168,0.857672,0.28079033,-0.09507847,0.08103424
195565715430591,0.865674,0.35232782,-0.09949684,0.039012074
195565723442399,0.873686,0.31643343,-0.08503151,-0.011862457
195565731463937,0.881707,0.22215748,-0.038521767,-0.057712257
195565739452322,0.889695,0.09818506,0.03283882,0.029670328
195565747499553,0.897743,-0.05066347,0.059553146,0.09172106
195565755488552,0.905732,-0.11694336,0.087427616,0.11196172
195565763533322,0.913776,-0.12280464,0.09798813,0.06294468
195565771541360,0.921785,-0.0731225,0.115244865,0.0663892
195565779572937,0.929816,-0.09518528,0.13234377,0.1234006
195565787583706,0.937827,-0.12915182,0.13018703,0.18201083
195565795581629,0.945825,-0.20359898,0.1972518,0.21912594
195565803590860,0.953834,-0.23748112,0.18783045,0.23919585
195565811610745,0.961854,-0.2285161,0.27443647,0.268867
195565819639783,0.969883,-0.18895674,0.30418873,0.26406083
195565827687398,0.977931,-0.15197992,0.27192068,0.26473477
195565835673744,0.985917,-0.09620094,0.21606112,0.28685412
195565843719821,0.993963,-0.08391237,0.19892693,0.23524287
195565851726129,1.001969,-0.15505409,0.25329876,0.09824592
195565859760437,1.010004,-0.27814913,0.31415367,-0.048050612
195565867777091,1.018020,-0.25558853,0.32028532,-0.11870909
195565875778014,1.026021,-0.13107443,0.30340624,-0.102044255
195565883790014,1.034033,-0.017951488,0.25953627,-0.02918145
195565891810360,1.042054,-0.020727634,0.20466948,0.04850766
195565899797667,1.050041,0.18119287,0.13670492,0.1732173
195565907845321,1.058088,0.27896547,0.120360374,0.14064963
195565915833436,1.066077,0.29537773,0.13527584,-0.008033514
195565923884052,1.074127,0.23613882,0.27150106,-0.20858058
195565931892590,1.082136,0.12120199,0.34381294,-0.2926233
195565939925706,1.090169,-0.025865078,0.364398,-0.22981775
195565947941783,1.098185,-0.17603636,0.36631012,-0.14051619
195565955941167,1.106184,-0.23200607,0.42942667,0.0019313991
195565963952590,1.114196,-0.11094475,0.41110516,0.14093855
195565971971398,1.122215,0.04503727,0.36495256,0.282967
195565979965552,1.130209,0.16230392,0.31448126,0.26575983
195565988012744,1.138256,0.21033955,0.299819,0.21676469
195565996000705,1.146244,0.17497635,0.26811838,0.12937567
195566004048705,1.154292,0.15695429,0.23351526,0.007312894
195566012057628,1.162301,0.13775826,0.21211863,-0.042063236
195566020092359,1.170336,0.0812006,0.20892811,-0.089544445
195566028109667,1.178353,0.04744196,0.23560286,-0.10430357
195566036110090,1.186353,-0.011182308,0.22248602,-0.09385821
195566044121282,1.194364,-0.15278196,0.18462181,-0.11264607
195566052141474,1.202385,-0.2505579,0.102966785,-0.11247891
195566060144974,1.210388,-0.32444286,0.040544987,-0.078722924
195566068193013,1.218436,-0.33378077,-0.014561176,-0.0136577785
195566076181013,1.226424,-0.35766745,0.016757011,0.001757443
195566084227897,1.234471,-0.43393803,0.09096861,-0.08710414
195566092234090,1.242477,-0.52651215,0.109743595,-0.15837708
195566100266167,1.250509,-0.52199554,0.029009819,-0.10768345
195566108281897,1.258525,-0.31595182,-0.12408161,0.06397635
195566116281359,1.266525,-0.038320065,-0.2387495,0.17302236
195566124292436,1.274536,0.11109066,-0.2419138,0.0926137
195566132310820,1.282554,0.1098876,-0.1685791,-0.05290383
195566140314436,1.290558,-0.0010194778,-0.121925354,-0.2594226
195566148359628,1.298603,-0.14737654,-0.20018244,-0.34100196
195566156345243,1.306588,-0.2582488,-0.3163662,-0.29637975
195566164397820,1.314641,-0.25581694,-0.3903718,-0.21716177
195566172405705,1.322649,-0.21654844,-0.3671999,-0.22150666
195566180438205,1.330681,-0.20032358,-0.30906057,-0.26598895
195566188454974,1.338698,-0.19078302,-0.27539158,-0.311578
195566196454474,1.346698,-0.084840775,-0.2974553,-0.2820249
195566204464358,1.354708,0.112594604,-0.35597563,-0.16294783
195566212485358,1.362729,0.20790148,-0.36980104,-0.1308954
195566220504474,1.370748,0.19769573,-0.2852068,-0.1765934
195566228547358,1.378791,0.14234495,-0.24872684,-0.2689234
195566236533589,1.386777,0.087162495,-0.1980238,-0.33994332
195566244576551,1.394820,0.09690857,-0.16679907,-0.29739028
195566252582589,1.402826,0.12611341,-0.13842297,-0.23632535
195566260615089,1.410858,0.15607119,-0.08215809,-0.17021891
195566268630012,1.418873,0.12466335,-0.03162241,-0.100899756
195566276628012,1.426871,0.04911518,-0.015990257,-0.040130883
195566284639474,1.434883,-0.09000826,0.010549068,-0.05170074
195566292658512,1.442902,-0.27356768,0.06722975,-0.07944131
195566300681397,1.450925,-0.38007355,0.101961136,-0.11158699
195566308727666,1.458971,-0.46496153,0.11510372,-0.14571497
195566316713704,1.466957,-0.49278116,0.11181593,-0.12320647
195566324768089,1.475011,-0.46081448,0.16120768,-0.08728412
195566332774858,1.483018,-0.39058685,0.22737837,-0.11881614
195566340807435,1.491051,-0.2413125,0.28632736,-0.09772673
195566348823627,1.499067,-0.035361767,0.26459408,-0.034256846
195566356824243,1.507067,0.17926645,0.23649025,0.040169805
195566364836666,1.515080,0.27142668,0.23740959,0.08957368
195566372858819,1.523102,0.23234367,0.20431566,0.14261124
195566380894242,1.531137,0.1826253,0.21773863,0.12987936
195566388943589,1.539187,0.08822632,0.26381016,0.07739085
195566396932358,1.547176,0.049529076,0.29962826,0.102850944
195566404983512,1.555227,0.07089186,0.32320976,0.15809754
195566412991935,1.563235,0.13285637,0.30376244,0.26528892
195566421027242,1.571270,0.22568464,0.25103903,0.4006834
195566429044204,1.579287,0.23697901,0.22959805,0.38310885
195566437045358,1.587289,0.23412514,0.20323181,0.32839778
195566445062781,1.595306,0.27474642,0.1957283,0.2917929
195566453084050,1.603327,0.22934866,0.2144289,0.2006902
195566461121550,1.611365,0.14607954,0.22556543,0.11269705
195566469169819,1.619413,0.14461136,0.17888069,0.10423295
195566477158165,1.627401,0.15031338,0.1585288,0.116851985
195566485205165,1.635448,0.17263174,0.1335268,0.13647667
195566493212088,1.643455,0.19246578,0.14216995,0.10889892
195566501243050,1.651486,0.24096537,0.115002155,0.113241896
195566509259627,1.659503,0.2678194,0.12388325,0.12323043
195566517258280,1.667501,0.16583681,0.103624344,0.09791948
195566525271357,1.675515,0.0643239,0.07333374,0.09896372
195566533292088,1.683535,0.13043642,0.035805702,0.17597264
195566541288780,1.691532,0.13163662,0.029655933,0.1880011
195566549336434,1.699580,0.12840891,0.0495286,0.10752384
195566557322434,1.707566,0.1374197,0.03326893,0.047179535
195566565331165,1.715574,0.15355253,0.019478798,-0.048709035
195566573337511,1.723581,0.12202835,0.007889271,-0.11764681
195566581368665,1.731612,0.06435108,-0.023012638,-0.12627178
195566589383049,1.739626,0.028199673,-0.041925907,-0.11590141
195566597381319,1.747624,-0.013041019,-0.04859066,-0.14666957
195566605392049,1.755635,-0.04968357,-0.011967182,-0.16522521
195566613409318,1.763652,-3.4284592E-4,0.015279293,-0.03783369
195566621410588,1.771654,0.060020924,0.0027427673,0.106315404
195566629457549,1.779701,0.091136456,-0.014025688,0.053122282
195566637444511,1.787688,0.09125662,-0.040390015,-0.016341388
195566645491703,1.795735,0.048407555,-0.054890156,-0.0590612
195566653498780,1.803742,-0.008608341,-0.050484657,-0.055431753
195566661532164,1.811775,-0.008122921,-0.027065754,0.010203123
195566669548203,1.819791,0.12408686,0.034565926,0.11277005
195566677548087,1.827791,0.29202604,0.08679485,0.31810677
195566685559626,1.835803,0.21609545,0.076487064,0.42645055
195566693579549,1.843823,0.15497923,0.020365715,0.31262988
195566701567318,1.851810,0.04927349,-0.05081892,0.21056005
195566709612010,1.859855,-0.06788874,-0.062572956,-0.014225632
195566717599010,1.867842,-0.5148239,-0.050976753,-0.25811654
195566725646741,1.875890,-0.8418617,0.11596775,-0.5643995
195566733653856,1.883897,-0.66594076,0.24439144,-0.6731352
195566741687126,1.891930,-0.31966448,0.15191841,-0.4106831
195566749703972,1.899947,0.16573524,0.05629444,0.05184768
195566757702433,1.907946,0.48861408,0.022499561,0.3256896
195566765712856,1.915956,0.5266628,-0.0040402412,0.3467021
195566773732741,1.923976,0.45974684,0.06735563,0.22037476
195566781757241,1.932000,0.41699457,0.17936611,0.17632526
195566789801472,1.940045,0.25475836,0.23861456,0.114159524
195566797790087,1.948033,-0.03198719,0.17585659,-0.029709935
195566805835856,1.956079,-0.22148085,0.049351215,-0.13277328
195566813843548,1.964087,-0.17887068,-0.03166437,-0.16369659
195566821877856,1.972121,0.1229682,-0.03923607,-0.08945742
195566829894010,1.980137,0.85641956,-0.028463364,0.17256936
195566837895702,1.988139,1.0758581,0.072473526,0.29250455
195566845908471,1.996152,1.0584512,0.20917368,0.26041657
195566853929856,2.004173,0.9117279,0.2669897,0.26216567
195566861917933,2.012161,0.5959916,0.24011755,0.26238576
195566869965202,2.020208,0.20898151,0.17445087,0.3014253
195566877952702,2.028196,-0.16962528,0.12446594,0.254254
195566885997317,2.036240,-0.41152,0.08863497,0.18352006
195566894005817,2.044249,-0.50159264,0.12840366,0.10746025
195566902041240,2.052284,-0.43088675,0.1390171,0.123924196
195566910054048,2.060297,-0.3521595,0.17029953,0.16863193
195566918054394,2.068298,-0.2654376,0.16961432,0.17022732
195566926068279,2.076311,-0.29766846,0.1633563,0.17723896
195566934089586,2.084333,-0.36083794,0.1712842,0.2055917
195566942084125,2.092327,-0.56519365,0.11691332,0.2487441
195566950131433,2.100375,-0.68326664,0.060060024,0.3371306
195566958118702,2.108362,-0.74491835,0.0018496513,0.39976156
195566966166663,2.116410,-0.7114434,-0.038942814,0.37725568
195566974173048,2.124416,-0.7346654,-0.054128647,0.28019685
195566982206125,2.132449,-0.741148,-0.0644021,0.1775367
195566990223086,2.140466,-0.6878896,-0.09602547,0.083674744
195566998223240,2.148466,-0.6798129,-0.1015296,0.026092172
195567006234163,2.156477,-0.6599264,-0.075638294,0.025805771
195567014252855,2.164496,-0.656549,-0.06660271,0.025257632
195567022248663,2.172492,-0.5972748,-0.051059246,0.06425314
195567030294663,2.180538,-0.3779416,-0.07321501,0.09845585
195567038282586,2.188526,-0.1769104,-0.06237364,0.085896656
195567046337778,2.196581,0.047248363,-0.079092026,0.012370259
195567054343932,2.204587,0.06742811,-0.07108545,-0.04701224
195567062376740,2.212620,-0.057097435,-0.100128174,-0.0710631
195567070388586,2.220632,0.026821136,-0.1099267,-0.043281496
195567078387855,2.228631,0.08074808,-0.11882925,-0.0053385794
195567086397470,2.236641,0.13915586,-0.060227394,-0.0018038154
195567094414970,2.244658,0.23559046,-0.015560627,0.06283286
195567102416047,2.252659,0.20115471,0.0068030357,0.11692014
195567110461932,2.260705,0.052574635,0.011682987,0.098422244
195567118446124,2.268689,-0.14578772,0.004193783,0.12765302
195567126509278,2.276752,-0.44143248,-0.0137043,0.15683803
195567134513624,2.284757,-0.61877346,0.01334095,0.094902396
195567142543740,2.292787,-0.70415306,-0.0055413246,-0.011464804
195567150558163,2.300801,-0.69662094,0.005619526,-0.053783774
195567158555547,2.308799,-0.6114936,-0.04529047,-0.09583631
195567166567162,2.316810,-0.4499817,-0.08405781,-0.08994213
195567174584239,2.324827,-0.10517597,-0.14416695,-0.09768626
195567182594239,2.332837,0.25626373,-0.13377905,-0.06368956
195567190640124,2.340883,0.56003475,-0.08868837,-0.07453683
195567198653432,2.348897,0.58714914,-0.029724121,-0.0671404
195567206701970,2.356945,0.40751314,-0.034160137,-0.056121707
195567214707201,2.364950,0.06068945,-0.007176876,0.0023967624
195567222738893,2.372982,-0.3047042,-0.025598526,-0.04931754
195567230753624,2.380997,-0.5090108,-0.06949854,-0.19298679
195567238751893,2.388995,-0.53953934,-0.68265724,-0.014736235
195567246761047,2.397004,-0.108074665,-0.9076495,-0.10865885
195567254780278,2.405023,0.25221586,-0.92455626,-0.0620721
195567262805162,2.413048,0.09414244,-1.1068039,0.28933105
195567270840547,2.421084,0.61823463,-0.38508272,0.021536231
195567278826970,2.429070,0.6502199,0.15367174,-0.43559682
195567286916162,2.437159,0.07696819,0.41025305,-0.6531177
195567294922124,2.445165,-0.14489412,0.7123046,-1.0275081
195567302954624,2.453198,-0.50307703,0.5883298,-0.86805004
195567310958431,2.461202,-0.99841976,0.069942,0.10409653
195567318957047,2.469200,-1.2925267,-0.39249134,0.8950269
195567326965662,2.477209,-1.3822536,-0.56720877,1.0407506
195567334983777,2.485227,-1.3349829,-0.5872345,0.74500465
195567343021739,2.493265,-1.1410584,-0.5040598,0.2904263
195567351065469,2.501309,-0.7985811,-0.43729353,-0.2938683
195567359050700,2.509294,-0.621274,-0.5012789,-0.5774181
195567367087200,2.517330,-0.25523853,-0.7089052,-0.9206791
195567375091392,2.525335,0.3371458,-0.7856438,-0.9672272
195567383196239,2.533439,0.58352566,-0.8337345,-0.83167696
195567391234162,2.541477,0.47697735,-0.7846532,-0.5958909
195567399232662,2.549476,0.2223692,-1.1012368,0.14442372
195567407242931,2.557486,1.2503805,-0.9170284,-0.3796829
195567415259969,2.565503,1.2851276,-0.2385335,-0.89979875
195567423248008,2.573491,1.7562761,-0.08689141,-0.7998347
195567431271046,2.581514,2.329546,-0.44057465,-0.6999551
195567439255315,2.589498,2.8715467,-1.0114102,0.037210703
195567447299354,2.597543,3.1204681,-1.1794789,0.34791994
195567455304315,2.605547,3.3626146,-0.8650551,-0.26144183
195567463336046,2.613579,3.841236,-0.57562995,-0.9495115
195567471327431,2.621571,3.5392532,-0.5331645,-0.7461505
195567479324507,2.629568,2.8224878,-0.68293357,0.0102312565
195567487334777,2.637578,1.7118292,-0.81487703,0.6681928
195567495352738,2.645596,0.33556366,-0.84784293,1.2878622
195567503352507,2.653596,-0.26072025,-0.48007107,1.1061025
195567511375623,2.661619,-0.05237007,-0.11779952,0.8877345
195567519360430,2.669604,0.96562386,0.2661538,0.15948749
195567527395700,2.677639,2.259739,0.5446043,-0.16928339
195567535401776,2.685645,3.2404594,0.86487675,-0.45109463
195567543432276,2.693675,3.2317343,0.8753543,-0.07584834
195567551424123,2.701667,2.0453453,0.5871701,0.63113827
195567559422546,2.709666,0.36810303,0.3618698,0.9121288
195567567432738,2.717676,-0.74978924,0.34985137,0.6552169
195567575450007,2.725693,-1.0806627,0.33020806,0.20646405
195567583463238,2.733706,-0.5977144,0.38099527,-0.70416236
195567591497545,2.741741,0.50872517,0.32560968,-1.1780261
195567599482622,2.749726,1.7787008,0.26560283,-1.5394409
195567607507507,2.757751,2.9001951,0.08253479,-1.8876448
195567615513122,2.765756,3.92832,-0.12636232,-2.037747
195567623545892,2.773789,3.8291483,-0.23279738,-2.0936768
195567631538738,2.781782,3.5157948,-0.42330718,-1.7883918
195567639536699,2.789780,3.058261,-1.3478467,-0.33766937
195567647546161,2.797789,3.024706,-2.6977572,2.4531894
195567655564007,2.805807,2.344243,-3.9700923,5.4607263
195567663549314,2.813792,2.1739264,-3.3462017,5.0969057
195567671572468,2.821816,2.6451483,-0.8847573,1.4198025
195567679558199,2.829801,2.8395662,-0.32122946,-0.7450057
195567687583930,2.837827,1.7919798,-1.436171,-0.75117624
195567695589584,2.845833,0.5444784,-2.1315265,-0.7421115
195567703620276,2.853863,-0.09031296,-0.78487825,-2.9601388
195567711611276,2.861854,-0.5898175,-0.13540983,-3.4633143
195567719608430,2.869852,-0.83334446,-0.15906763,-3.018251
195567727617507,2.877861,-0.16768646,-0.46828318,-1.6314182
195567735664160,2.885907,0.74446106,-0.7250123,0.25020692
195567743691122,2.893934,1.3884459,-0.6779413,1.2140081
195567751723545,2.901967,1.5564499,-0.6263404,0.86802715
195567759710468,2.909954,0.8935919,-0.91256666,0.2516268
195567767752429,2.917996,-0.5510783,-0.9529872,-0.507429
195567775757776,2.926001,-1.6206994,-1.1470528,-0.38188082
195567783789083,2.934032,-2.7829661,-0.21925306,-1.9043038
195567791780891,2.942024,-3.6859226,0.23498058,-2.7828605
195567799779237,2.950022,-3.9471185,-0.5880909,-2.1116824
195567807787660,2.958031,-2.8797812,-0.8736024,-2.2456582
195567815805006,2.966048,-2.07057,-0.45926714,-1.9748802
195567823792314,2.974035,-1.0644941,-0.045737267,-1.2854245
195567831895506,2.982139,-0.4140911,-0.08744097,-0.545431
195567839905621,2.990149,-0.30607224,-0.19214487,-0.059432745
195567847899621,2.998143,-1.2899446,-0.013120651,0.014417052
195567855905237,3.006148,-1.706861,0.13527822,0.2017461
195567863953083,3.014196,-0.19742489,-0.18660021,0.19467008
195567871962006,3.022205,-0.008668423,-0.36894608,-0.477902
195567879958506,3.030202,0.51883173,-0.54055214,-1.1893889
195567887986698,3.038230,0.66036606,-0.78208923,-1.4052541
195567896044006,3.046287,0.65953016,-0.83926535,-0.96719456
195567904117121,3.054360,0.8505893,-0.5557871,-0.2881102
195567912206044,3.062449,1.1269684,-0.23445654,0.30703777
195567920191429,3.070435,1.2605462,-0.18097544,0.80128616
195567928234390,3.078478,1.0057254,-0.26685905,1.2666328
195567936238429,3.086482,0.6244478,-0.30816126,1.1436989
195567944279083,3.094522,0.4541936,-0.31341314,0.696135
195567952373467,3.102617,0.39986467,-0.30941296,0.4122526
195567960450121,3.110693,0.13105059,-0.17142916,0.10072303
195567968489852,3.118733,-0.65523195,-0.027178764,-0.5487936
195567976506852,3.126750,-1.237371,0.040852547,-0.4691761
195567984506044,3.134749,-1.5476379,-0.03426552,-0.54056215
195567992566890,3.142810,-1.7469914,-0.15749264,-0.66456026
195568000631659,3.150875,-1.9024429,-0.17794132,-0.43677008
195568008726736,3.158970,-1.78602,-0.03945732,-0.40992945
195568016747736,3.166991,-1.5343885,0.022206306,-0.51781166
195568024779852,3.175023,-1.1969213,-0.009394646,-0.57826275
195568032783236,3.183026,-0.80804443,-0.0992136,-0.5740613
195568040781044,3.191024,-0.3887024,-0.31206703,-0.37441275
195568048790582,3.199034,0.052803993,-0.35346413,-0.22649941
195568056809428,3.207053,0.50942755,-0.2585864,-0.2095645
195568064820582,3.215064,0.72254086,-0.18703318,-0.11970347
195568072857582,3.223101,0.7483134,-0.16825867,-0.019255757
195568080843544,3.231087,0.6004658,-0.28715277,0.014491558
195568088879736,3.239123,0.2385006,-0.47052765,-0.16535297
195568096885851,3.247129,0.029819012,-0.4470091,-0.22287017
195568104914813,3.255158,0.04610777,-0.35636616,-0.22976542
195568112927390,3.263171,0.06157875,-0.2915063,-0.24105501
195568120921659,3.271165,-0.01763916,-0.2761693,-0.027801335
195568128929967,3.279173,-0.184062,-0.27944517,0.017448664
195568136945313,3.287188,-0.36134863,-0.29878807,-0.045273185
195568144964313,3.295207,-0.48922682,-0.22282314,-0.14163709
195568153010082,3.303253,-0.5118933,-0.13575935,-0.23189977
195568160995197,3.311238,-0.42724037,-0.17858887,-0.02758193
195568169044313,3.319287,-0.19581652,-0.22824001,0.23908514
195568177048889,3.327292,0.08802414,-0.19238567,0.19424051
195568185079697,3.335323,0.49272633,-0.07449627,-0.011244297
195568193093428,3.343337,0.82353497,-0.103069305,-0.036742628
195568201090312,3.351333,0.8566618,-0.2811098,-0.026177943
195568209099351,3.359343,0.7685609,-0.3080287,-0.2762563
195568217119235,3.367362,0.6134114,-0.23023319,-0.58496207
195568225146466,3.375390,0.3293085,-0.1305151,-0.87998736
195568233192005,3.383435,0.013041496,-0.16488838,-0.86092675
195568241177697,3.391421,-0.14779472,-0.21012688,-0.7139441
195568249224043,3.399467,-0.2096014,-0.12177467,-0.71377665
195568257228043,3.407471,-0.1992054,0.047735214,-0.6461787
195568265288351,3.415532,-0.042827606,0.15981388,-0.44640082
195568273303581,3.423547,0.051454544,0.21199512,-0.3141582
195568281300851,3.431544,0.06789732,0.26342583,-0.28204992
195568289312158,3.439555,0.012328625,0.3493433,-0.3688314
195568297330081,3.447573,-0.12412357,0.3639431,-0.4878721
195568305315466,3.455559,-0.28494358,0.3150835,-0.5085802
195568313396735,3.463640,-0.3578248,0.29867172,-0.5551374
195568321381466,3.471625,-0.2275405,0.35433292,-0.6035775
195568329427197,3.479670,-0.038440704,0.39633846,-0.58492655
195568337432389,3.487676,0.11848974,0.4127617,-0.44754678
195568345471350,3.495715,0.27463675,0.39383793,-0.34200743
195568353527312,3.503770,0.3255539,0.46347904,-0.3443138
195568361525658,3.511769,0.3178668,0.5083914,-0.31651014
195568369545427,3.519789,0.22285461,0.47116947,-0.2717254
195568377613273,3.527856,0.10754633,0.3664074,-0.1678139
195568385608004,3.535851,0.08104992,0.46505928,-0.1931383
195568393700619,3.543944,0.202497,0.52814007,-0.17036578
195568401685812,3.551929,0.24999905,0.4833517,-0.18567747
195568409731850,3.559975,0.33368063,0.50313854,-0.25741512
195568417736735,3.567980,0.22720385,0.57236004,-0.4445761
195568425776042,3.576019,-0.04947567,0.55658245,-0.62610006
195568433815581,3.584059,-0.16431427,0.42289448,-0.725641
195568441812427,3.592056,-0.16173935,0.31083393,-0.5692466
195568449833235,3.600076,-0.21410799,0.34009457,-0.49199808
195568457903427,3.608147,-0.2805128,0.36444664,-0.45822495
195568465976081,3.616219,-0.23287487,0.31276226,-0.2665652
195568474081273,3.624324,-0.047293186,0.3286829,-0.16755262
195568482095773,3.632339,0.10422516,0.40238857,-0.20124695
195568490165811,3.640409,-0.023638725,0.4134102,-0.2975757
195568498194504,3.648438,-0.29615068,0.30873966,-0.39323008
195568506273657,3.656517,-0.5063467,0.27431774,-0.46609557
195568514308734,3.664552,-0.43636847,0.34291935,-0.35989597
195568522333850,3.672577,-0.26265717,0.33834267,-0.07115501
195568530391657,3.680635,-0.09668255,0.3116293,0.16865607
195568538408965,3.688652,0.04373598,0.32898808,0.1367955
195568546418888,3.696662,0.034754276,0.35886383,-0.037634447
195568554503042,3.704746,-0.0070199966,0.3404808,-0.10140739
195568562486926,3.712730,-0.0050902367,0.31703663,-0.06310235
195568570532273,3.720775,-0.083788395,0.3195753,-0.12178952
195568578537157,3.728780,-0.07048893,0.26415825,0.02959916
195568586569619,3.736813,-0.011856079,0.2711401,0.06304462
195568594586080,3.744829,0.054387093,0.27075577,-0.013578594
195568602582388,3.752826,0.061553,0.19815063,-0.12952712
195568610591157,3.760834,-0.013917923,0.14890671,-0.26844957
195568618609503,3.768853,-0.0826478,0.20641994,-0.3756535
195568626595695,3.776839,-0.26746082,0.22025585,-0.503808
195568634639465,3.784883,-0.47824478,0.23031807,-0.5325988
195568642622195,3.792865,-0.75341725,0.20796013,-0.5092199
195568650661388,3.800905,-0.93022394,0.24421406,-0.555234
195568658662464,3.808906,-0.94091415,0.30168533,-0.50592095
195568666710734,3.816954,-0.9063492,0.299572,-0.46730947
195568674799003,3.825042,-0.8194077,0.23072433,-0.55128175
195568682794503,3.833038,-0.6269119,0.22534943,-0.85673875
195568690804387,3.841048,-0.35747528,0.21875763,-0.8250933
195568698822003,3.849065,-0.13733244,0.23696136,-0.7608004
195568706846734,3.857090,-0.07814884,0.21966362,-0.76650476
195568714889426,3.865133,-0.13987875,0.22587776,-0.8104453
195568722872657,3.873116,-0.24955082,0.24549198,-0.8021866
195568730914310,3.881157,-0.43412995,0.25967312,-0.8159347
195568738938349,3.889182,-0.5828974,0.27296352,-0.8530743
195568746983156,3.897226,-0.75424194,0.21639824,-0.8963737
195568754993426,3.905237,-0.8073189,0.17876911,-0.8914273
195568762990656,3.913234,-0.6706805,0.21161175,-0.862864
195568770998926,3.921242,-0.44015908,0.25747776,-0.8917233
195568779016233,3.929259,-0.29979753,0.186903,-0.8109905
195568787010656,3.937254,-0.25383925,0.16478539,-0.74681044
195568795054426,3.945298,-0.22424841,0.2575264,-0.57918096
195568803038387,3.953282,-0.31804228,0.2708826,-0.508901
195568811085579,3.961329,-0.47464085,0.22851562,-0.5325885
195568819088579,3.969332,-0.5888536,0.20713234,-0.597404
195568827115041,3.977358,-0.5622139,0.19807816,-0.62822604
195568835124464,3.985368,-0.4904561,0.1749754,-0.61623883
195568843115348,3.993359,-0.5839007,0.20231724,-0.6378034
195568851123618,4.001367,-0.8221431,0.21496677,-0.5846888
195568859141464,4.009385,-1.1750615,0.19560242,-0.47901964
195568867137464,4.017381,-1.3529406,0.14993477,-0.37746775
195568875176656,4.025420,-1.1461453,0.206213,-0.34205022
195568883157541,4.033401,-0.7423234,0.22828388,-0.3316491
195568891197733,4.041441,-0.32623506,0.16358566,-0.24572876
195568899200502,4.049444,0.08299923,0.21072006,-0.15744552
195568907231348,4.057475,0.25621867,0.24812222,-0.15824601
195568915243656,4.065487,0.27549338,0.2226181,-0.07359874
195568923242579,4.073486,0.23380542,0.20703697,0.10091856
195568931252156,4.081495,0.05714822,0.31135178,0.31634253
195568939294963,4.089538,-0.12173772,0.35810947,0.4797693
195568947347040,4.097590,-0.17924213,0.34292126,0.60738546
195568955432502,4.105676,-0.15346503,0.33516693,0.4987528
195568963416233,4.113659,-0.11399913,0.28708935,0.31371817
195568971464194,4.121707,-0.16800833,0.13377094,0.13956599
195568979496771,4.129740,-0.12888122,0.047597885,0.07789308
195568987608309,4.137851,-0.23345685,0.10034561,-0.10546863
195568995689925,4.145933,-0.52522063,0.03030777,-0.17354411
195569003686348,4.153930,-0.66453815,-0.06185341,-0.13454393
195569011759694,4.162003,-0.6332791,-0.015347481,-0.0791713
195569019858579,4.170102,-0.53718805,0.07426071,-0.12814692
195569027901771,4.178145,-0.43660474,0.111349106,-0.08821854
195569035974886,4.186218,-0.28662133,0.194273,-0.03386298
195569044040540,4.194284,-0.3892436,0.26487732,-0.08625892
195569052164194,4.202407,-0.53018117,0.24133205,-0.07344487
195569060169040,4.210412,-0.6789336,0.18371582,-0.06982654
195569068199655,4.218443,-0.7725558,0.22667408,-0.021146983
195569076212501,4.226456,-0.8164253,0.21718884,0.0346047
195569084209271,4.234452,-0.75733066,0.20616055,0.118793845
195569092215963,4.242459,-0.56685376,0.2032566,0.15736601
195569100252847,4.250496,-0.35828328,0.18719864,0.15826574
195569108329309,4.258572,-0.16512156,0.05499077,0.2118037
195569116443770,4.266687,-0.017924786,-0.030781746,0.2216618
195569124427309,4.274670,-0.052662373,-0.06307602,0.14083864
195569132470463,4.282714,-0.186095,-0.05209446,0.08642918
195569140475463,4.290719,-0.2958641,-0.029043198,-0.018139482
195569148504693,4.298748,-0.35774112,-0.010781288,-0.05808276
195569156554886,4.306798,-0.35084343,0.02445507,-0.031112343
195569164580039,4.314823,-0.2641344,0.04343605,0.04549244
195569172649270,4.322892,-0.16060376,0.060726166,0.18475041
195569180664732,4.330908,-0.040421486,0.08116245,0.3768344
195569188767924,4.339011,0.1392436,0.052170753,0.47340927
195569196892616,4.347136,0.48511958,4.5871735E-4,0.58521533
195569204957539,4.355201,0.60352325,0.016597748,0.4880764
195569213076732,4.363320,0.54008245,0.09738159,0.42239073
195569221161847,4.371405,0.42166686,0.08955288,0.4756474
195569229272924,4.379516,0.1797154,0.09579182,0.4428389
195569237256270,4.387499,-0.15676355,0.120809555,0.38923636
195569245252885,4.395496,-0.26050854,0.100214005,0.34616774
195569253305308,4.403548,-0.07729006,0.08056164,0.4388684
195569261403693,4.411647,0.13115048,0.11240673,0.41097018
195569269394270,4.419637,0.39097333,0.090538025,0.36952204
195569277438885,4.427682,0.605073,0.064894676,0.27429086
195569285434039,4.435677,0.7140212,0.032953262,0.15409414
195569293512154,4.443755,0.705127,-0.0010871887,0.05649054
195569301561539,4.451805,0.60739803,-0.05410385,0.07158318
195569309628539,4.459872,0.5388255,-0.028208733,0.12635843
195569317696000,4.467939,0.5699687,0.02437687,0.24169016
195569325706423,4.475950,0.65972185,0.039172173,0.33396453
195569333719808,4.483963,0.7079952,0.0303936,0.34368324
195569341817231,4.492060,0.7482898,0.017228127,0.3385681
195569349863923,4.500107,0.7837119,-0.038889885,0.27085328
195569357964039,4.508207,0.8664048,0.025050163,0.19569457
195569365951385,4.516195,0.86771464,0.06515217,0.22985066
195569374058269,4.524301,0.737792,0.09080601,0.35061684
195569382069346,4.532313,0.522136,0.20017529,0.5531072
195569390099577,4.540343,0.41490054,0.28783798,0.7782273
195569398110385,4.548354,0.38201118,0.2831545,1.1182504
195569406174077,4.556417,0.619004,0.16971684,1.6150876
195569414232462,4.564476,1.1510053,0.2258339,1.8473653
195569422248000,4.572491,1.8487902,0.1834116,1.9914011
195569430245462,4.580489,2.3435154,0.11952877,2.2745328
195569438302654,4.588546,2.6592236,0.12543488,2.3208804
195569446286538,4.596530,2.6815536,0.08722305,2.4114819
195569454320038,4.604563,2.546097,-0.026994705,2.5568957
195569462325000,4.612568,2.3729353,-0.117946625,2.5785563
195569470358000,4.620601,2.0320647,-0.19043255,2.4258294
195569478361961,4.628605,1.6015658,-0.2871399,2.1198514
195569486360807,4.636604,1.1983972,-0.34803677,1.8838892
195569494370269,4.644613,0.9914725,-0.4482088,1.8416052
195569502392231,4.652635,0.77164555,-0.6088257,1.9181045
195569510406115,4.660649,0.5397229,-0.6424494,1.9497027
195569518450500,4.668694,0.34793162,-0.64227104,1.7062685
195569526435384,4.676679,0.1543436,-0.62933064,1.5365725
195569534481769,4.684725,-0.0821867,-0.6728821,1.1812665
195569542487538,4.692731,-0.21089005,-0.74418354,0.88698393
195569550518153,4.700761,-0.2164309,-0.7732134,0.58535004
195569558531230,4.708774,-0.24491644,-0.83758354,0.37795436
195569566527269,4.716770,-0.14471555,-0.937623,0.29776466
195569574535538,4.724779,0.08780217,-0.97325325,0.17577916
195569582555692,4.732799,0.34157968,-0.8962183,0.1030987
195569590563346,4.740807,0.5060859,-0.88396263,0.14452377
195569598608230,4.748851,0.5872605,-0.9245577,0.17004488
195569606594461,4.756838,0.7028818,-0.91484165,0.08032309
195569614640192,4.764883,0.68997574,-0.9173956,-0.058697842
195569622646307,4.772889,0.62094545,-0.8798075,-0.17499301
195569630677345,4.780921,0.52920103,-0.91216564,-0.1994589
195569638689922,4.788933,0.52962995,-0.85401917,-0.059843212
195569646686499,4.796930,0.47569108,-0.70514774,0.047409832
195569654714884,4.804958,0.3084581,-0.56172085,0.13432984
195569662732845,4.812976,0.035398245,-0.44781685,0.23042862
195569670760576,4.821004,-0.15256047,-0.49964237,0.31424558
195569678818691,4.829062,-0.10173011,-0.49610043,0.26364014
195569686803730,4.837047,0.050552607,-0.43682384,0.17010477
195569694850576,4.845094,0.21742678,-0.37660217,-0.013801277
195569702855345,4.853099,0.18175101,-0.36363506,-0.07736719
195569710885922,4.861129,0.2285788,-0.36445522,-0.016101956
195569718899653,4.869143,0.26141453,-0.32365608,-0.019733906
195569726897230,4.877140,0.30251074,-0.27030182,-0.0035550594
195569734905191,4.885148,0.3495264,-0.27140808,0.091273665
195569742923230,4.893166,0.5261862,-0.2882738,0.17240632
195569750909268,4.901152,0.58443046,-0.23989868,0.28332257
195569758953653,4.909197,0.58719945,-0.16965199,0.4162021
195569766939537,4.917183,0.39490175,-0.13573074,0.49705824
195569774986999,4.925230,0.18713236,-0.15491676,0.61947334
195569782992768,4.933236,0.12773895,-0.14036942,0.8306579
195569791023460,4.941267,0.24918032,-0.034147263,1.0064514
195569799036883,4.949280,0.497643,0.06369114,1.0207256
195569807034768,4.957278,0.6134286,0.059044838,0.9556524
195569815107114,4.965350,0.57889414,0.0014419556,0.76154643
195569823206037,4.973449,0.47596264,-0.047204018,0.37263387
195569831242845,4.981486,0.23833895,-0.08734417,-0.032803774
195569839369691,4.989613,0.013633728,-0.14961624,-0.23654619
195569847435345,4.997679,0.018567085,-0.19269562,-0.22571781
195569855562152,5.005805,0.13835192,-0.099326134,-0.18000731
195569863573768,5.013817,0.23881054,0.015665054,-0.2006959
195569871683383,5.021927,0.33393002,0.018383026,-0.24473628
195569879776114,5.030019,0.42070055,-0.04533291,-0.23385215
195569887852460,5.038096,0.5285182,-0.04645443,-0.18317384
195569895941114,5.046184,0.624197,0.07704544,-0.1779542
195569904039152,5.054282,0.52970266,0.16395569,-0.31314397
195569912122114,5.062365,0.3047986,0.16285992,-0.37791103
195569920248614,5.070492,0.08720589,0.17017555,-0.35947642
195569928314883,5.078558,0.09837437,0.20565033,-0.32503384
195569936364306,5.086607,0.1792078,0.291296,-0.36709437
195569944368767,5.094612,0.24600506,0.33372116,-0.29455286
195569952397460,5.102641,0.25629568,0.31353283,-0.1753487
195569960430844,5.110674,0.2694254,0.34349537,-0.16015303
195569968433383,5.118677,0.37184,0.37076664,-0.09030831
195569976521498,5.126765,0.3817749,0.3976755,0.007411003
195569984619075,5.134862,0.2612958,0.3546629,0.082038224
195569992707652,5.142951,0.20679712,0.342103,0.04448086
195570000790075,5.151033,0.17671013,0.33170986,-0.012109816
195570008773075,5.159016,0.15646267,0.2756834,-0.11384016
195570016884536,5.167128,0.28916883,0.20784092,-0.0696072
195570024970690,5.175214,0.521821,0.21457863,-0.02828449
195570033077382,5.183321,0.62078285,0.24022579,-0.08192092
195570041170959,5.191414,0.46515512,0.20992184,-0.14150757
195570049240228,5.199483,0.11342621,0.20703411,-0.19125605
195570057330228,5.207573,-0.12629557,0.21526718,-0.17471331
195570065429113,5.215672,-0.28105688,0.28047466,-0.13744521
195570073482767,5.223726,-0.4331379,0.24753761,-0.09692776
195570081607998,5.231851,-0.41792154,0.20528507,-0.062198102
195570089672959,5.239916,-0.19641829,0.19279385,-0.037207305
195570097796651,5.248040,0.030547142,0.13794613,-0.14977515
195570105880344,5.256124,0.16042995,0.062102318,-0.21091384
195570113989151,5.264232,0.20130062,0.017365456,-0.31512195
195570122082344,5.272326,0.1773529,0.017951012,-0.4717776
195570130158036,5.280401,0.02998972,0.08213043,-0.69508964
195570138220420,5.288464,-0.24246788,0.06840229,-0.9023789
195570146317074,5.296560,-0.43385363,0.060653687,-0.8395724
195570154430074,5.304673,-0.43277168,0.0907383,-0.70472836
195570162509690,5.312753,-0.30935097,0.14001465,-0.48273772
195570170575497,5.320819,-0.24314976,0.20616627,-0.2965979
195570178663843,5.328907,-0.15760231,0.22687817,-0.2243784
195570186721651,5.336965,-0.06975603,0.17354298,-0.18690723
195570194826420,5.345070,-0.14200497,0.21101093,-0.2976076
195570202920651,5.353164,-0.340106,0.20723534,-0.43657172
195570210999035,5.361242,-0.35411263,0.14127922,-0.33306766
195570219052689,5.369296,-0.23549795,0.11915016,-0.1938765
195570227140497,5.377384,-0.11609697,0.07626724,-0.13860011
195570235207497,5.385451,-0.050633907,0.11038685,-0.28933448
195570243332997,5.393576,-0.035727978,0.14200306,-0.50935113
195570251397497,5.401641,0.07908821,0.10194969,-0.6319375
195570259523497,5.409767,0.16494846,0.08353424,-0.6728558
195570267571343,5.417815,0.21309614,0.09852409,-0.55753684
195570275682035,5.425925,0.28676653,0.12744617,-0.38099626
195570283774766,5.434018,0.27802515,0.19673252,-0.27490962
195570291847843,5.442091,0.22385693,0.2362709,-0.19437557
195570299908804,5.450152,0.044820786,0.27007675,-0.2671572
195570308005766,5.458249,-0.20138502,0.27165413,-0.29881316
195570316085074,5.466328,-0.4769156,0.25080776,-0.32755125
195570324208843,5.474452,-0.60792303,0.23195934,-0.2603888
195570332273535,5.482517,-0.3968084,0.19769478,-0.07187724
195570340400266,5.490643,-0.102725506,0.16266823,0.05089432
195570348485804,5.498729,0.10476732,0.14118576,0.1542924
195570356595650,5.506839,0.22432709,0.06069088,0.08988947
195570364688804,5.514932,0.25734472,-5.1021576E-4,-0.04121858
195570372765266,5.523008,0.13815689,0.062096596,-0.23714167
195570380860073,5.531103,-0.059112072,0.018746376,-0.3761391
195570388956535,5.539200,-0.17905521,-0.0849247,-0.43948007
195570397021035,5.547264,-0.20158577,-0.15479279,-0.4494583
195570405144573,5.555388,-0.06506491,-0.089847565,-0.28569412
195570413206727,5.563450,0.22387552,-0.13569164,-0.079021335
195570421331112,5.571574,0.56023026,-0.25667953,0.078321874
195570429415265,5.579658,0.81665564,-0.31161118,0.016598165
195570437525458,5.587769,0.9616513,-0.36763096,-0.17517054
195570445612573,5.595856,0.87117434,-0.39474487,-0.403023
195570453686458,5.603930,0.66727877,-0.43948174,-0.45915097
195570461774611,5.612018,0.51520157,-0.4394493,-0.50562125
195570469869958,5.620113,0.3767438,-0.4066,-0.4832513
195570477966188,5.628209,0.31421566,-0.35768414,-0.40686274
195570486061342,5.636305,0.3221302,-0.32346535,-0.27918196
195570494123957,5.644367,0.37873745,-0.3015108,-0.21702367
195570502257688,5.652501,0.28817987,-0.25622463,-0.28638273
195570510340611,5.660584,0.06420517,-0.2172184,-0.40299988
195570518449457,5.668693,-0.18137026,-0.2320528,-0.45656615
195570526540304,5.676783,-0.30770493,-0.29318523,-0.37212455
195570534616265,5.684859,-0.19764662,-0.2533884,-0.28121608
195570542704880,5.692948,-0.097946644,-0.16539001,-0.3214565
195570550801727,5.701045,-0.12747955,-0.13255024,-0.3441968
195570558865957,5.709109,-0.19298649,-0.1692133,-0.35393006
195570566991073,5.717234,-0.26026917,-0.13199806,-0.37257528
195570575054534,5.725298,-0.35064292,-0.099967,-0.36716795
195570583141188,5.733384,-0.55236006,-0.04214573,-0.42865127
195570591224880,5.741468,-0.6026945,-0.09458542,-0.28300023
195570599333072,5.749576,-0.4130733,-0.08621216,-0.2149443
195570607424726,5.757668,-0.2945087,-0.069685936,-0.046245933
195570615500034,5.765743,-0.17571163,-0.1332941,0.15311545
195570623586957,5.773830,0.07237387,-0.23622322,0.34952247
195570631683534,5.781927,0.3710909,-0.2806883,0.45906878
195570639788265,5.790031,0.62288,-0.31995392,0.41785192
195570647912380,5.798156,0.7047858,-0.40143967,0.3185076
195570655976072,5.806219,0.81429434,-0.54376984,0.2068401
195570664093726,5.814337,0.92289066,-0.62479687,0.14382142
195570672178418,5.822422,0.88369226,-0.63909054,0.11454815
195570680288726,5.830532,0.67848253,-0.598938,0.1657409
195570688381303,5.838624,0.48701286,-0.51128006,0.42176193
195570696458226,5.846701,0.3438034,-0.40559864,0.59026843
195570704547880,5.854791,0.16146612,-0.35805416,0.68185884
195570712646341,5.862890,-0.098526,-0.33270454,0.7571652
195570720715957,5.870959,-0.18214846,-0.32309914,0.80292195
195570728841803,5.879085,-0.100608826,-0.29184723,0.7881639
195570736892187,5.887135,-0.031949997,-0.24599934,0.58857024
195570744954033,5.895197,-0.090070724,-0.2290926,0.40735328
195570753039033,5.903282,-0.21224546,-0.21505642,0.28083342
195570761113149,5.911356,-0.35320306,-0.23248863,0.17755389
195570769125072,5.919368,-0.34333062,-0.20458126,0.1212011
195570777135379,5.927379,-0.2417748,-0.211936,0.068323135
195570785225264,5.935468,-0.14100313,-0.15221596,-0.08934915
195570793323187,5.943566,-0.15529776,-0.13100624,-0.22059476
195570801375995,5.951619,-0.13117123,-0.12183857,-0.2534914
195570809430533,5.959674,-0.075807095,-0.13419247,-0.20330155
195570817473841,5.967717,0.044589996,-0.10572529,-0.086420834
195570825581110,5.975824,0.15848875,-0.12758923,0.13818872
195570833585533,5.983829,0.22081757,-0.006023407,0.30039895
195570841662802,5.991906,0.017487526,0.13124466,0.30877906
195570849750687,5.999994,-0.33924317,0.15487576,0.23202115
195570857765341,6.008009,-0.58024025,0.11343956,0.2612126
195570865822918,6.016066,-0.830282,0.18666172,0.15185672
195570873842995,6.024086,-1.0354402,0.31883907,-0.03790158
195570881846264,6.032089,-1.1809585,0.4005394,-0.20331496
195570889898994,6.040142,-1.1625884,0.38451767,-0.17339903
195570897919533,6.048163,-1.101754,0.35534477,-0.17330343
195570906023956,6.056267,-0.97229624,0.4077673,-0.1835314
195570914108033,6.064351,-0.5898762,0.39801311,-0.10439783
195570922219071,6.072462,-0.20349884,0.38607788,0.12086338
195570930234071,6.080477,0.05212736,0.38075447,0.31063753
195570938300263,6.088543,0.41080475,0.27602386,0.4385898
195570946388571,6.096632,0.7739639,0.17261219,0.49806488
195570954406610,6.104650,1.171216,0.11801815,0.44129848
195570962412186,6.112655,1.4884505,0.12024212,0.38151032
195570970458494,6.120702,1.7762661,0.14798069,0.21589518
195570978508302,6.128751,1.7726221,0.14316177,0.022929788
195570986582802,6.136826,1.6168423,0.05658722,-0.0141867995
195570994621263,6.144864,1.5019455,-0.038000107,0.09840953
195571002676994,6.152920,1.504067,-0.013745308,0.0982191
195571010760302,6.161003,1.6437826,0.047232628,0.10397506
195571018835763,6.169079,1.7108865,0.08247757,0.17976117
195571026924763,6.177168,1.5902643,0.07414532,0.26769817
195571034951340,6.185195,1.352181,0.0827713,0.33283103
195571042967532,6.193211,1.1368685,0.08484936,0.42860693
195571051018571,6.201262,0.9729123,0.07806587,0.57656074
195571059082301,6.209325,0.75808,0.03448391,0.6551263
195571067202532,6.217446,0.6430254,-0.017162323,0.6556997
195571075222109,6.225465,0.46191645,-0.019101143,0.5400563
195571083252455,6.233496,0.2281704,-0.049815178,0.44891292
195571091268648,6.241512,0.049736023,-0.16201782,0.5061457
195571099274647,6.249518,0.030869484,-0.2138586,0.5650244
195571107280994,6.257524,0.10413265,-0.18845654,0.5161882
195571115295340,6.265539,0.07264948,-0.21162319,0.44516104
195571123317686,6.273561,-0.05507469,-0.35654545,0.45911145
195571131362917,6.281606,-0.10707617,-0.46735477,0.4978218
195571139345532,6.289589,0.021299839,-0.54370975,0.55651516
195571147391032,6.297634,0.17445946,-0.5066309,0.68568295
195571155438417,6.305682,0.40972424,-0.5643463,0.9165412
195571163496109,6.313739,0.57409763,-0.65229607,1.0501745
195571171510109,6.321753,0.6829095,-0.66577053,1.0906762
195571179506263,6.329749,0.61029434,-0.66297626,0.85595185
195571187533416,6.337777,0.3938775,-0.7430401,0.71331817
195571195574609,6.345818,0.09798622,-0.8113818,0.5396172
195571203567109,6.353810,-0.23727608,-0.85086584,0.410631
195571211608109,6.361851,-0.26606607,-0.88944626,0.4377125
195571219592147,6.369835,-0.11220217,-0.83994484,0.43283945
195571227635262,6.377878,0.1110363,-0.72582245,0.38782287
195571235639724,6.385883,0.24227142,-0.69631004,0.30111337
195571243668916,6.393912,0.10468674,-0.64620304,0.14136845
195571251732070,6.401975,-0.26397085,-0.59806347,-0.07818788
195571259728570,6.409972,-0.6291611,-0.5566044,-0.16364086
195571267819262,6.418062,-0.983485,-0.48708153,-0.23612595
195571275836647,6.426080,-1.1271765,-0.46546173,-0.16383976
195571283831878,6.434075,-1.1286404,-0.4131546,-0.056313276
195571291918262,6.442161,-0.98730874,-0.35677624,0.019227684
195571299919877,6.450163,-0.73794603,-0.37239456,0.096652746
195571307964108,6.458207,-0.45076013,-0.3769827,0.12067568
195571315988839,6.466232,-0.33297062,-0.38217545,0.041865528
195571324020262,6.474263,-0.32914066,-0.35069084,-0.0519647
195571332034300,6.482277,-0.4412229,-0.34259224,-0.21352422
195571340031147,6.490274,-0.5063946,-0.34828186,-0.23489732
195571348039954,6.498283,-0.4127345,-0.2907009,-0.07006705
195571356056877,6.506300,-0.2532406,-0.17485332,0.1808207
195571364042762,6.514286,-0.18259096,-0.0036115646,0.3911094
195571372107762,6.522351,-0.17640781,0.0694294,0.5099851
195571380127531,6.530371,-0.19419241,0.14541721,0.5133188
195571388173531,6.538417,-0.2733984,0.18267632,0.44751382
195571396178839,6.546422,-0.4499855,0.20031738,0.23673302
195571404209454,6.554453,-0.58487725,0.17431736,0.053082943
195571412221839,6.562465,-0.6416724,0.2061739,-0.11565673
195571420218223,6.570461,-0.54361415,0.31023312,-0.19346607
195571428227262,6.578470,-0.40179014,0.37207985,-0.22875482
195571436244300,6.586487,-0.39009523,0.4535265,-0.18306321
195571444336185,6.594579,-0.3472848,0.467988,-0.08288109
195571452462992,6.602706,-0.32044506,0.46893024,0.03334564
195571460468185,6.610711,-0.16050482,0.44298077,0.2598188
195571468514723,6.618758,0.12983179,0.4765787,0.48305726
195571476565415,6.626809,0.48420715,0.6351156,0.49389774
195571484596223,6.634839,0.7158909,0.77837086,0.36656374
195571492626415,6.642870,0.7941737,0.8342552,0.22414249
195571500624915,6.650868,0.6925926,0.89028645,0.010982752
195571508634723,6.658878,0.45790815,0.94352055,-0.123144984
195571516661454,6.666905,0.24061537,0.92491245,-0.15197217
195571524655607,6.674899,0.14555836,0.9639454,-0.19455254
195571532764992,6.683008,0.3598156,1.0162668,-0.09597808
195571540803415,6.691047,0.71637774,1.0231466,0.012868524
195571548863453,6.699107,1.0546598,1.0168762,0.14775574
195571556882569,6.707126,1.2513094,0.99208736,0.32795733
195571564978338,6.715222,1.4470243,1.0123034,0.55507827
195571573067492,6.723311,1.7464886,0.9342327,0.8481712
195571581076607,6.731320,2.03187,0.7590275,1.1015038
195571589085453,6.739329,2.186614,0.60346127,1.241679
195571597102761,6.747346,2.349484,0.46141338,1.3023996
195571605132876,6.755376,2.5058842,0.3473549,1.132515
195571613199684,6.763443,2.5175395,0.22032356,0.95617235
195571621199069,6.771442,2.421156,0.0738945,0.8391955
195571629242030,6.779485,2.0948405,-0.03795147,0.79276764
195571637248915,6.787492,1.6197777,-0.17247581,0.79267836
195571645279030,6.795522,1.1298943,-0.27943707,0.91695225
195571653302299,6.803545,0.8614063,-0.38575363,1.0338844
195571661344376,6.811588,0.5543361,-0.53633976,1.1044492
195571669402568,6.819646,0.34742022,-0.70101404,1.0992216
195571677437530,6.827681,0.20443392,-0.8270054,0.9467715
195571685428184,6.835671,0.11686134,-0.873127,0.69888246
195571693461684,6.843705,-0.03441477,-0.9544482,0.55277884
195571701445568,6.851689,-0.15858603,-1.0756102,0.37382114
195571709485568,6.859729,-0.19915009,-1.1451898,0.33219254
195571717503876,6.867747,-0.2876625,-1.0999017,0.28315604
195571725553145,6.875796,-0.4280014,-1.0473328,0.21039522
195571733590453,6.883834,-0.50287485,-1.006444,0.27047193
195571741651107,6.891894,-0.51928186,-0.99755526,0.33095586
195571749659953,6.899903,-0.54094696,-0.928905,0.30294704
195571757678222,6.907921,-0.5581775,-0.8507457,0.24328458
195571765678530,6.915922,-0.5170059,-0.8869138,0.17273438
195571773724876,6.923968,-0.368433,-0.92596054,0.30780625
195571781710145,6.931953,-0.112968445,-0.89148474,0.38504755
195571789765837,6.940009,0.21534157,-0.86953163,0.48665404
195571797771876,6.948015,0.45768118,-0.83457947,0.6174475
195571805801183,6.956044,0.6388488,-0.7727494,0.61022055
195571813811106,6.964054,0.79760265,-0.7633877,0.6356802
195571821806799,6.972050,0.90367746,-0.73735714,0.59234834
195571829815337,6.980059,0.87151384,-0.7093053,0.46801198
195571837833683,6.988077,0.81176853,-0.6669946,0.36673653
195571845845722,6.996089,0.9043789,-0.6933527,0.48157787
195571853891798,7.004135,1.1534114,-0.67517805,0.6670016
195571861875298,7.012118,1.3169465,-0.56214523,0.75088716
195571869919914,7.020163,1.2618499,-0.443367,0.7911848
195571877924337,7.028168,1.1466589,-0.41638947,0.74654233
195571885989721,7.036233,0.9487715,-0.43776894,0.67084074
195571894060798,7.044304,0.7198024,-0.45333385,0.54666543
195571902062991,7.052306,0.4003973,-0.38208866,0.37143064
195571910071991,7.060315,0.1615591,-0.3164568,0.3042667
195571918087606,7.068331,-0.042362213,-0.24425316,0.37555897
195571926124183,7.076367,-0.14800644,-0.22950077,0.51618075
195571934163529,7.084407,-0.24126148,-0.18138981,0.6424459
195571942181990,7.092425,-0.31777906,-0.15966034,0.68077755
195571950251183,7.100494,-0.42559576,-0.11851406,0.6470345
195571958255913,7.108499,-0.4834156,-0.059737206,0.42706656
195571966287836,7.116531,-0.5296087,-0.063957214,0.109727025
195571974301952,7.124545,-0.6180699,-0.07898331,-0.12134826
195571982299644,7.132543,-0.65480065,-0.06782532,-0.24573553
195571990308490,7.140552,-0.54447436,-0.049313545,-0.1443448
195571998325183,7.148568,-0.48604107,-0.02055931,-0.0684011
195572006350759,7.156594,-0.36099863,0.0070734024,-0.06824958
195572014396221,7.164639,-0.24411154,0.10035324,-0.18384075
195572022380952,7.172624,-0.2817068,0.10556984,-0.33230639
195572030426721,7.180670,-0.33512497,0.11400318,-0.3927207
195572038430952,7.188674,-0.36607218,0.12322712,-0.38880348
195572046461182,7.196704,-0.44447088,0.109737396,-0.25229466
195572054525605,7.204769,-0.5200727,0.08542824,-0.05686462
195572062603413,7.212847,-0.46694183,0.08660889,0.09983909
195572070661221,7.220904,-0.30658197,0.15006542,0.042563677
195572078678182,7.228921,-0.19103813,0.2439909,-0.151335
195572086703490,7.236947,-0.06508255,0.23424149,-0.33085918
195572094746567,7.244990,0.06730509,0.19839096,-0.45597237
195572102731682,7.252975,0.38969183,0.21018696,-0.41590917
195572110774605,7.261018,0.68739843,0.26002407,-0.20081508
195572118777682,7.269021,1.0722032,0.18200779,0.16215277
195572126806951,7.277050,1.52356,0.10610676,0.5672219
195572134808528,7.285052,1.9301848,0.14653206,0.7606679
195572142803567,7.293047,2.2600498,0.20161057,0.8639411
195572150823528,7.301067,2.2571945,0.20523453,0.9344567
195572158846682,7.309090,1.9109802,0.1651144,0.9779855
195572166874682,7.317118,1.5247703,0.21913528,0.9289204
195572174926720,7.325170,1.0057044,0.27119827,0.8402505
195572182962990,7.333206,0.6108537,0.2779827,0.9344431
195572191011874,7.341255,0.35293007,0.33617687,1.0606467
195572199086028,7.349329,0.2290225,0.350173,1.1167489
195572207196989,7.357440,0.13947868,0.368495,1.0439869
195572215280105,7.365523,0.029743195,0.40985966,0.8697213
195572223314989,7.373558,-0.13650465,0.38830948,0.7519071
195572231386335,7.381630,-0.30954838,0.3401146,0.71892965
195572239436066,7.389679,-0.49190617,0.33231735,0.5077951
195572247452412,7.397696,-0.641294,0.3867216,0.26555455
195572255497220,7.405740,-0.90020657,0.43720245,-0.06241548
195572263482066,7.413725,-1.0311704,0.39589405,-0.24467158
195572271528105,7.421771,-1.053554,0.3563671,-0.43498242
195572279531297,7.429774,-1.0325356,0.39321613,-0.5117845
195572287560643,7.437804,-0.94238424,0.4587345,-0.6371451
195572295572335,7.445816,-0.80762196,0.44778156,-0.7267827
195572303612374,7.453856,-0.66075397,0.40198517,-0.6552865
195572311620989,7.461864,-0.48746824,0.30929947,-0.64004153
195572319639143,7.469882,-0.20880032,0.18645763,-0.44910324
195572327624258,7.477867,0.12499523,0.048155785,-0.29971302
195572335671412,7.485915,0.39786768,0.06612396,-0.20128286
195572343656412,7.493900,0.49157858,0.06227112,-0.15266383
195572351693027,7.501936,0.4499998,0.021771431,-0.22284341
195572359699143,7.509942,0.21687698,-0.09039593,-0.2533114
195572367729258,7.517972,0.056241035,-0.12859344,-0.2219677
195572375741950,7.525985,0.16753674,-0.1492672,-0.11316204
195572383741335,7.533985,0.35850096,-0.10411644,0.010492325
195572391806681,7.542050,0.5173693,-0.07729149,0.2063489
195572399833066,7.550076,0.61806774,-0.07401943,0.26790988
195572407852219,7.558095,0.6464319,-0.09937382,0.3015989
195572415898104,7.566141,0.61123943,-0.23905087,0.31401122
195572423883373,7.574127,0.5578294,-0.27512836,0.17599142
195572431930142,7.582173,0.47779608,-0.24675465,0.044677258
195572439935065,7.590178,0.3096056,-0.22128582,-0.068161964
195572447966373,7.598210,0.19881535,-0.27950954,0.07476878
195572455980527,7.606224,0.20497704,-0.3492012,0.30446136
195572463978219,7.614221,0.24925995,-0.34426117,0.40304816
195572471988411,7.622232,0.2629919,-0.31068325,0.46707022
195572480007181,7.630250,0.23927021,-0.3635006,0.5011574
195572487992911,7.638236,0.27783346,-0.39951992,0.5110173
195572496037104,7.646280,0.21906662,-0.431386,0.41922426
195572504021873,7.654265,0.032444,-0.3710451,0.11928809
195572512074681,7.662318,-0.26471853,-0.40570068,-0.12203395
195572520080565,7.670324,-0.3900323,-0.48281002,-0.27251267
195572528110757,7.678354,-0.46656704,-0.5272255,-0.3920915
195572536123527,7.686367,-0.3848548,-0.55510044,-0.4487567
195572544121527,7.694365,-0.29633808,-0.47963047,-0.49217176
195572552129488,7.702373,-0.06667709,-0.51876736,-0.34787512
195572560180873,7.710424,0.046747208,-0.5508213,-0.2562667
195572568218603,7.718462,0.025420189,-0.50213146,-0.34524035
195572576263988,7.726507,-0.23467064,-0.28987312,-0.6320653
195572584249757,7.734493,-0.59889627,-0.09403515,-0.89552844
195572592295219,7.742538,-0.8606672,-0.11477852,-0.9159231
195572600300334,7.750544,-1.0256689,-0.104691505,-0.79829735
195572608330949,7.758574,-0.8899152,-0.003066063,-0.6691481
195572616344949,7.766588,-0.43970275,0.11374855,-0.4252584
195572624342988,7.774586,-0.03464079,0.20520401,-0.2649771
195572632351795,7.782595,0.2715912,0.239357,-0.129951
195572640368257,7.790611,0.44589615,0.21354675,-0.17300034
195572648375795,7.798619,0.40570307,0.24903107,-0.33506203
195572656446680,7.806690,0.24257088,0.3025217,-0.41536164
195572664430065,7.814673,-0.011586666,0.2567892,-0.349522
195572672476026,7.822719,-0.10842371,0.19612503,-0.25832438
195572680480488,7.830724,-0.06777048,0.23815918,-0.23989785
195572688527257,7.838770,-0.09547472,0.36596298,-0.28611982
195572696540488,7.846784,-0.15947294,0.449975,-0.2159419
195572704536949,7.854780,-0.20282316,0.36133766,-0.040111184
195572712560064,7.862803,-0.31649423,0.30105114,0.014687419
195572720625449,7.870869,-0.4267032,0.29559803,0.1092329
195572728629718,7.878873,-0.39634752,0.3432169,0.100871205
195572736673180,7.886916,-0.40029645,0.4459982,-0.070459485
195572744656872,7.894900,-0.4757383,0.49801636,-0.23173213
195572752702026,7.902945,-0.60093,0.5158644,-0.43499476
195572760736257,7.910979,-0.57952213,0.5381489,-0.32301438
195572768765026,7.919008,-0.41852117,0.60452557,-0.14514768
195572776779218,7.927022,-0.24792027,0.66276646,0.14053309
195572784776141,7.935019,-0.07917285,0.7316294,0.21900284
195572792785718,7.943029,-0.03102231,0.7888403,0.07807338
195572800804256,7.951047,-0.2636044,0.8449621,-0.1436007
195572808807987,7.959051,-0.58220243,0.8160095,-0.3294739
195572816851449,7.967095,-0.90617275,0.7190399,-0.4791484
195572824835487,7.975079,-1.0642645,0.53801346,-0.41479808
195572832882295,7.983125,-0.94745564,0.38366032,-0.29552054
195572840887218,7.991130,-0.6799927,0.3595047,-0.3658219
195572848944872,7.999188,-0.381176,0.45814037,-0.63961864
195572857021833,8.007265,-0.381922,0.42240906,-0.9616251
195572865020448,8.015264,-0.5912342,0.18453503,-1.0051006
195572873029987,8.023273,-0.772037,-0.07564449,-0.88709533
195572881047333,8.031291,-0.6718676,-0.22335052,-0.75282824
195572889106641,8.039350,-0.24396801,-0.21652603,-0.6575906
195572897193141,8.047436,0.006296158,-0.038565636,-0.88201284
195572905177410,8.055421,-0.11146045,0.052923203,-1.03005
195572913222833,8.063466,-0.44019866,0.007320404,-1.0386353
195572921239948,8.071483,-0.80230093,-0.08200836,-0.96668816
195572929274641,8.079518,-0.9650731,-0.07538605,-0.968608
195572937287448,8.087531,-0.8748877,0.034856796,-0.7904832
195572945284294,8.095527,-0.77970076,0.13430595,-0.6389476
195572953323256,8.103566,-0.7025256,0.20809364,-0.59124213
195572961398063,8.111641,-0.7313731,0.28226662,-0.63448244
195572969455717,8.119699,-0.79237723,0.4239502,-0.6939608
195572977498679,8.127742,-0.8462877,0.52266693,-0.6665446
195572985506448,8.135750,-0.93199444,0.59549236,-0.5635367
195572993632294,8.143875,-1.0954926,0.66050625,-0.47811082
195573001715486,8.151959,-1.2411532,0.6454334,-0.38354278
195573009799640,8.160043,-1.117588,0.6014471,-0.18272269
195573017821563,8.168065,-0.8489866,0.6673479,-0.07473317
195573025875948,8.176119,-0.52338505,0.78547955,-0.05886224
195573033946602,8.184190,-0.25849843,0.80037785,0.020895183
195573042028794,8.192272,0.045853376,0.7640619,0.17398411
195573050057563,8.200301,0.29247355,0.6954136,0.31123686
195573058091909,8.208335,0.5974858,0.639513,0.4757555
195573066077294,8.216320,0.9521394,0.636775,0.88780075
195573074112871,8.224356,1.3990123,0.64100933,1.2338576
195573082170909,8.232414,1.7398603,0.57292366,1.4866755
195573090200986,8.240444,1.9721355,0.49049377,1.6811393
195573098200371,8.248444,1.9220169,0.5547333,1.5112019
195573106194294,8.256437,1.4510696,0.5438919,1.2558069
195573114201755,8.264445,0.9179363,0.40564346,1.129396
195573122217409,8.272461,0.44964075,0.24002647,1.0921955
195573130250755,8.280494,0.2838397,0.08369064,1.1432679
195573138292794,8.288536,0.42328906,-0.05059433,1.225124
195573146276717,8.296520,0.6240668,-0.15577316,1.1968176
195573154322832,8.304566,0.7961278,-0.37828827,1.1164026
195573162326986,8.312570,0.76622605,-0.63490963,1.1052625
195573170357178,8.320600,0.637336,-0.8657236,1.2456307
195573178369140,8.328612,0.6085124,-0.9870949,1.2795477
195573186379563,8.336623,0.57620835,-1.0744381,1.136251
195573194395293,8.344638,0.2796905,-1.1372356,0.8681687
195573202412486,8.352656,-0.07209182,-1.2344527,0.5414889
195573210431639,8.360675,-0.29891062,-1.3917389,0.28399694
195573218475216,8.368718,-0.47145343,-1.4912467,-0.061093062
195573226459832,8.376703,-0.6105256,-1.4483471,-0.28843552
195573234526562,8.384770,-0.7218647,-1.4156742,-0.37056583
195573242593716,8.392837,-0.62803555,-1.4927745,-0.20716858
195573250664062,8.400907,-0.29119468,-1.5429564,0.038308978
195573258647101,8.408890,0.0037436485,-1.4512782,0.11646044
195573266643985,8.416887,0.08568764,-1.2326756,0.09763795
195573274653370,8.424897,-0.044561863,-1.0790825,0.019060373
195573282825216,8.433068,-0.4712577,-1.0094576,-0.1385361
195573290858370,8.441102,-0.7370875,-1.0491924,-0.2505334
195573298870485,8.449114,-0.7311542,-1.0395546,-0.29381722
195573306857639,8.457101,-0.58059216,-1.0008669,-0.15133157
195573314882831,8.465126,-0.070638895,-0.9457979,0.28063834
195573322888447,8.473132,0.6412754,-0.90807724,0.6861843
195573330919985,8.481163,1.184253,-0.89358807,0.96089584
195573338922754,8.489166,1.4693444,-0.93434715,1.0555159
195573346902947,8.497146,1.6391854,-0.9806776,0.9536784
195573354880139,8.505123,1.6764605,-0.968771,0.73742646
195573362910562,8.513154,1.5322895,-0.9149656,0.5165122
195573370932100,8.521175,1.3496006,-0.8031683,0.33551997
195573378965139,8.529208,1.0906594,-0.63494205,0.25330377
195573386934716,8.537178,0.7721138,-0.3814125,0.35701692
195573395001139,8.545244,0.48711848,-0.11418438,0.56844085
195573403007023,8.553250,0.3969288,0.042916298,0.8686804
195573411038216,8.561281,0.46208167,0.15018749,1.3259403
195573419041331,8.569285,0.5482714,0.27490997,1.7496712
195573427021369,8.577265,0.6111922,0.31815815,2.0095358
195573435000216,8.585243,0.61733556,0.33236027,2.125167
195573443030446,8.593274,0.56152177,0.36068535,2.0039873
195573451091408,8.601335,0.41418123,0.33386993,1.7411313
195573459141908,8.609385,0.24799085,0.27875328,1.445503
195573467149831,8.617393,0.040977955,0.26028633,1.0269244
195573475181369,8.625425,-0.044671535,0.30990124,0.7121791
195573483185561,8.633429,-0.013463974,0.2777195,0.5534093
195573491217600,8.641461,0.124522924,0.2660942,0.51507986
195573499238523,8.649482,0.37120652,0.26097393,0.55562896
195573507256792,8.657500,0.67387676,0.26142502,0.6696473
195573515247408,8.665491,0.9020541,0.29080868,0.60397893
195573523271831,8.673515,0.9880805,0.30517292,0.39286798
195573531368061,8.681611,0.9113226,0.27061844,0.1341083
195573539456177,8.689699,0.7550564,0.1610899,-0.031676114
195573547426254,8.697669,0.8096652,0.036278725,-0.05796528
195573555444484,8.705688,1.0411296,0.027130127,-3.732443E-4
195573563456946,8.713700,1.4671698,0.055336952,0.34876788
195573571568946,8.721812,1.7614532,0.20374393,0.7253636
195573579618407,8.729862,1.5173011,0.34521103,0.7602254
195573587679984,8.737923,0.7612653,0.3933859,0.6507312
195573595739753,8.745983,0.101480246,0.37930202,0.50375617
195573603794446,8.754038,-0.43842602,0.37842083,0.41983402
195573611828638,8.762072,-0.53002596,0.3234024,0.66608226
195573619861253,8.770104,-0.32510757,0.26979256,0.8995408
195573627830830,8.778074,-0.10458565,0.3159027,1.1096408
195573635837599,8.786081,0.21430898,0.29335308,1.2569244
195573643843369,8.794087,0.31899452,0.2637434,1.0888503
195573651955099,8.802198,0.26481986,0.12614918,0.7986176
195573659990715,8.810234,0.061198235,0.09886837,0.4670012
195573667971868,8.818215,-0.16755605,0.10042286,0.10744715
195573675958599,8.826202,-0.34988737,0.06668186,0.14320457
195573683983945,8.834227,-0.40744162,0.01961422,0.2668017
195573691990330,8.842234,-0.2330699,0.029850006,0.28738022
195573700040984,8.850284,0.08467078,0.014472961,0.28964198
195573708011599,8.858255,0.41724682,-0.0446043,0.19442892
195573716030022,8.866273,0.8004434,-0.06820297,0.10167694
195573724060868,8.874304,1.0877762,-0.095440865,0.090215325
195573732092061,8.882335,1.3024406,-0.150774,0.26882863
195573740095484,8.890339,1.6197586,-0.19116592,0.53576756
195573748076599,8.898320,2.0454772,-0.17883587,0.9946811
195573756115484,8.906359,2.3328614,-0.12209797,1.3829824
195573764140330,8.914384,2.547165,-0.10051727,1.6258076
195573772146445,8.922390,2.4732184,-0.12235546,1.5539551
195573780178445,8.930422,2.2992463,-0.19135094,1.3303725
195573788147945,8.938391,2.1148877,-0.2329483,1.1782566
195573796162791,8.946406,2.0865526,-0.2305193,0.9675298
195573804169099,8.954412,2.013115,-0.15054321,0.78926134
195573812200176,8.962443,1.738205,-0.028560638,0.49722767
195573820214714,8.970458,1.287066,0.0774498,0.18202972
195573828196406,8.978440,0.80841756,0.12080574,-0.026232481
195573836193099,8.986436,0.42579317,0.21702576,-0.24111903
195573844216714,8.994460,0.3177657,0.40756798,-0.33544075
195573852236675,9.002480,0.16090298,0.7402344,-0.4301321
195573860269906,9.010513,-0.13764906,0.9682236,-0.46075523
195573868239483,9.018483,-0.44263363,1.1519203,-0.55892247
195573876308983,9.026552,-0.65186715,1.3441792,-0.654184
195573884318714,9.034562,-0.9996991,1.5651407,-0.82828826
195573892350560,9.042594,-1.3166742,1.5921946,-0.747261
195573900352137,9.050595,-1.1544487,1.5748692,-0.34832537
195573908338098,9.058581,-0.5936463,1.6897821,-0.07450724
195573916356560,9.066600,0.24551582,1.860651,0.2409426
195573924379675,9.074623,0.9084766,1.942646,0.6173508
195573932410329,9.082654,1.2971969,1.7514744,1.1155034
195573940432291,9.090675,1.5111618,1.4685783,1.5959599
195573948402829,9.098646,1.7817192,1.1505527,2.2080145
195573956398175,9.106641,2.0797734,0.9444895,2.6376576
195573964403637,9.114647,2.1556525,0.82645035,2.6540036
195573972451983,9.122695,1.9674888,0.635829,2.350113
195573980460252,9.130703,1.407762,0.29024315,1.726019
195573988471829,9.138715,0.69124174,-0.09257412,1.0876846
195573996547521,9.146791,0.060800076,-0.36576748,0.43661666
195574004572906,9.154816,-0.4537642,-0.49617767,-0.039608836
195574012607290,9.162850,-0.9922972,-0.68074703,-0.5169418
195574020629483,9.170873,-1.339638,-0.86326456,-0.9446736
195574028599213,9.178842,-1.619411,-0.9961915,-1.1723381
195574036603944,9.186847,-1.9298434,-1.1262145,-1.2865987
195574044610290,9.194853,-2.2881663,-1.2277255,-1.2810432
195574052642329,9.202886,-2.415864,-1.3453131,-1.1876345
195574060633098,9.210876,-2.3069417,-1.4843931,-0.93261784
195574068614982,9.218858,-2.079794,-1.6681981,-0.74077916
195574076621790,9.226865,-1.7325516,-1.8713093,-0.68572277
195574084644367,9.234888,-1.2814164,-2.0602646,-0.57910836
195574092634251,9.242877,-0.9619477,-2.2128057,-0.50054884
195574100652675,9.250896,-0.65079856,-2.4085498,-0.40931702
195574108622944,9.258866,-0.5276058,-2.5671115,-0.25587356
195574116664636,9.266908,-0.5175698,-2.660284,-0.2235229
195574124682444,9.274926,-0.5606425,-2.7530384,-0.1556561
195574132723636,9.282967,-0.712703,-2.859429,-0.13100505
195574140718174,9.290961,-0.8124676,-2.9141722,0.011371255
195574148699636,9.298943,-0.82428074,-2.8934922,-0.045493603
195574156709867,9.306953,-0.9331746,-2.9216251,-0.23896158
195574164738213,9.314981,-1.1393521,-3.0128355,-0.30331886
195574172738982,9.322982,-1.2847164,-3.069005,-0.33912122
195574180759559,9.331003,-1.3080628,-3.1276937,-0.38583243
195574188728866,9.338972,-1.2333992,-3.1409554,-0.29993248
195574196725097,9.346968,-1.1126866,-3.1089659,-0.32666302
195574204729828,9.354973,-1.020031,-3.1300607,-0.3600701
195574212762136,9.363005,-0.8511298,-3.1905527,-0.31412935
195574220752405,9.370996,-0.62772894,-3.2423463,-0.2804618
195574228732751,9.378976,-0.42280817,-3.3028235,-0.14672232
195574236734982,9.386978,-0.27257204,-3.3706956,-0.058968306
195574244758751,9.395002,-0.13710833,-3.3451886,-0.11190224
195574252770212,9.403013,-0.10257721,-3.2383614,-0.17577398
195574260837328,9.411081,-0.30981255,-3.1357083,-0.40477002
195574268858597,9.419102,-0.700835,-3.0862908,-0.42167675
195574276934251,9.427177,-0.8262074,-3.0010896,-0.3942784
195574284974328,9.435218,-0.7788112,-2.8382983,-0.33499885
195574293086674,9.443330,-0.76572824,-2.6450095,-0.42194998
195574301094789,9.451338,-0.77092314,-2.4557204,-0.4793725
195574309075828,9.459319,-0.8156748,-2.2669115,-0.58881116
195574317054981,9.467298,-0.7758446,-1.9732189,-0.70610774
195574325104943,9.475348,-0.4604094,-1.6197715,-0.86772245
195574333132481,9.483376,-0.12577534,-1.2373767,-1.0414064
195574341184366,9.491428,0.15109253,-0.862803,-1.1057439
195574349219097,9.499462,0.29398632,-0.24233723,-1.1092337
195574357231366,9.507475,0.276824,0.537776,-1.2364113
195574365316673,9.515560,0.16082382,1.1871958,-1.3360707
195574373384827,9.523628,-0.0063972473,1.7022629,-1.5222088
195574381456789,9.531700,-0.09921265,2.1978655,-1.5463763
195574389502443,9.539746,-0.034016848,2.8185968,-1.524349
195574397524096,9.547767,-0.08138704,3.4836226,-1.6366148
195574405547827,9.555791,-0.4682536,4.20562,-1.9384705
195574413585750,9.563829,-0.963922,4.8955545,-2.298512
195574421631981,9.571875,-1.4615486,5.811967,-2.615277
195574429601289,9.579844,-2.170272,6.675968,-2.8622398
195574437670327,9.587914,-2.7728238,7.382656,-2.8914542
195574445673712,9.595917,-3.1399007,7.957922,-2.8644943
195574453705865,9.603949,-3.4224072,8.284132,-2.7436504
195574461695519,9.611939,-3.2141397,8.54364,-2.4341044
195574469685712,9.619929,-2.730435,8.841471,-2.069235
195574477793058,9.628036,-1.9880472,8.945885,-1.4399322
195574485897288,9.636140,-0.8491614,8.669503,-0.3035288
195574494010904,9.644254,0.13861251,8.12855,1.0589126
195574502076250,9.652319,0.854444,7.4587317,2.0323198
195574510075442,9.660319,1.2654657,6.900531,2.7631564
195574518070673,9.668314,1.8508761,6.2299185,3.5283487
195574526077288,9.676320,2.4718933,5.592495,4.0338326
195574534108827,9.684352,2.674167,4.721157,3.5753183
195574542099442,9.692343,2.6289334,3.9345407,2.569705
195574550080442,9.700324,2.4302602,3.0510197,1.4002538
195574558058365,9.708302,2.4868908,2.307129,0.5062337
195574566083327,9.716327,2.7350874,1.7223034,0.123652935
195574574075673,9.724319,2.684874,1.2001638,0.21111262
195574582105480,9.732349,2.137556,0.5858774,0.544296
195574590075326,9.740319,1.3107586,0.08769989,0.96793324
195574598133096,9.748376,0.42787886,-0.3953333,1.128292
195574606220288,9.756463,-0.26689625,-0.8339987,1.1673775
195574614256134,9.764499,-1.1143098,-1.3704996,1.0624188
195574622245634,9.772489,-1.699889,-1.85924,0.92546207
195574630228634,9.780472,-2.0482786,-2.2509313,0.6847159
195574638232288,9.788475,-2.0899649,-2.5683002,0.37579817
195574646256365,9.796500,-2.0271177,-2.8551269,0.09709668
195574654265326,9.804509,-1.8737824,-3.130177,-0.07161039
195574662286057,9.812529,-1.8205385,-3.3244238,-0.2142565
195574670255634,9.820499,-1.7686517,-3.5106568,-0.19115764
195574678251557,9.828495,-1.6456587,-3.7417479,0.020488083
195574686260134,9.836503,-1.5147629,-3.8985982,0.18354952
195574694343518,9.844587,-1.4929566,-4.048353,0.2568696
195574702353557,9.852597,-1.577929,-4.2112246,0.2330097
195574710414403,9.860658,-1.7018483,-4.240424,0.24507836
195574718474095,9.868717,-1.8402189,-4.1936474,0.16454583
195574726577711,9.876821,-2.0068278,-4.1093903,-0.08031011
195574734666018,9.884909,-2.1890078,-4.070701,-0.34222323
195574742766826,9.893010,-2.338927,-3.979361,-0.5526035
195574750816672,9.901060,-2.2878468,-3.8660007,-0.5448475
195574758875326,9.909119,-2.1611428,-3.6728544,-0.53004384
195574766879864,9.917123,-2.1519778,-3.5415182,-0.4403908
195574774918095,9.925161,-2.1418664,-3.3422904,-0.5007149
195574782922018,9.933165,-2.1965785,-3.1546893,-0.8860984
195574790903710,9.941147,-2.3102283,-2.8178377,-1.3311814
195574798893556,9.949137,-2.4137783,-2.475264,-1.6602391
195574806918787,9.957162,-2.4985359,-2.028541,-2.0285063
195574814939364,9.965183,-2.461952,-1.4560485,-2.2932599
195574822961249,9.973204,-2.3898225,-0.80826855,-2.383336
195574830931326,9.981175,-2.350077,-0.33157825,-2.2750762
195574838984864,9.989228,-2.3035622,0.110159874,-2.0077667
195574847043402,9.997287,-2.051453,0.44266033,-1.6647017
195574855112672,10.005356,-1.6578321,0.8676338,-1.4977533
195574863114672,10.013358,-1.493569,1.2070456,-1.4441992
195574871095864,10.021339,-1.4602436,1.5685472,-1.3539424
195574879089672,10.029333,-1.4623543,1.8740578,-1.2836858
195574887119133,10.037362,-1.6168659,2.2814903,-1.402229
195574895146864,10.045390,-1.9135913,2.6238441,-1.5962644
195574903168056,10.053411,-2.4313726,3.0574121,-1.9118001
195574911137518,10.061381,-2.9236965,3.432167,-2.289573
195574919132479,10.069376,-3.3268466,3.7827597,-2.5117598
195574927137248,10.077380,-3.5989037,4.0171165,-2.4768581
195574935168902,10.085412,-3.3600433,4.2362194,-2.1064608
195574943160171,10.093403,-2.6906707,4.4113054,-1.5527421
195574951147056,10.101390,-1.7567139,4.557251,-0.96791565
195574959155440,10.109399,-0.9239578,4.671797,-0.383117
195574967180017,10.117423,-1.5568733E-4,4.7005453,0.40926528
195574975170017,10.125413,0.6081414,4.672722,1.0267701
195574983191325,10.133435,0.9004488,4.537266,1.4294857
195574991163171,10.141406,1.0572107,4.3727026,1.7025594
195574999158017,10.149401,0.9477029,4.1712885,1.9236853
195575007163094,10.157406,0.8053889,3.8423462,2.1654105
195575015195094,10.165438,0.66116905,3.4528437,2.3949423
195575023186440,10.173430,0.7824509,2.9081135,2.284566
195575031169248,10.181412,0.94040513,2.600318,2.1427462
195575039149748,10.189393,1.1191087,2.1005516,2.2575855
195575047174671,10.197418,1.1190948,1.7095575,2.415126
195575055163748,10.205407,1.1116529,1.1322327,2.477432
195575063196055,10.213439,0.8520298,0.7326727,2.3675184
195575071166709,10.221410,0.6606989,0.45231056,2.1122777
195575079171940,10.229415,0.46938276,0.14575577,1.7882776
195575087177555,10.237421,0.21992874,-0.20822906,1.3996553
195575095208632,10.245452,-0.030412674,-0.5268526,1.1667216
195575103212478,10.253456,-0.08553219,-0.8160043,1.074019
195575111193978,10.261437,0.019770145,-1.1193514,1.0873946
195575119221363,10.269465,0.17758703,-1.3769159,1.1788813
195575127245940,10.277489,0.24175024,-1.6461821,1.0596154
195575135244940,10.285488,0.09485006,-1.9212179,0.8788465
195575143292017,10.293535,-0.10062933,-2.3659616,0.5046257
195575151263978,10.301507,-0.21112585,-2.748118,0.24246639
195575159258786,10.309502,-0.23042488,-3.05872,0.13587004
195575167264209,10.317507,-0.07556629,-3.2852535,0.21647274
195575175295440,10.325539,0.076105595,-3.456233,0.29048285
195575183292209,10.333535,-0.030213356,-3.5831604,0.18178663
195575191314247,10.341557,-0.4436245,-3.6606364,-0.06263882
195575199298016,10.349541,-0.9731808,-3.7158318,-0.35354808
195575207321786,10.357565,-1.5218799,-3.6989527,-0.5936033
195575215380132,10.365623,-2.0299227,-3.529697,-0.87931406
195575223402209,10.373645,-2.6886983,-3.4618344,-1.1829884
195575231372286,10.381615,-3.0752559,-3.3285685,-1.2520992
195575239366824,10.389610,-3.0439115,-3.0448198,-1.0874822
195575247372478,10.397616,-2.8600376,-2.674333,-1.0063664
195575255403132,10.405646,-2.7427,-2.4237127,-0.9686817
195575263463901,10.413707,-2.5650382,-2.166051,-0.7363535
195575271501285,10.421744,-2.2401404,-1.7533426,-0.51841366
195575279478555,10.429722,-1.9236991,-1.3652391,-0.42529052
195575287503401,10.437747,-1.5681138,-1.0759034,-0.4010048
195575295525170,10.445768,-1.293742,-0.6802721,-0.545257
195575303556170,10.453799,-1.2525585,-0.35372066,-0.8332511
195575311526093,10.461769,-1.2289219,-0.02448368,-0.8680521
195575319533708,10.469777,-1.139827,0.29830742,-0.83880764
195575327538554,10.477782,-1.0289204,0.6412945,-0.83804953
195575335570401,10.485814,-0.68816495,0.992589,-0.8893387
195575343570708,10.493814,-0.06695676,1.2706909,-0.9719699
195575351555439,10.501799,0.47745872,1.4340553,-1.070817
195575359532400,10.509776,1.0106516,1.5624247,-1.0280279
195575367550631,10.517794,1.5323849,1.7430286,-0.80246264
195575375552939,10.525796,1.7103715,1.8594818,-0.5191852
195575383573977,10.533817,1.5833964,2.0511808,-0.4095736
195575391544131,10.541787,1.2572699,2.3609715,-0.39509356
195575399533593,10.549777,0.70788765,2.7744265,-0.6787167
195575407539054,10.557782,-0.0071616173,3.127324,-1.0021245
195575415570477,10.565814,-0.92721486,3.46902,-1.3088264
195575423560246,10.573803,-1.5279086,3.7311993,-1.3187907
195575431539554,10.581783,-1.7981466,3.891306,-0.98506236
195575439515362,10.589759,-1.869116,4.063716,-0.61787564
195575447534669,10.597778,-1.858276,4.3000536,-0.27223757
195575455569477,10.605813,-1.6079142,4.430299,0.087928176
195575463590823,10.613834,-1.011303,4.4917965,0.31707156
195575471561400,10.621805,-0.24791169,4.4586086,0.47374684
195575479555477,10.629799,0.73260427,4.351302,0.75470686
195575487560131,10.637803,1.2551751,4.15691,1.1982281
195575495586900,10.645830,1.3228164,3.8610106,1.6043983
195575503574631,10.653818,1.2017088,3.4007483,1.9140773
195575511553861,10.661797,0.986871,2.9031038,1.6880785
195575519533169,10.669776,0.88122797,2.4064913,1.1617818
195575527557977,10.677801,0.9106517,1.9804716,0.7496677
195575535556707,10.685800,1.0955176,1.4335346,0.3481214
195575543588592,10.693832,1.2118278,0.9233408,0.0131011605
195575551558631,10.701802,1.1917214,0.45532608,-0.18742865
195575559563707,10.709807,0.96820784,0.017625809,-0.26488256
195575567570207,10.717813,0.5463643,-0.41872025,-0.47028792
195575575616284,10.725859,0.12943363,-0.7709284,-0.7991873
195575583608784,10.733852,-0.36956596,-0.9943719,-1.0315181
195575591590861,10.741834,-0.88739896,-1.2233562,-0.9753899
195575599575592,10.749819,-1.4247606,-1.4493523,-0.6941183
195575607607092,10.757850,-1.6717358,-1.6645327,-0.3312325
195575615607361,10.765851,-1.7225709,-1.7954893,0.067429245
195575623627861,10.773871,-1.719451,-1.9354196,0.38445204
195575631597361,10.781841,-1.6511774,-2.0770621,0.43791306
195575639591899,10.789835,-1.6026926,-2.2873569,0.26739419
195575647596822,10.797840,-1.5199776,-2.4686956,-9.3728304E-4
195575655626092,10.805869,-1.4198792,-2.6903896,-0.31270695
195575663612515,10.813856,-1.3927681,-2.8593583,-0.49294165
195575671590438,10.821834,-1.3998592,-3.0306072,-0.69016343
195575679566861,10.829810,-1.3330805,-3.1132698,-0.83992934
195575687584245,10.837827,-1.3090205,-3.14107,-0.98411506
195575695601938,10.845845,-1.3924077,-3.1234145,-1.1981323
195575703632091,10.853875,-1.4012978,-3.1058068,-1.251982
195575711683091,10.861926,-1.3460999,-3.047122,-1.3353624
195575719730168,10.869973,-1.3516254,-2.9185114,-1.4361923
195575727790130,10.878033,-1.3868644,-2.8444304,-1.4490943
195575735819014,10.886062,-1.1483288,-2.7551255,-1.4347748
195575743808476,10.894052,-0.934716,-2.5885725,-1.3937203
195575751791553,10.902035,-0.9313805,-2.3358274,-1.3042212
195575759848207,10.910091,-1.0589592,-1.9707603,-1.5392195
195575767947207,10.918190,-1.1787379,-1.5915093,-1.8181796
195575775987937,10.926231,-1.3541605,-1.2214346,-2.110711
195575784029360,10.934273,-1.5400689,-0.8196268,-2.3625624
195575791998207,10.942241,-1.589891,-0.3993826,-2.2417157
195575799999130,10.950242,-1.4534757,-0.07312107,-1.7966101
195575808000206,10.958243,-1.1797652,0.12146759,-1.2420537
195575816026553,10.966270,-0.5689733,0.33452797,-0.6395961
195575824036706,10.974280,0.22379112,0.58013344,-0.09337354
195575832016706,10.982260,0.8656409,0.7492523,0.19406825
195575840011976,10.990255,1.3232794,0.92170525,0.27036065
195575848030322,10.998273,1.5043862,1.0347128,0.12620354
195575856026476,11.006270,1.566489,1.0968075,-0.04027617
195575864061245,11.014304,1.5344541,1.1448822,-0.20626551
195575872030822,11.022274,1.388906,1.2045279,-0.22051233
195575880034898,11.030278,1.1907578,1.3531427,-0.20210224
195575888036706,11.038280,0.8780801,1.5954313,-0.21582389
195575896062668,11.046306,0.49845147,1.7496243,-0.197187
195575904075706,11.054319,0.1048913,1.8980188,-0.21530479
195575912137975,11.062381,-0.30035377,2.1158628,-0.41550624
195575920276360,11.070520,-0.72877645,2.3966684,-0.71058106
195575928314821,11.078558,-1.1002297,2.7121248,-1.1164991
195575936322475,11.086566,-1.6896005,2.9442263,-1.5203166
195575944347360,11.094591,-2.2069228,3.0164118,-1.6272006
195575952318898,11.102562,-2.3721275,2.9801178,-1.4317194
195575960314667,11.110558,-2.1997228,2.9548178,-1.0764341
195575968318360,11.118562,-1.5192828,3.0111885,-0.5345006
195575976344360,11.126588,-0.4605608,3.0191011,-0.108619094
195575984331590,11.134575,0.58396244,2.8754492,0.15288138
195575992311937,11.142555,1.1352403,2.6874313,0.334576
195576000317321,11.150560,1.5507622,2.4680681,0.5059686
195576008337475,11.158581,1.8186293,2.2185183,0.69931376
195576016327283,11.166570,1.8232894,1.9666481,0.81900203
195576024343090,11.174586,1.6193047,1.7161446,0.9216075
195576032312629,11.182556,1.0664291,1.5132465,0.878497
195576040317513,11.190561,0.52074623,1.2409391,0.8328724
195576048321436,11.198565,0.28467607,1.1082506,0.62420535
195576056347629,11.206591,0.2826414,0.950758,0.31806087
195576064347552,11.214591,0.27755976,0.75182724,0.05233103
195576072326398,11.222570,0.23740578,0.5109482,-0.08610767
195576080303282,11.230546,0.18583584,0.35989285,-0.06591421
195576088328013,11.238571,-0.034500122,0.20496655,-0.006777823
195576096329321,11.246572,-0.42702794,0.020187378,0.073212504
195576104368090,11.254611,-0.83935285,-0.11995697,0.11050767
195576112339513,11.262583,-1.2173448,-0.24617672,0.19153261
195576120353167,11.270596,-1.5168445,-0.34827042,0.2970236
195576128355513,11.278599,-1.6319513,-0.4890976,0.26537734
195576136386821,11.286630,-1.5625176,-0.6310663,0.240776
195576144386744,11.294630,-1.3137214,-0.84376144,0.18143266
195576152365859,11.302609,-1.0075297,-1.0511012,-0.058781028
195576160341782,11.310585,-0.7456629,-1.177136,-0.43114626
195576168362897,11.318606,-0.60448647,-1.2230186,-0.8402599
195576176384320,11.326627,-0.70267296,-1.1900644,-1.2428995
195576184425051,11.334668,-1.1422744,-1.1167207,-1.4645343
195576192395397,11.342639,-1.6794019,-0.98107433,-1.5577009
195576200410936,11.350654,-1.9969835,-0.8803501,-1.3151664
195576208411320,11.358654,-2.136362,-0.76181984,-0.91416186
195576216439705,11.366683,-2.0194707,-0.608305,-0.32825023
195576224440974,11.374684,-1.6864662,-0.45007038,0.16726059
195576232422513,11.382666,-1.3275034,-0.30965805,0.31762338
195576240429012,11.390672,-0.95411086,-0.3191471,0.4194275
195576248447012,11.398690,-0.7572789,-0.35921192,0.37350243
195576256466089,11.406709,-0.80713844,-0.33245373,0.14854419
195576264511628,11.414755,-0.9653332,-0.34646606,-0.046263695
195576272482128,11.422725,-1.0878193,-0.3926754,0.03029579
195576280496051,11.430739,-0.88136744,-0.48593235,0.3307783
195576288498205,11.438741,-0.5020869,-0.51587486,0.5716487
195576296522628,11.446766,0.075303555,-0.54025745,0.7711126
195576304572205,11.454815,0.61729956,-0.5334101,0.8885071
195576312562897,11.462806,0.99151707,-0.5632124,0.8594687
195576320537743,11.470781,1.0232778,-0.4982109,0.6664739
195576328558666,11.478802,0.81248426,-0.38983345,0.31719142
195576336584781,11.486828,0.35319042,-0.35734653,-0.024660408
195576344615897,11.494859,-0.18469715,-0.3457117,-0.15981239
195576352585974,11.502829,-0.49402642,-0.2703371,-0.06641513
195576360598397,11.510842,-0.44809246,-0.1916151,0.16600978
195576368600127,11.518843,-0.035654545,-0.17375183,0.52958566
195576376626320,11.526869,0.4950242,-0.12367344,0.84898764
195576384637320,11.534880,0.7364478,-0.06889534,0.8967659
195576392619820,11.542863,0.6275859,0.01872158,0.8674472
195576400598243,11.550841,0.40681934,0.037867546,0.80933744
195576408615281,11.558858,0.17887545,0.07253456,0.67309165
195576416665204,11.566908,-0.13465786,0.08390331,0.5059931
195576424747896,11.574991,-0.2881775,0.13961506,0.43627107
195576432719358,11.582963,0.04118681,0.1285162,0.49727583
195576440736781,11.590980,0.4448185,0.1232748,0.559229
195576448736935,11.598980,0.66841316,0.09426212,0.6194755
195576456781550,11.607025,0.96187925,0.11521053,0.6016493
195576464791935,11.615035,1.1723943,0.13912106,0.6479454
195576472771012,11.623014,1.0761862,0.17497253,0.7101573
195576480758935,11.631002,0.5836954,0.21374512,0.6376947
195576488779781,11.639023,-0.118805885,0.26644897,0.4833014
195576496776127,11.647019,-0.7440343,0.37023258,0.23745215
195576504803050,11.655046,-1.1766157,0.4135189,-0.011071205
195576512772088,11.663015,-1.5191143,0.45955944,-0.37741143
195576520774550,11.671018,-1.703721,0.60008144,-0.8877839
195576528778627,11.679022,-1.8186562,0.6732483,-1.231312
195576536803511,11.687047,-1.9685214,0.6501732,-1.3788763
195576544799473,11.695043,-2.0147939,0.64843464,-1.3556998
195576552776819,11.703020,-1.690424,0.68907547,-1.0018597
195576560757281,11.711000,-1.1925807,0.6730442,-0.5842852
195576568828511,11.719072,-0.56808853,0.66080475,-0.1939882
195576576914896,11.727158,-0.08400297,0.681612,-0.029646099
195576584954242,11.735197,0.017017841,0.77047825,-0.084655166
195576592955627,11.743199,-0.20633698,0.86437416,-0.37615567
195576601035088,11.751278,-0.39029527,0.86049175,-0.67249095
195576609104588,11.759348,-0.5301311,0.9252939,-1.0415741
195576617215126,11.767458,-0.6367769,1.065774,-1.1484473
195576625294511,11.775538,-0.52948594,1.1629667,-0.9537852
195576633353280,11.783596,-0.33134747,1.1578274,-0.66635
195576641328896,11.791572,-0.14371204,1.2050724,-0.4878493
195576649349896,11.799593,0.18497562,1.2157259,-0.2665794
195576657447434,11.807691,0.5615392,1.0939484,-0.026285946
195576665567972,11.815811,0.9550004,0.9617033,0.16706598
195576673617703,11.823861,1.3531027,0.86327934,0.3533938
195576681698088,11.831941,1.8006334,0.82884216,0.4856509
195576689779895,11.840023,2.0714445,0.8575554,0.33519995
195576697890242,11.848133,1.9975548,0.84634113,0.08313978
195576705969741,11.856213,1.4721751,0.8247585,-0.22657853
195576714027434,11.864271,0.9563217,0.7419138,-0.38449466
195576722098703,11.872342,0.6278238,0.6409006,-0.2372399
195576730196280,11.880439,0.62160397,0.5609083,-0.029690206
195576738292434,11.888536,0.8301773,0.4826584,0.17577249
195576746406972,11.896650,1.1459002,0.3437128,0.3300439
195576754455357,11.904699,1.4536352,0.21221924,0.36225855
195576762514934,11.912758,1.6819487,-0.015052795,0.44058812
195576770581510,11.920825,1.7600889,-0.24293995,0.517396
195576778670203,11.928913,1.6181726,-0.37927246,0.6014333
195576786746280,11.936989,1.2452226,-0.48795986,0.477659
195576794804741,11.945048,0.77362156,-0.62926483,0.39583755
195576802886087,11.953129,0.16892433,-0.7676945,0.19658005
195576810983856,11.961227,-0.10099459,-0.8832946,0.06634885
195576819085280,11.969328,-0.052776337,-0.99170065,-0.2216677
195576827197241,11.977440,-0.15461063,-1.023891,-0.49623337
195576835188203,11.985431,-0.30814552,-1.103076,-0.5960872
195576843195779,11.993439,-0.28062296,-1.1994777,-0.6463693
195576851241087,12.001484,-0.35115528,-1.2680764,-0.68783146
195576859346702,12.009590,-0.6633966,-1.3542156,-0.6544608
195576867380433,12.017624,-0.7582598,-1.4384747,-0.6103659
195576875441702,12.025685,-0.55830455,-1.4557853,-0.57027745
195576883537318,12.033780,-0.22175598,-1.4346781,-0.70678633
195576891636433,12.041880,-0.011354923,-1.3778715,-0.94282246
195576899744664,12.049988,0.16018248,-1.3302307,-1.2019475
195576907862818,12.058106,0.12478447,-1.1968303,-1.5179908
195576915912202,12.066155,-0.06925273,-1.0686479,-1.7561396
195576923938933,12.074182,-0.5403061,-0.94022465,-1.8440952
195576931938894,12.082182,-0.97998834,-0.7850065,-1.8562764
195576940019471,12.090263,-1.1984904,-0.5843487,-1.8060095
195576948018779,12.098262,-1.3888404,-0.24783707,-1.6202333
195576956034279,12.106277,-1.5028644,0.02656269,-1.3459404
195576964070856,12.114314,-1.5309916,0.24699402,-1.1509771
195576972087933,12.122331,-1.5144315,0.39083958,-1.1167644
195576980069548,12.130313,-1.4037836,0.46422863,-1.1192238
195576988104279,12.138347,-1.0603864,0.54518986,-1.1578131
195576996099010,12.146342,-0.682729,0.65515995,-0.9427692
195577004213587,12.154457,-0.4275241,0.8042269,-0.80502516
195577012217394,12.162461,-0.15143847,0.9412098,-0.65522945
195577020282548,12.170526,-0.04146409,0.97896576,-0.41112262
195577028372933,12.178616,-0.04572773,0.9909687,-0.08021802
195577036362471,12.186606,0.2315185,1.0799694,0.13617927
195577044341971,12.194585,0.6959708,1.2988863,0.12053311
195577052394779,12.202638,1.1636171,1.512578,0.119226694
195577060411740,12.210655,1.417845,1.5448055,0.24646688
195577068426317,12.218669,1.5426764,1.4567976,0.47707415
195577076396509,12.226640,1.6544418,1.4321537,0.6586276
195577084386125,12.234629,1.8041229,1.4584751,0.8251468
195577092390702,12.242634,1.8996649,1.3721704,1.1189281
195577100452548,12.250696,1.8929858,1.2927227,1.1996818
195577108439201,12.258682,1.6153326,1.1162558,0.95722497
195577116417971,12.266661,1.4095798,0.9298992,0.64199793
195577124403586,12.274647,1.2939415,0.8252115,0.40112317
195577132428894,12.282672,1.2307949,0.7181654,0.30314624
195577140465817,12.290709,1.1498046,0.5518789,0.23910356
195577148493086,12.298736,0.88119555,0.43875122,0.15413046
195577156464432,12.306708,0.41639042,0.30160427,-0.0034849644
195577164477009,12.314720,0.06401205,0.11540127,-0.14094901
195577172479086,12.322722,-0.261374,-0.121456146,-0.2871514
195577180510778,12.330754,-0.5024607,-0.25219917,-0.41316026
195577188524509,12.338768,-0.5996399,-0.23602581,-0.58360803
195577196503778,12.346747,-0.54568005,-0.18933773,-0.79485106
195577204481547,12.354725,-0.5096464,-0.22265434,-0.9419091
195577212499124,12.362742,-0.40181422,-0.31730175,-1.0734146
195577220523740,12.370767,-0.13099146,-0.45327663,-0.976628
195577228564009,12.378807,0.25762653,-0.5393572,-0.7287586
195577236533893,12.386777,0.7147107,-0.5811062,-0.2624576
195577244535586,12.394779,1.1430931,-0.6894169,0.30740035
195577252537970,12.402781,1.4264269,-0.79553795,0.6404898
195577260568393,12.410812,1.5874219,-0.8284054,0.7028245
195577268541855,12.418785,1.5501957,-0.82634926,0.5649688
195577276520432,12.426764,1.3278456,-0.96380854,0.3718077
195577284496932,12.434740,1.0499988,-1.0123134,0.2125386
195577292516662,12.442760,0.78889513,-0.9119916,-0.064970195
195577300547932,12.450791,0.4871831,-0.80328846,-0.33011252
195577308598278,12.458841,0.16942787,-0.76524353,-0.24276805
195577316569047,12.466812,0.015862465,-0.79461956,-0.07846272
195577324570316,12.474813,0.01381588,-0.7977228,0.071953535
195577332572701,12.482816,0.007753372,-0.6860771,0.11331165
195577340599970,12.490843,0.032814503,-0.581542,0.14724863
195577348600931,12.498844,0.011110306,-0.4559946,0.07647157
195577356583931,12.506827,-0.2492559,-0.35027218,-0.07633942
195577364605777,12.514849,-0.6685386,-0.25121403,-0.2662605
195577372624277,12.522867,-0.97885275,-0.25906086,-0.17650664
195577380608816,12.530852,-1.0438755,-0.23360348,0.10519087
195577388636354,12.538880,-0.84542847,-0.1925087,0.38262713
195577396607316,12.546850,-0.58409405,0.0013608932,0.4632088
195577404622893,12.554866,-0.4663577,0.086128235,0.42906916
195577412626046,12.562869,-0.39331126,0.042186737,0.32437074
195577420651277,12.570894,-0.37308145,-0.0192976,0.14567947
195577428662431,12.578906,-0.11194873,-0.13939476,0.088585496
195577436645739,12.586889,0.33322382,-0.22862244,0.23840249
195577444629816,12.594873,0.7804949,-0.23766899,0.3524772
195577452647931,12.602891,1.0875032,-0.16716671,0.19441295
195577460644316,12.610887,1.1940079,-0.1210413,0.03792405
195577468717700,12.618961,1.0699809,-0.13319778,-0.12746465
195577476715777,12.626959,0.73793983,-0.10580063,-0.23090893
195577484720854,12.634964,0.31568456,-0.021427155,-0.34959143
195577492721277,12.642964,0.034855604,0.025945663,-0.35133392
195577500783508,12.651027,-0.10890913,0.06984329,-0.19735533
195577508854469,12.659098,-0.11016607,0.15406513,-0.15754008
195577516913392,12.667157,0.045974255,0.19319916,-0.13553715
195577524985623,12.675229,0.26170683,0.15463161,-0.076129556
195577533088008,12.683331,0.43708515,0.076452255,0.106464565
195577541107008,12.691350,0.6558976,-0.0053510666,0.33989424
195577549145392,12.699389,0.8856268,-0.0086689,0.62603724
195577557131277,12.707374,1.0797772,0.080179214,0.826754
195577565169161,12.715412,1.0714536,0.07504463,0.7921175
195577573172892,12.723416,0.8686962,0.023410797,0.73748827
195577581197200,12.731440,0.5703058,-0.017629623,0.48377478
195577589206700,12.739450,0.22960997,0.04975128,0.22976673
195577597185123,12.747428,-0.0922637,0.12158203,-0.010237098
195577605184161,12.755427,-0.5134132,0.13777065,-0.17144525
195577613256392,12.763500,-0.7767234,0.094371796,-0.178612
195577621266161,12.771509,-0.55608153,0.035621643,-0.048292637
195577629314430,12.779558,-0.14473009,-0.01641941,0.22457588
195577637286238,12.787529,0.30776548,-0.007276535,0.5371207
195577645297161,12.795540,0.6427326,-7.200241E-4,0.620041
195577653301930,12.803545,0.732018,0.0051603317,0.52071726
195577661332392,12.811576,0.5188389,0.038740158,0.3351754
195577669341392,12.819585,0.16098452,0.07852268,0.13330257
195577677319469,12.827563,-0.1317749,0.16814709,0.105682135
195577685317853,12.835561,-0.34588242,0.18130398,0.2650249
195577693338007,12.843581,-0.3557105,0.18589687,0.5468656
195577701357238,12.851600,-0.004360199,0.1967802,0.86045635
195577709394045,12.859637,0.4598465,0.2064991,1.0261284
195577717362853,12.867606,0.83923197,0.10666084,1.1649437
195577725415276,12.875658,1.1607728,-0.14375973,1.2052928
195577733415776,12.883659,1.3628483,-0.30582714,1.0720176
195577741459699,12.891703,1.3237333,-0.40744781,0.82199657
195577749461353,12.899705,1.0810933,-0.48423862,0.4719565
195577757440122,12.907683,0.48685026,-0.47655582,-0.025754571
195577765446430,12.915690,-0.24882507,-0.46454048,-0.6652877
195577773464814,12.923708,-0.80308056,-0.48706818,-1.0086921
195577781449584,12.931693,-1.1106231,-0.49014282,-1.0359403
195577789481814,12.939725,-1.1820803,-0.43480492,-0.7915429
195577797453237,12.947696,-0.89197326,-0.31308365,-0.36284548
195577805451468,12.955695,-0.63601446,-0.20374489,-0.0822711
195577813452391,12.963696,-0.40292525,-0.17025661,0.012872934
195577821478353,12.971722,-0.28356218,-0.16501522,-0.07315266
195577829483083,12.979726,-0.29270506,-0.08987236,-0.2955705
195577837459276,12.987702,-0.4854071,0.014468193,-0.52752054
195577845473622,12.995717,-0.7099767,-0.03315258,-0.513585
195577853491545,13.003735,-0.5886531,-0.12213135,-0.20542377
195577861477660,13.011721,-0.17928934,-0.19474602,0.1544658
195577869525699,13.019769,0.28600073,-0.1743908,0.35022473
195577877494622,13.027738,0.8197684,-0.14878845,0.38558102
195577885524237,13.035767,1.1751432,-0.104641914,0.17736506
195577893524660,13.043768,1.1224866,-0.03122425,-0.188034
195577901548391,13.051792,0.7786622,-0.020758629,-0.427759
195577909599122,13.059842,0.333086,-0.08855915,-0.33255553
195577917580121,13.067823,0.214149,-0.13352299,0.026330054
195577925604391,13.075848,0.3594451,0.06801987,0.19085169
195577933623198,13.083866,0.3448758,0.27290916,0.07812667
195577941613814,13.091857,0.02052641,0.38497353,-0.2892396
195577949662852,13.099906,-0.4139259,0.31623363,-0.5046949
195577957631852,13.107875,-0.6032529,0.26638508,-0.4748212
195577965675929,13.115919,-0.5397408,0.26992512,-0.14790303
195577973677121,13.123920,-0.29691863,0.3335514,0.22849607
195577981702352,13.131946,-0.11475706,0.33311653,0.60320264
195577989710929,13.139954,0.07340288,0.19327927,0.86064154
195577997729390,13.147973,0.24445438,0.0021781921,0.92243814
195578005746121,13.155989,0.20179844,-0.05093479,0.7026193
195578013825660,13.164069,-0.07248306,0.025678635,0.06710607
195578021842236,13.172085,-0.67302895,0.13523006,-0.6823007
195578029905583,13.180149,-1.6232283,0.16062069,-1.5561352
195578037901313,13.188144,-2.2018592,0.26926613,-2.2793725
195578045910929,13.196154,-2.4040709,0.48391247,-2.7151344
195578053957852,13.204201,-2.439283,0.63896847,-2.741106
195578061982582,13.212226,-2.0757537,0.7026062,-2.4052289
195578069977698,13.220221,-1.3111627,0.64493465,-1.5964139
195578077956082,13.228199,-0.4338088,0.69746304,-0.92169166
195578085981275,13.236224,0.12397051,0.8044729,-0.58719873
195578094058467,13.244302,0.29043198,0.86175346,-0.35876667
195578102068775,13.252312,0.1699729,0.83495426,-0.30375355
195578110092313,13.260335,-0.07440615,0.75726986,-0.3670131
195578118061659,13.268305,-0.2880628,0.633976,-0.48198944
195578126081467,13.276325,-0.44533396,0.4965334,-0.62263685
195578134085698,13.284329,-0.31662488,0.3931656,-0.6452046
195578142139928,13.292383,0.05553341,0.30700397,-0.7355466
195578150147967,13.300391,0.24133015,0.3500843,-0.9657503
195578158126159,13.308369,0.20702887,0.34663677,-1.3214222
195578166102236,13.316345,-0.0060219765,0.29878998,-1.4534397
195578174128774,13.324372,-0.07481861,0.22111893,-1.5069935
195578182169390,13.332413,-0.008080959,0.11184025,-1.3638278
195578190207928,13.340451,0.29265833,-0.014209747,-0.9473069
195578198178043,13.348421,0.51940346,-0.10399437,-0.535482
195578206190928,13.356434,0.6745143,-0.16966057,-0.22450379
195578214192851,13.364436,0.7173147,-0.25997066,-0.09126079
195578222220505,13.372464,0.5733161,-0.38132286,-0.14942306
195578230231005,13.380474,0.042330503,-0.49824142,-0.364725
195578238210313,13.388453,-0.6324005,-0.6208906,-0.63655394
195578246187466,13.396431,-1.2755761,-0.7375908,-1.0051453
195578254207813,13.404451,-1.6857612,-0.8378029,-1.2698411
195578262195389,13.412439,-1.9146729,-0.9197674,-1.4462738
195578270218928,13.420462,-1.8262727,-1.0239606,-1.4996593
195578278188851,13.428432,-1.568485,-1.1998086,-1.4121921
195578286187428,13.436431,-1.2067263,-1.2421589,-1.3343662
195578294188659,13.444432,-1.0099769,-1.1853085,-1.4038086
195578302239658,13.452483,-1.0254133,-1.1828704,-1.4493623
195578310249082,13.460492,-1.2664835,-1.1874146,-1.6856221
195578318233735,13.468477,-1.7362475,-1.1508121,-1.9827924
195578326255658,13.476499,-2.0444715,-1.2324243,-2.097436
195578334271889,13.484515,-1.9624349,-1.314301,-1.9315068
195578342257851,13.492501,-1.4928012,-1.3650956,-1.5130689
195578350378774,13.500622,-0.59267354,-1.3558555,-1.0690747
195578358427927,13.508671,0.21495557,-1.2619305,-0.638041
195578366508966,13.516752,0.5256772,-1.1764536,-0.5398729
195578374591274,13.524834,0.52302647,-1.0475602,-0.66962093
195578382632466,13.532876,0.1474936,-0.90905285,-1.0661303
195578390697350,13.540941,-0.68416524,-0.68226147,-1.6801442
195578398755466,13.548999,-1.8440607,-0.3822546,-2.3188982
195578406745312,13.556988,-2.6668868,-0.07618141,-2.6350367
195578414762658,13.565006,-3.089427,0.12998962,-2.5879245
195578422756120,13.572999,-3.0374749,0.37864017,-2.2889922
195578430781581,13.581025,-2.5309796,0.57308865,-1.705852
195578438750966,13.588994,-1.6563122,0.780776,-1.0495465
195578446791273,13.597034,-0.6692426,0.96693325,-0.40674365
195578454792696,13.605036,0.07635975,1.0739231,0.15127373
195578462817273,13.613060,0.4584937,1.1041822,0.67062163
195578470814235,13.621057,1.0411117,1.108491,1.3615265
195578478793081,13.629036,1.817946,1.0732985,2.0117514
195578486769465,13.637013,2.6574893,1.1120911,2.4447346
195578494790889,13.645034,3.1538525,1.2263603,2.5006487
195578502794965,13.653038,3.0857582,1.2826014,2.1838202
195578510810273,13.661053,2.3038158,1.193882,1.5705347
195578518780042,13.669023,1.3344717,1.1555824,0.88982767
195578526779504,13.677023,0.22857475,1.2167091,0.16619122
195578534780273,13.685023,-0.5934372,1.2736626,-0.33875644
195578542804042,13.693047,-1.1215987,1.3239126,-0.6511811
195578550799888,13.701043,-1.4367511,1.4281654,-0.9054227
195578558782042,13.709025,-1.6046705,1.5354776,-1.0957938
195578566769427,13.717013,-1.4456704,1.5811043,-0.961039
195578574788311,13.725031,-0.8434398,1.4721403,-0.46296674
195578582799042,13.733042,-0.1291194,1.3238907,0.16594547
195578590823196,13.741066,0.8663292,1.1678829,0.78968906
195578598794388,13.749038,1.6095967,1.0839367,1.0898093
195578606844888,13.757088,1.9207792,0.9116049,1.2066554
195578614847003,13.765090,1.7583952,0.8057766,1.0870862
195578622870234,13.773113,1.1833291,0.65828896,0.687365
195578630866811,13.781110,0.37126207,0.5596409,0.17345542
195578638845080,13.789088,-0.28878593,0.41616726,-0.044684112
195578646837426,13.797081,-0.6745939,0.29861832,-0.16621143
195578654885696,13.805129,-0.9315984,0.37541008,-0.47841802
195578662916926,13.813160,-1.268228,0.63939,-1.1199358
195578670948349,13.821192,-1.6881795,0.7679539,-1.5977876
195578678918619,13.829162,-2.180077,0.83324337,-2.0515432
195578686923119,13.837166,-2.4558556,0.8624191,-2.187784
195578694928849,13.845172,-2.2238274,0.7719593,-1.612733
195578702962003,13.853205,-1.4492304,0.64509296,-0.644559
195578710965618,13.861209,-0.09028244,0.52443504,0.5360791
195578718947465,13.869191,1.0840359,0.48311043,1.3484935
195578726944811,13.877188,2.0679588,0.5310755,1.7913373
195578734970965,13.885214,2.5823054,0.46172047,1.9788446
195578743009503,13.893253,2.690539,0.32585716,1.9517924
195578751033464,13.901277,2.3438396,0.13467693,1.8557928
195578759006888,13.909250,1.8620644,-0.06342697,1.716349
195578767013811,13.917257,1.3580313,-0.08887386,1.4470601
195578775021772,13.925265,0.737659,0.010878563,0.9347935
195578783054849,13.933298,0.10373354,0.049336433,0.37655455
195578791070003,13.941313,-0.63530993,0.10229206,-0.25958118
195578799052503,13.949296,-1.2730255,0.17799282,-0.63310325
195578807035080,13.957278,-1.7626944,0.20158863,-0.70624125
195578815061464,13.965305,-1.9124982,0.14059067,-0.3169006
195578823056964,13.973300,-1.5768154,0.107577324,0.105993986
195578831090426,13.981334,-0.8500879,0.06810284,0.53269583
195578839063695,13.989307,-0.13650799,0.0026350021,0.7044117
195578847073579,13.997317,0.22751808,-0.154212,0.7650679
195578855081387,14.005325,0.32693624,-0.27955532,0.725916
195578863115964,14.013359,0.3324747,-0.426363,0.73469144
195578871128041,14.021371,0.34272766,-0.6547222,0.9187743
195578879110541,14.029354,0.47937536,-0.8422117,1.2070107
195578887136502,14.037380,0.69824076,-0.9344039,1.362845
195578895162964,14.045406,0.94756746,-0.96048975,1.1954403
195578903167502,14.053411,1.0278673,-0.8853054,0.61635494
195578911209195,14.061452,0.97618246,-0.89005613,0.097664
195578919181579,14.069425,0.6027818,-0.8832865,-0.3538003
195578927197733,14.077441,-0.15430975,-0.8075037,-0.68032503
195578935205195,14.085448,-0.870836,-0.62443256,-0.76244104
195578943238387,14.093482,-1.3539732,-0.4654541,-0.63564944
195578951243656,14.101487,-1.5680068,-0.29832458,-0.5146879
195578959226964,14.109470,-1.6109855,-0.033574104,-0.44064185
195578967208233,14.117451,-1.562288,0.110982895,-0.34531948
195578975235733,14.125479,-1.3848126,0.15496826,-0.13971505
195578983247117,14.133490,-1.0894771,0.10989475,0.23274958
195578991281425,14.141525,-0.72073364,-0.015130043,0.68814945
195578999253156,14.149496,-0.34587932,-0.054864883,0.8877648
195579007266579,14.157510,-0.09715843,-0.050851822,0.8660741
195579015273656,14.165517,0.06961489,-0.06349373,0.7614549
195579023306386,14.173550,0.10259223,-0.06677151,0.4797709
195579031309348,14.181553,-0.186548,-0.044283867,0.03592822
195579039291579,14.189535,-0.61508656,-0.056142807,-0.29370296
195579047272309,14.197515,-1.0671833,-0.025012016,-0.59029466
195579055298425,14.205542,-1.2334673,0.14888382,-0.8487922
195579063298809,14.213542,-1.3934398,0.30639076,-1.13683
195579071333002,14.221576,-1.6503654,0.5543184,-1.4643847
195579079304156,14.229547,-1.8859082,0.8203964,-1.8703432
195579087311194,14.237554,-2.2108958,0.93739605,-2.034699
195579095317540,14.245561,-2.5101192,0.9411621,-1.853971
195579103348848,14.253592,-2.3703732,0.8481846,-1.2109742
195579111354078,14.261597,-1.6073177,0.9481869,-0.3985098
195579119338463,14.269582,-0.7365091,1.1099176,0.28712505
195579127318117,14.277561,-0.078336,1.2494717,0.57556003
195579135342694,14.285586,0.457582,1.2071018,0.73526686
195579143372963,14.293616,0.9823837,0.9669924,0.908834
195579151404348,14.301648,1.3946495,0.669755,1.1772447
195579159375040,14.309618,1.7467914,0.48204994,1.4914664
195579167380732,14.317624,1.8855996,0.46259308,1.8077322
195579175387347,14.325631,1.825768,0.58841896,1.8310328
195579183419655,14.333663,1.5985675,0.6079025,1.5792619
195579191421809,14.341665,1.1549792,0.4772253,1.1584976
195579199405540,14.349649,0.43963385,0.2455759,0.7576728
195579207390540,14.357634,-0.054284096,0.13440704,0.5423986
195579215497155,14.365740,-0.109629154,0.09740448,0.63486475
195579223529386,14.373773,-0.06553745,0.13527489,0.7610639
195579231573963,14.381817,-0.04662323,0.039746284,0.74244654
195579239545655,14.389789,0.018096447,-0.12654018,0.7832947
195579247565309,14.397808,0.33212042,-0.2486782,0.91077185
195579255570424,14.405814,0.68350315,-0.400239,1.1006553
195579263602078,14.413845,1.1201997,-0.5704632,1.4562132
195579271612962,14.421856,1.5523543,-0.7290392,1.739525
195579279593770,14.429837,1.8372378,-0.9634371,1.9327276
195579287574693,14.437818,2.2029529,-1.13519,1.8553221
195579295598116,14.445841,2.3684964,-1.2331963,1.537432
195579303589962,14.453833,2.198854,-1.2757206,0.9977952
195579311623578,14.461867,1.6782484,-1.2770019,0.55499005
195579319595462,14.469839,0.9048748,-1.2692146,0.14601505
195579327611385,14.477855,0.2040925,-1.3166776,0.037352413
195579335647847,14.485891,-0.34883022,-1.2355905,0.07236296
195579343679808,14.493923,-0.699527,-1.0913272,0.013268918
195579351678808,14.501922,-0.9460869,-0.9187403,-0.079898894
195579359701693,14.509945,-1.1532815,-0.8195772,-0.22540948
195579367734001,14.517977,-1.4477053,-0.6803484,-0.5087813
195579375758770,14.526002,-1.7147598,-0.5966883,-0.7556211
195579383765270,14.534008,-1.8157139,-0.464427,-0.97389853
195579391811116,14.542054,-1.6897564,-0.31756783,-1.0057579
195579399780000,14.550023,-1.2844677,-0.29841614,-0.6501795
195579407866770,14.558110,-0.8268881,-0.4130497,0.032648742
195579415952039,14.566195,-0.0051665306,-0.6318064,1.0249246
195579424066154,14.574309,0.88629675,-0.7236433,2.0332036
195579432073654,14.582317,1.8461518,-0.6076336,2.7419605
195579440133654,14.590377,2.623835,-0.52734375,2.9941554
195579448198077,14.598441,3.0696335,-0.41538715,2.7848558
195579456258269,14.606501,2.8157096,-0.31192303,2.0350888
195579464354577,14.614598,2.1848116,-0.289814,1.121004
195579472465039,14.622708,1.2401657,-0.34208965,0.48834062
195579480511077,14.630754,0.58234453,-0.28619957,0.41567427
195579488590000,14.638833,0.18641281,-0.079444885,0.6135858
195579496649385,14.646893,0.20329857,0.06848621,1.0340099
195579504761500,14.655005,0.43570328,0.19622898,1.315357
195579512843192,14.663086,0.39731026,0.27987957,1.3993816
195579520904462,14.671148,0.07544899,0.35195446,1.2621294
195579528960423,14.679204,-0.115885735,0.45196152,0.97395873
195579536999731,14.687243,-0.09607649,0.41513062,0.79524004
195579545071038,14.695314,0.10606575,0.3756218,0.7662051
195579553191423,14.703435,0.28099298,0.19521046,0.9060174
195579561186500,14.711430,0.5339012,-0.012286186,0.970693
195579569274923,14.719518,0.97772884,-0.13204002,1.1434772
195579577314846,14.727558,1.5528932,-0.19051933,1.2474829
195579585346500,14.735590,2.097846,-0.17761326,1.3595619
195579593348461,14.743592,2.555635,-0.19304562,1.3392007
195579601329423,14.751573,2.911623,-0.24035358,1.3373016
195579609346038,14.759589,2.7394996,-0.3135519,1.3537993
195579617407846,14.767651,2.3477654,-0.40527248,1.4758161
195579625435730,14.775679,1.976738,-0.37941837,1.4498107
195579633469230,14.783712,1.6230054,-0.3790884,1.2496573
195579641438615,14.791682,1.2658615,-0.20598316,0.83079964
195579649465961,14.799709,0.6218476,-0.08566952,0.28544313
195579657470730,14.807714,0.015033722,-0.020754814,-0.10326487
195579665501923,14.815745,-0.67528033,0.128232,-0.49658233
195579673503115,14.823746,-1.3248458,0.2656622,-0.53800654
195579681486153,14.831729,-1.6883774,0.23318386,-0.2456798
195579689490615,14.839734,-1.6203833,0.040584564,0.22005004
195579697516538,14.847760,-1.1626348,-0.08190918,0.76443046
195579705505115,14.855748,-0.44471383,-0.16453075,1.2096169
195579713535884,14.863779,-0.102437496,-0.1661377,1.3843683
195579721506961,14.871750,-4.901886E-4,-0.20751476,1.3060273
195579729514307,14.879757,-0.1540618,-0.25112057,0.9315751
195579737520153,14.887763,-0.36185193,-0.37128448,0.46703243
195579745551691,14.895795,-0.42698646,-0.42338753,0.13138068
195579753554461,14.903798,-0.44880748,-0.3981352,-0.11928278
195579761535499,14.911779,-0.5537138,-0.33385372,-0.39039427
195579769580230,14.919823,-0.7632127,-0.20650578,-0.7958923
195579777604307,14.927847,-1.0457535,-0.11201668,-0.99158967
195579785598999,14.935842,-1.2650378,-0.08841419,-0.9492659
195579793638460,14.943882,-1.392298,-0.14638138,-0.664825
195579801635037,14.951878,-1.1980133,-0.21407223,-0.17738077
195579809651460,14.959895,-0.77056074,-0.12765026,0.1993869
195579817655614,14.967899,-0.12535143,-0.1704607,0.6388976
195579825678845,14.975922,0.28945923,-0.2692604,1.0038357
195579833685306,14.983928,0.754055,-0.32125664,1.1909301
195579841691883,14.991935,1.1507969,-0.3130474,1.2817013
195579849727114,14.999970,1.5071716,-0.30740356,1.2997897
195579857793999,15.008037,1.5609131,-0.25820827,1.0810244
195579865791576,15.016035,1.2823577,-0.12542439,0.69375414
195579873829268,15.024072,0.9253073,-0.07058716,0.4074092
195579881803152,15.032046,0.5754161,0.051477432,0.23692393
195579889820883,15.040064,0.30101967,0.08818054,0.29568505
195579897825614,15.048069,0.21828365,0.09524059,0.5393378
195579905865575,15.056109,0.3920207,0.08561516,0.88068575
195579913878498,15.064122,0.74530363,0.025841713,1.282785
195579921887268,15.072130,0.92189455,-0.050979614,1.5037823
195579929911152,15.080154,1.0253215,-0.12849426,1.6578013
195579937983691,15.088227,1.2334704,-0.22878647,1.78784
195579946042152,15.096285,1.3309264,-0.39494514,1.888741
195579954110652,15.104354,1.1584401,-0.5006571,1.6830423
195579962080383,15.112324,0.799191,-0.5947361,1.2080226
195579970098614,15.120342,0.5696697,-0.6998873,0.7834716
195579978102806,15.128346,0.31889105,-0.85181284,0.40070373
195579986174652,15.136418,0.034625053,-0.9734664,0.14426816
195579994231267,15.144474,-0.026406765,-1.1035528,0.13605797
195580002286229,15.152529,0.09836149,-1.1573939,0.2925564
195580010309960,15.160553,0.19743538,-1.1730642,0.44589692
195580018334075,15.168577,0.20646143,-1.1268783,0.45441753
195580026405998,15.176649,0.031404972,-1.1096182,0.29611617
195580034490152,15.184733,-0.3123424,-1.1169772,0.06732088
195580042464536,15.192708,-0.68511176,-1.1290293,-0.13177839
195580050480883,15.200724,-0.8542032,-1.1160016,-0.21333793
195580058485190,15.208728,-0.97729754,-1.054079,-0.19722354
195580066517306,15.216760,-1.0609083,-0.9280863,-0.23839784
195580074519998,15.224763,-1.0370402,-0.8462477,-0.25732496
195580082500536,15.232744,-1.0042641,-0.7293968,-0.46012628
195580090479036,15.240722,-1.0739362,-0.5459089,-0.7559233
195580098501844,15.248745,-1.130249,-0.38956642,-1.0586586
195580106525805,15.256769,-1.1140578,-0.15230465,-1.2947975
195580114567421,15.264811,-1.208987,0.04932022,-1.3487551
195580122537844,15.272781,-1.2440236,0.1430378,-1.1101546
195580130554113,15.280797,-1.2144477,0.21375847,-0.79061437
195580138558344,15.288802,-1.0091305,0.13890171,-0.20848756
195580146588459,15.296832,-0.55583024,0.0308218,0.24226066
195580154601728,15.304845,-0.08444023,0.055814743,0.41668463
195580162582998,15.312826,0.52390623,0.13556767,0.57914513
195580170563690,15.320807,1.1197834,0.07081604,0.7939172
195580178587728,15.328831,1.7756143,0.072021484,0.9987667
195580186624267,15.336867,2.2542267,0.2136612,1.0841683
195580194655767,15.344899,2.5421495,0.4821701,1.100627
195580202627344,15.352871,2.404276,0.77351093,0.86546004
195580210656113,15.360899,1.6627598,1.0340557,0.38422203
195580218661843,15.368905,0.897985,1.093401,0.090402484
195580226694805,15.376938,0.16647959,1.0286379,-0.019114494
195580234697497,15.384941,-0.056086063,0.8820791,0.40353608
195580242681420,15.392925,0.29175806,0.86608887,1.1358676
195580250663959,15.400907,0.7361026,0.9277477,1.6952213
195580258690651,15.408934,1.1227174,1.0206709,2.0279078
195580266688689,15.416932,1.2855024,1.0264492,1.9404428
195580274722343,15.424966,1.1934114,0.9737196,1.6893448
195580282693112,15.432936,0.88034296,0.81656647,1.3471315
195580290711728,15.440955,0.5534334,0.45043564,1.0804452
195580298717882,15.448961,0.50370216,0.08906269,0.89715314
195580306750228,15.456993,0.6779976,-0.03487587,0.71046597
195580314763305,15.465006,1.1085968,-0.06307602,0.5188301
195580322745074,15.472988,1.4383173,-0.0059757233,0.33536625
195580330736689,15.480980,1.3694606,0.0627079,0.12615323
195580338761420,15.489005,0.9995079,0.06426144,0.0043336153
195580346772189,15.497015,0.42671442,-0.061135292,0.024093688
195580354812574,15.505056,-0.036669254,-0.17523003,0.15741235
195580362783074,15.513026,-0.32787132,-0.23890018,0.15176201
195580370834112,15.521077,-0.39199615,-0.39941406,0.2543097
195580378838689,15.529082,-0.20745325,-0.56583214,0.3573504
195580386870958,15.537114,0.1894455,-0.71402454,0.41999102
195580394885112,15.545128,0.53198624,-0.80401516,0.51236117
195580402866920,15.553110,0.6467171,-0.9101758,0.5704887
195580410861650,15.561105,0.61572695,-1.0224757,0.5583692
195580418885650,15.569129,0.48741388,-1.0538034,0.400994
195580426902573,15.577146,0.23045349,-1.0591521,0.19208264
195580434941996,15.585185,-0.06888199,-1.0875282,0.041475058
195580442912150,15.593155,-0.47371173,-1.0474763,-0.15656656
195580450925458,15.601169,-0.8096874,-0.96983624,-0.26970017
195580458929343,15.609173,-0.964679,-0.91659355,-0.29945615
195580466961535,15.617205,-1.2068226,-0.8890476,-0.40885463
195580474964073,15.625207,-1.5073862,-0.85133266,-0.60212946
195580482947150,15.633190,-1.5678539,-0.7541628,-0.79358554
195580490939419,15.641183,-1.4745109,-0.65738106,-0.90944004
195580498964573,15.649208,-1.5110679,-0.5484352,-1.0090702
195580506988689,15.657232,-1.6141117,-0.3417101,-0.91244835
195580515024227,15.665267,-1.6167405,-0.15423107,-0.6631062
195580522995573,15.673239,-1.5285385,-0.035284042,-0.41612202
195580531013765,15.681257,-1.3405039,0.031006813,-0.2127876
195580539021188,15.689264,-0.94541335,-0.003036499,0.10769433
195580547052073,15.697295,-0.4112339,-0.026875496,0.28960398
195580555065996,15.705309,0.020715475,0.039669037,0.3426438
195580563049188,15.713292,0.53868103,0.16003227,0.30549803
195580571047881,15.721291,0.87601423,0.304842,0.19966799
195580579073804,15.729317,0.9025712,0.45671463,0.1343275
195580587105727,15.737349,0.85535717,0.5595665,0.16828972
195580595138611,15.745382,0.8049407,0.6307068,0.29666942
195580603109496,15.753353,0.84047794,0.65312195,0.6389178
195580611129650,15.761373,0.9627681,0.73179245,0.82605577
195580619134957,15.769378,1.0626435,1.0350246,0.8162004
195580627165880,15.777409,1.0126481,1.262414,0.66938984
195580635179496,15.785423,0.72353935,1.3268671,0.46844435
195580643161611,15.793405,0.31152153,1.4204082,0.22068769
195580651186380,15.801430,-0.31319356,1.5437136,-0.052069813
195580659212188,15.809455,-0.64344215,1.5425406,-0.0065382123
195580667250073,15.817493,-0.6407218,1.6525679,-0.0025105476
195580675285034,15.825528,-0.6391268,1.8097019,-0.06787178
195580683257072,15.833500,-0.64493656,1.7597389,-0.05163929
195580691265803,15.841509,-0.47199655,1.5652323,0.15109718
195580699272726,15.849516,-0.07170439,1.3633938,0.3903107
195580707305534,15.857549,0.37149525,1.2848139,0.55181795
195580715320226,15.865563,0.75253725,1.1808157,0.61138535
195580723312303,15.873555,1.011991,0.9663296,0.5875842
195580731331380,15.881575,1.2588553,0.60246277,0.7124057
195580739357111,15.889600,1.4379292,0.33240414,0.91782206
195580747358226,15.897601,1.5837097,0.071917534,1.1479752
195580755393880,15.905637,1.4719877,-0.08127117,1.1590382
195580763366149,15.913609,1.1392617,-0.11907768,0.8112562
195580771375534,15.921619,0.64745617,-0.17421055,0.3361635
195580779385072,15.929628,0.03138733,-0.4256239,-0.08527997
195580787418611,15.937662,-0.27066565,-0.7236643,-0.3264131
195580795443803,15.945687,-0.21537066,-0.84705067,-0.4373808
195580803425226,15.953668,0.01214695,-0.8456783,-0.47632107
195580811404495,15.961648,0.077638626,-0.7320242,-0.63329875
195580819431726,15.969675,-0.22037983,-0.6866169,-0.7753905
195580827446110,15.977689,-0.52698565,-0.7671375,-0.7879993
195580835491803,15.985735,-0.9580488,-0.7959423,-0.7455767
195580843463610,15.993707,-1.4593761,-0.7630253,-0.71075964
195580851471303,16.001714,-1.7707233,-0.6574316,-0.7766306
195580859476226,16.009719,-1.9260862,-0.57351875,-0.84314156
195580867507264,16.017750,-2.0134606,-0.49257278,-1.0221567
195580875509264,16.025752,-1.9076035,-0.46762562,-1.1535268
195580883491918,16.033735,-1.8053348,-0.42904186,-1.221511
195580891473572,16.041717,-1.6828759,-0.34323502,-1.1364684
195580899498572,16.049742,-1.5000315,-0.24247456,-0.9590069
195580907512418,16.057756,-1.4533935,-0.16710567,-0.8116151
195580915556764,16.065800,-1.4139228,-0.2798462,-0.61733025
195580923528841,16.073772,-1.2949951,-0.32950497,-0.39721888
195580931546302,16.081789,-1.1325619,-0.34720802,-0.21753304
195580939553148,16.089796,-0.9007487,-0.2992611,-0.17316782
195580947586264,16.097829,-0.7446108,-0.2650938,-0.34265435
195580955600571,16.105844,-0.570488,-0.3070917,-0.45660865
195580963584341,16.113828,-0.40405822,-0.4877367,-0.5459399
195580971566033,16.121809,-0.17634463,-0.5561199,-0.5277242
195580979592187,16.129835,-0.015186071,-0.46426392,-0.58159286
195580987616571,16.137860,0.018198013,-0.3035841,-0.7618375
195580995661456,16.145905,-0.10921955,-0.23230553,-0.8477619
195581003632456,16.153876,-0.35122275,-0.1908598,-0.99355626
195581011650994,16.161894,-0.5916202,-0.18355179,-0.9649457
195581019658417,16.169902,-0.9003422,-0.10242939,-0.9075851
195581027691302,16.177934,-1.0176303,0.096092224,-0.79088795
195581035706763,16.185950,-1.0349369,0.25658417,-0.8262565
195581043690148,16.193933,-1.0665956,0.28880692,-0.9265794
195581051670686,16.201914,-0.937382,0.2763815,-0.91239226
195581059697109,16.209940,-0.6247051,0.22943783,-0.8774106
195581067726225,16.217969,-0.25167227,0.20584965,-0.7935612
195581075776571,16.226020,-0.00792098,0.16743374,-0.68543494
195581083747802,16.233991,0.065273285,0.22505188,-0.6545733
195581091767340,16.242011,0.015417337,0.24141216,-0.6545219
195581099772032,16.250015,-0.050695896,0.25520992,-0.79774
195581107803648,16.258047,-0.14206624,0.2781706,-0.98826057
195581115819109,16.266062,-0.14272428,0.32520866,-1.1385972
195581123800802,16.274044,-0.08048701,0.3442917,-1.0825694
195581131827571,16.282071,-0.005404949,0.39278316,-1.1244389
195581139852994,16.290096,0.051415443,0.4634781,-1.1542814
195581147847263,16.298090,-0.045258284,0.5055456,-1.0221181
195581155892071,16.306135,-0.001187563,0.45440197,-0.7004972
195581163864340,16.314108,0.18733978,0.42539692,-0.31216127
195581171883801,16.322127,0.49867916,0.4281416,0.030549169
195581179891109,16.330134,0.6416483,0.5245285,0.18023556
195581187922801,16.338166,0.7516377,0.53448296,0.2090595
195581195935417,16.346179,0.7867596,0.40963078,0.21883623
195581203917532,16.354161,0.68763876,0.18085098,0.16056612
195581211907994,16.362151,0.5078602,0.077591896,0.1851254
195581219932340,16.370176,0.4416976,0.099695206,0.146639
195581227936878,16.378180,0.4127848,0.122535706,0.0967334
195581235981301,16.386224,0.25901055,0.101421356,-0.0672849
