time,seconds_elapsed,z,y,x
195564849946902,0.000190,-0.20158553,-0.1301143,-0.35918877
195564857933787,0.008177,-0.20158553,-0.1301143,-0.35918877
195564865963094,0.016206,-0.20158553,-0.1301143,-0.35918877
195564873934171,0.024177,-0.20158553,-0.1301143,-0.35918877
195564882053864,0.032297,-0.20158553,-0.1301143,-0.35918877
195564889963863,0.040207,-0.20158553,-0.1301143,-0.35918877
195564897980633,0.048224,-0.20158553,-0.1301143,-0.35918877
195564905984710,0.056228,-0.20158553,-0.1301143,-0.35918877
195564914024863,0.064268,-0.20158553,-0.1301143,-0.35918877
195564922103786,0.072347,-0.20158553,-0.1301143,-0.35918877
195564930028017,0.080271,-0.20158553,-0.1301143,-0.35918877
195564938001325,0.088245,-0.20158553,-0.1301143,-0.35918877
195564946037094,0.096280,-0.20158553,-0.1301143,-0.35918877
195564954010709,0.104254,-0.20158553,-0.1301143,-0.35918877
195564962137748,0.112381,-0.20158553,-0.1301143,-0.35918877
195564970041632,0.120285,-0.20158553,-0.1301143,-0.35918877
195564978057825,0.128301,-0.0421497,-0.025045475,-0.022602014
195564986065017,0.136308,-0.03970624,-0.021380283,-0.028710667
195564994048902,0.144292,-0.032986723,-0.013439035,-0.03359759
195565002134286,0.152377,-0.025045475,-0.007941248,-0.03481932
195565010140094,0.160383,-0.015882496,-0.012217305,-0.036651913
195565018183286,0.168426,-6.1086525E-4,-0.029321533,-0.04153884
195565026278632,0.176522,0.009773844,-0.042760566,-0.03848451
195565034250171,0.184493,0.02076942,-0.04337143,-0.010995574
195565042375401,0.192619,0.026267206,-0.030543262,0.019547688
195565050277247,0.200520,0.037873644,-0.029321533,0.047036625
195565058291671,0.208535,0.047036625,-0.036651913,0.0580322
195565066295632,0.216539,0.045814894,-0.03848451,0.0580322
195565074280401,0.224524,0.040927973,-0.037873644,0.05497787
195565082365747,0.232609,0.035430185,-0.042760566,0.03970624
195565090282863,0.240526,0.032375857,-0.050701816,0.022602014
195565098257863,0.248501,0.036651913,-0.061086524,-0.0067195175
195565106297286,0.256540,0.042760566,-0.065973446,-0.03481932
195565114270324,0.264513,0.05131268,-0.058643065,-0.058643065
195565122396401,0.272640,0.07086037,-0.029932396,-0.07391469
195565130298016,0.280541,0.07941248,-0.002443461,-0.080634214
195565138314901,0.288558,0.086132,0.020158553,-0.08307768
195565146320939,0.296564,0.077579886,0.02565634,-0.07147124
195565154303939,0.304547,0.06047566,0.023823744,-0.05009095
195565162392016,0.312635,0.04153884,0.02443461,-0.019547688
195565170306901,0.320550,0.02443461,0.0012217305,0.021991149
195565178303132,0.328546,0.022602014,-0.029932396,0.044593163
195565186377016,0.336620,0.027488936,-0.06658431,0.062308256
195565194471555,0.344715,0.03176499,-0.08246681,0.06780604
195565202589055,0.352832,0.03481932,-0.09407325,0.062308256
195565210526247,0.360769,0.03481932,-0.08246681,0.0421497
195565218582362,0.368826,0.037873644,-0.057421334,0.021991149
195565226546324,0.376789,0.037873644,-0.028710667,-0.0030543262
195565234543670,0.384787,0.0421497,-0.0030543262,-0.03970624
195565242622478,0.392866,0.05131268,0.004886922,-0.064751714
195565250569977,0.400813,0.06719518,0.017104227,-0.089186326
195565258586670,0.408830,0.07147124,0.02565634,-0.099571034
195565266633977,0.416877,0.06841691,0.029321533,-0.09285152
195565274620785,0.424864,0.05681047,0.039095376,-0.06414085
195565282738208,0.432981,0.042760566,0.045814894,-0.03481932
195565290674016,0.440917,0.029932396,0.039095376,-0.0030543262
195565298706670,0.448950,0.017715093,0.015882496,0.036651913
195565306722823,0.456966,0.025045475,-0.0036651916,0.06414085
195565314722016,0.464965,0.0421497,-0.028099801,0.09040806
195565322802554,0.473046,0.062308256,-0.04520403,0.099571034
195565330750900,0.480994,0.086132,-0.055588737,0.09407325
195565338767631,0.489011,0.11178834,-0.043982297,0.081855945
195565346814900,0.497058,0.12217305,-0.018936822,0.0720821
195565354799323,0.505042,0.124005646,0.01282817,0.058643065
195565362910785,0.513154,0.119729586,0.045814894,0.034208454
195565370847631,0.521091,0.119729586,0.061086524,0.017715093
195565378879515,0.529123,0.11178834,0.069027774,0.007941248
195565386893515,0.537137,0.11178834,0.06169739,0.014660766
195565394892631,0.545136,0.10995574,0.04642576,0.030543262
195565402973823,0.553217,0.10995574,0.017715093,0.06536258
195565410922862,0.561166,0.111177474,0.002443461,0.09040806
195565418954169,0.569197,0.108123146,-0.0036651916,0.1142318
195565427001285,0.577244,0.099571034,-0.0036651916,0.13683382
195565434988131,0.585231,0.09407325,-0.0067195175,0.13988814
195565443105631,0.593349,0.08368854,-6.1086525E-4,0.13072516
195565451041323,0.601284,0.077579886,0.01038471,0.12095132
195565459072054,0.609315,0.06963864,0.016493361,0.10629055
195565467081554,0.617325,0.059253927,0.004886922,0.07819075
195565475085092,0.625328,0.049480084,0.0061086523,0.06414085
195565483169515,0.633413,0.042760566,0.022602014,0.059253927
195565491117630,0.641361,0.03359759,0.037873644,0.057421334
195565499108515,0.649352,0.02565634,0.048258353,0.056199603
195565507151246,0.657394,0.017715093,0.06169739,0.06047566
195565515138515,0.665382,0.008552114,0.07696902,0.06536258
195565523254400,0.673498,0.002443461,0.081855945,0.06841691
195565531190438,0.681434,-0.002443461,0.077579886,0.064751714
195565539223592,0.689467,-0.004276057,0.065973446,0.06414085
195565547237861,0.697481,-0.01282817,0.05131268,0.06352998
195565555237784,0.705481,-0.021991149,0.032375857,0.058643065
195565563328130,0.713571,-0.02565634,0.026267206,0.04886922
195565571277169,0.721520,-0.02076942,0.032375857,0.03604105
195565579279592,0.729523,-0.01038471,0.056199603,0.026267206
195565587327592,0.737571,-0.009162978,0.069027774,0.021380283
195565595315592,0.745559,-0.013439035,0.07574729,0.012217305
195565603436438,0.753680,-0.02076942,0.077579886,0.002443461
195565611373592,0.761617,-0.029932396,0.07574729,-0.009162978
195565619405707,0.769649,-0.03848451,0.06963864,-0.021380283
195565627420707,0.777664,-0.04642576,0.061086524,-0.026267206
195565635420091,0.785663,-0.04886922,0.049480084,-0.027488936
195565643512014,0.793755,-0.04337143,0.036651913,-0.018936822
195565651462091,0.801705,-0.032375857,0.03359759,-0.0018325958
195565659476437,0.809720,-0.01038471,0.03359759,0.029932396
195565667525630,0.817769,0.0061086523,0.031154128,0.048258353
195565675512360,0.825756,0.015271631,0.021991149,0.04886922
195565683631976,0.833875,0.021991149,0.021991149,0.03604105
195565691569284,0.841812,0.02443461,0.025045475,0.021380283
195565699603745,0.849847,0.028099801,0.039095376,0.01160644
195565707619437,0.857863,0.03726278,0.07086037,0.009162978
195565715620899,0.865864,0.047647487,0.09285152,0.016493361
195565723703130,0.873946,0.06536258,0.10995574,0.037873644
195565731654206,0.881897,0.07819075,0.108123146,0.053145275
195565739642014,0.889885,0.087964594,0.09407325,0.065973446
195565747689629,0.897933,0.09040806,0.07696902,0.07452556
195565755679129,0.905922,0.086132,0.07391469,0.076358154
195565763794360,0.914038,0.08307768,0.065973446,0.07880162
195565771731629,0.921975,0.0842994,0.03970624,0.08002335
195565779763360,0.930007,0.08124508,0.025045475,0.07880162
195565787773899,0.938017,0.07452556,0.02443461,0.07941248
195565795772052,0.946015,0.069027774,0.022602014,0.07147124
195565803851283,0.954094,0.062308256,0.029932396,0.056199603
195565811801245,0.962044,0.051923547,0.059864793,0.034208454
195565819830129,0.970073,0.043982297,0.07819075,0.019547688
195565827877591,0.978121,0.036651913,0.08124508,0.007941248
195565835864014,0.986107,0.020158553,0.08124508,-0.002443461
195565843980591,0.994224,0.01160644,0.08124508,-0.0012217305
195565851916321,1.002159,0.004886922,0.069027774,6.1086525E-4
195565859950629,1.010194,-6.1086525E-4,0.028710667,-0.014049901
195565867967321,1.018210,0.0012217305,-0.007330383,-0.03176499
195565875968283,1.026211,0.0061086523,-0.03481932,-0.057421334
195565884050244,1.034293,0.01282817,-0.029932396,-0.069027774
195565892000398,1.042244,0.015271631,0.0018325958,-0.076358154
195565899987783,1.050231,0.023823744,0.06658431,-0.084910266
195565908035321,1.058278,0.025045475,0.12522738,-0.07452556
195565916023936,1.066267,0.03176499,0.18142697,-0.055588737
195565924144398,1.074388,0.044593163,0.21319197,-0.02565634
195565932082590,1.082326,0.058643065,0.19730948,-0.0061086523
195565940116013,1.090359,0.080634214,0.1301143,0.016493361
195565948132052,1.098375,0.089186326,0.06047566,0.019547688
195565956131513,1.106375,0.09162979,0.0067195175,0.01160644
195565964212821,1.114456,0.08735373,-0.016493361,-0.0030543262
195565972161398,1.122405,0.07880162,0.0030543262,-0.0030543262
195565980155552,1.130399,0.06352998,0.023823744,0.007941248
195565988202936,1.138446,0.043982297,0.045814894,0.02076942
195565996191282,1.146434,0.03726278,0.05681047,0.03726278
195566004309167,1.154552,0.03359759,0.06291912,0.06352998
195566012247975,1.162491,0.03604105,0.051923547,0.086132
195566020282782,1.170526,0.03848451,0.03604105,0.10995574
195566028299898,1.178543,0.03848451,0.01282817,0.13805555
195566036300398,1.186544,0.03481932,-0.0030543262,0.15149458
195566044381859,1.194625,0.032375857,-0.012217305,0.1600467
195566052331821,1.202575,0.03726278,-0.009773844,0.15760323
195566060335244,1.210578,0.03970624,-0.004276057,0.15210545
195566068383474,1.218627,0.040317107,0.007941248,0.14355333
195566076371013,1.226614,0.029321533,0.010995574,0.1386664
195566084487820,1.234731,0.016493361,0.004276057,0.13072516
195566092424013,1.242667,0.002443461,-0.018325957,0.10629055
195566100456397,1.250700,-0.0012217305,-0.03359759,0.08246681
195566108472205,1.258715,-0.0036651916,-0.029932396,0.059253927
195566116471782,1.266715,-0.015882496,6.1086525E-4,0.050701816
195566124551936,1.274795,-0.02687807,0.02443461,0.059253927
195566132500551,1.282744,-0.03970624,0.032375857,0.06841691
195566140504128,1.290747,-0.052534413,0.018325957,0.07696902
195566148549551,1.298793,-0.050701816,-0.0018325958,0.07086037
195566156535705,1.306779,-0.040927973,-0.021380283,0.045814894
195566164658397,1.314902,-0.036651913,-0.018325957,0.021380283
195566172595782,1.322839,-0.035430185,-0.014049901,-0.0036651916
195566180628397,1.330872,-0.03481932,0.0,-0.03726278
195566188644628,1.338888,-0.029932396,0.014660766,-0.06658431
195566196645012,1.346888,-0.022602014,0.040317107,-0.09407325
195566204724589,1.354968,-0.014049901,0.07819075,-0.11362094
195566212674743,1.362918,-0.007330383,0.108123146,-0.11301007
195566220694628,1.370938,-0.002443461,0.12767084,-0.1020145
195566228737320,1.378980,0.0012217305,0.1160644,-0.096516706
195566236723820,1.386967,0.008552114,0.09162979,-0.08979719
195566244836935,1.395080,0.02565634,0.050701816,-0.080634214
195566252772589,1.403016,0.037873644,0.02687807,-0.06841691
195566260805704,1.411049,0.04886922,0.019547688,-0.056199603
195566268820127,1.419063,0.0580322,0.018325957,-0.03970624
195566276818127,1.427061,0.06047566,0.023823744,-0.031154128
195566284899897,1.435143,0.06169739,0.045814894,-0.025045475
195566292848858,1.443092,0.06352998,0.057421334,-0.028099801
195566300871781,1.451115,0.064751714,0.061086524,-0.03848451
195566308918089,1.459161,0.06841691,0.04337143,-0.058643065
195566316904358,1.467148,0.07086037,0.021991149,-0.07696902
195566325028396,1.475272,0.076358154,0.01282817,-0.09590584
195566332965243,1.483208,0.08857546,0.017715093,-0.11484267
195566340997704,1.491241,0.0983493,0.02076942,-0.12889257
195566349013704,1.499257,0.108123146,0.026267206,-0.13133603
195566357014743,1.507258,0.11301007,0.028099801,-0.118507855
195566365097819,1.515341,0.1142318,0.02321288,-0.093462385
195566373049089,1.523292,0.11301007,0.007330383,-0.061086524
195566381084473,1.531328,0.116675265,-0.01160644,-0.04337143
195566389133665,1.539377,0.115453534,-0.029321533,-0.03176499
195566397122973,1.547366,0.12522738,-0.040927973,-0.028710667
195566405243781,1.555487,0.12767084,-0.0421497,-0.028099801
195566413183050,1.563426,0.12644911,-0.047036625,-0.029321533
195566421217281,1.571460,0.11728613,-0.040927973,-0.028710667
195566429234665,1.579478,0.1020145,-0.029321533,-0.022602014
195566437236050,1.587479,0.08674286,-0.016493361,-0.01282817
195566445323358,1.595567,0.07880162,-0.014049901,-0.007330383
195566453274242,1.603517,0.07147124,-0.014660766,0.0012217305
195566461312857,1.611556,0.064751714,-0.015271631,0.009773844
195566469360165,1.619603,0.06536258,-0.026267206,0.01160644
195566477349473,1.627593,0.06719518,-0.029932396,0.010995574
195566485465396,1.635709,0.065973446,-0.020158553,0.01038471
195566493401742,1.643645,0.06658431,-0.008552114,0.010995574
195566501433280,1.651676,0.06414085,0.004886922,0.01038471
195566509449511,1.659693,0.0580322,0.008552114,0.018936822
195566517448742,1.667692,0.051923547,0.0018325958,0.027488936
195566525531896,1.675775,0.0421497,-0.016493361,0.029932396
195566533481973,1.683725,0.03604105,-0.02687807,0.027488936
195566541479088,1.691722,0.02687807,-0.02076942,0.034208454
195566549526588,1.699770,0.018325957,-0.014660766,0.039095376
195566557535088,1.707778,0.015882496,-0.016493361,0.03848451
195566565591549,1.715835,0.015882496,-0.010995574,0.04153884
195566573527665,1.723771,0.02076942,-0.0018325958,0.044593163
195566581558895,1.731802,0.028710667,0.0012217305,0.04337143
195566589573126,1.739816,0.03726278,-6.1086525E-4,0.037873644
195566597571780,1.747815,0.042760566,0.0067195175,0.03359759
195566605652549,1.755896,0.04886922,0.01160644,0.028710667
195566613599280,1.763842,0.05131268,0.015882496,0.01160644
195566621600780,1.771844,0.047036625,0.037873644,0.0018325958
195566629647588,1.779891,0.043982297,0.08735373,0.0030543262
195566637634665,1.787878,0.047647487,0.0983493,0.005497787
195566645752472,1.795996,0.056199603,0.07819075,0.009162978
195566653689357,1.803933,0.06047566,0.03481932,0.010995574
195566661722241,1.811965,0.059864793,0.010995574,0.01282817
195566669738780,1.819982,0.054367006,0.007941248,0.01282817
195566677738664,1.827982,0.037873644,0.026267206,0.022602014
195566685820357,1.836064,0.019547688,0.073303826,0.032375857
195566693769664,1.844013,-0.005497787,0.1423316,0.04886922
195566701757664,1.852001,-0.021991149,0.15027285,0.054367006
195566709802433,1.860046,-0.025045475,0.12461651,0.05375614
195566717789664,1.868033,-0.007941248,0.08246681,0.049480084
195566725907280,1.876150,0.02076942,0.059864793,0.02565634
195566733843933,1.884087,0.058643065,-0.015271631,-0.02443461
195566741877472,1.892121,0.10262536,-0.10445796,-0.08552113
195566749893972,1.900137,0.11301007,-0.100792766,-0.099571034
195566757892933,1.908136,0.1001819,-0.039095376,-0.089186326
195566765973356,1.916217,0.09162979,0.018325957,-0.08246681
195566773922779,1.924166,0.084910266,0.07269296,-0.080634214
195566781947510,1.932191,0.07819075,0.1301143,-0.07819075
195566789991356,1.940235,0.076358154,0.16493362,-0.08124508
195566797980818,1.948224,0.08124508,0.17104226,-0.1001819
195566806096125,1.956339,0.103847094,0.15332718,-0.14477506
195566814033741,1.964277,0.13255776,0.13500121,-0.17715092
195566822068010,1.972311,0.16798794,0.10445796,-0.20097467
195566830084548,1.980328,0.18020524,0.06536258,-0.1740966
195566838085818,1.988329,0.18081611,0.052534413,-0.11362094
195566846169087,1.996412,0.17348573,0.059253927,-0.018936822
195566854119971,2.004363,0.16249016,0.06719518,0.04337143
195566862107933,2.012351,0.15149458,0.0720821,0.09285152
195566870155241,2.020398,0.13255776,0.06841691,0.12522738
195566878142933,2.028386,0.12217305,0.06414085,0.1282817
195566886257625,2.036501,0.1160644,0.048258353,0.099571034
195566894196048,2.044439,0.11789699,0.032986723,0.06414085
195566902231240,2.052474,0.11789699,0.026267206,0.034208454
195566910244087,2.060487,0.12095132,0.029932396,0.004276057
195566918245125,2.068488,0.12095132,0.03726278,-0.010995574
195566926328856,2.076572,0.12217305,0.045814894,-0.02321288
195566934280202,2.084523,0.11911872,0.06780604,-0.05009095
195566942274317,2.092517,0.115453534,0.08246681,-0.077579886
195566950321663,2.100565,0.10934488,0.10995574,-0.12034045
195566958308702,2.108552,0.09407325,0.16493362,-0.18325958
195566966426432,2.116670,0.08307768,0.21563543,-0.2302962
195566974362894,2.124606,0.06536258,0.27183503,-0.28221974
195566982396202,2.132639,0.065973446,0.29626966,-0.32559118
195566990413202,2.140656,0.070249505,0.3042109,-0.3652974
195566998413817,2.148657,0.07819075,0.30665436,-0.41416663
195567006494202,2.156737,0.08552113,0.3042109,-0.45081854
195567014442432,2.164686,0.08979719,0.28893927,-0.4886922
195567022438625,2.172682,0.08735373,0.28405234,-0.5381723
195567030484625,2.180728,0.080634214,0.2950479,-0.5656612
195567038472971,2.188716,0.07147124,0.30909783,-0.5876524
195567046597855,2.196841,0.07147124,0.29871312,-0.5882632
195567054533586,2.204777,0.07269296,0.2919936,-0.57910025
195567062566894,2.212810,0.07880162,0.2779437,-0.5705481
195567070578971,2.220822,0.086132,0.25534168,-0.5674938
195567078577971,2.228821,0.09101892,0.23640485,-0.5558874
195567086657240,2.236900,0.09896017,0.21930063,-0.53878313
195567094604778,2.244848,0.100792766,0.20708331,-0.5216789
195567102606009,2.252849,0.09040806,0.18448131,-0.5021312
195567110651740,2.260895,0.07941248,0.17531833,-0.49846604
195567118636663,2.268880,0.064751714,0.17165314,-0.51007247
195567126769047,2.277012,0.04153884,0.18997909,-0.55833083
195567134703855,2.284947,0.021380283,0.22418754,-0.6169739
195567142733816,2.292977,0.012217305,0.2742785,-0.68111473
195567150748355,2.300992,0.009162978,0.3481932,-0.7696902
195567158746086,2.308989,0.007941248,0.39522982,-0.8338311
195567166828162,2.317071,0.009162978,0.44165558,-0.9034697
195567174774316,2.325017,0.009162978,0.46486846,-0.9309586
195567182784355,2.333028,0.0036651916,0.46609017,-0.93645644
195567190830316,2.341073,-0.01160644,0.43554693,-0.91690874
195567198844278,2.349087,-0.03359759,0.398895,-0.893085
195567206962047,2.357205,-0.065973446,0.36163223,-0.88208944
195567214897432,2.365141,-0.10995574,0.33353242,-0.89919364
195567222928970,2.373172,-0.13988814,0.32436943,-0.93584555
195567230943778,2.381187,-0.15943582,0.32436943,-0.98837996
195567238942162,2.389185,-0.15271631,0.33292156,-1.0598512
195567247021393,2.397265,-0.1563815,0.226631,-1.133155
195567254970893,2.405214,-0.12705997,0.15271631,-1.1502593
195567262995354,2.413239,-0.1441642,0.2284636,-1.1074986
195567271030624,2.421274,-0.16126843,0.24007004,-1.0500773
195567279017547,2.429261,-0.16432275,0.18692477,-0.98532563
195567287176431,2.437420,-0.1600467,0.16615535,-0.9896017
195567295112200,2.445355,-0.14905111,0.20586158,-1.0390818
195567303144700,2.453388,-0.086132,0.2657264,-1.1276573
195567311148316,2.461391,-0.07574729,0.32803464,-1.2278391
195567319147508,2.469391,-0.16554448,0.408058,-1.396438
195567327225816,2.477469,-0.26389378,0.4728097,-1.5192219
195567335174162,2.485417,-0.3475823,0.5271767,-1.6291776
195567343213508,2.493457,-0.42332962,0.5021312,-1.7672331
195567351255739,2.501499,-0.4605924,0.43188173,-1.8637499
195567359241123,2.509484,-0.48075095,0.35796702,-1.9285016
195567367347739,2.517591,-0.4783075,0.27977628,-1.9761491
195567375281277,2.525524,-0.45265114,0.23701571,-1.9730947
195567383388239,2.533631,-0.41233405,0.17654006,-1.9394971
195567391424546,2.541668,-0.38789943,0.12339478,-1.9168952
195567399422969,2.549666,-0.37995818,0.06047566,-1.9156734
195567407502969,2.557746,-0.41599923,-0.03970624,-1.9321668
195567415449854,2.565693,-0.37018433,0.12095132,-1.8197676
195567423438200,2.573681,-0.2968805,0.42638394,-1.6621643
195567431461085,2.581704,-0.2003638,0.6096435,-1.4330899
195567439445354,2.589689,-0.1600467,0.4605924,-1.282817
195567447559469,2.597803,-0.172264,-0.01282817,-1.0800097
195567455494238,2.605737,-0.18081611,-0.17348573,-0.8888089
195567463526431,2.613770,-0.16310102,-0.089186326,-0.6469063
195567471517931,2.621761,-0.08307768,0.13255776,-0.29443705
195567479515123,2.629758,-0.030543262,0.21135938,-0.089186326
195567487594777,2.637838,-0.021380283,0.18020524,0.028099801
195567495543084,2.645786,-0.044593163,0.086132,0.052534413
195567503542700,2.653786,-0.09468412,-0.005497787,0.004886922
195567511565892,2.661809,-0.13316862,-0.049480084,-0.055588737
195567519550892,2.669794,-0.10934488,-0.04642576,-0.025045475
195567527655892,2.677899,-0.007330383,-0.025045475,0.07269296
195567535592084,2.685835,0.20219639,-0.10567969,0.28344148
195567543622430,2.693866,0.36163223,-0.22602014,0.44165558
195567551614276,2.701857,0.4447099,-0.42394048,0.5222898
195567559613238,2.709856,0.41783184,-0.61575216,0.4605924
195567567692584,2.717936,0.36346483,-0.6621779,0.34269542
195567575640392,2.725884,0.34330627,-0.61208695,0.21013765
195567583653699,2.733897,0.43493605,-0.43066,0.07880162
195567591687661,2.741931,0.5876524,-0.3109304,0.058643065
195567599673276,2.749916,0.84482664,-0.3023783,0.14172074
195567607767699,2.758011,1.0262536,-0.46120325,0.27672195
195567615703276,2.765946,1.2046263,-0.8258898,0.4783075
195567623736584,2.773980,1.4001031,-1.4837917,0.83016586
195567631729122,2.781972,1.4935656,-1.7953329,1.1349876
195567639727738,2.789971,1.4776831,-1.8625281,1.4514158
195567647805853,2.798049,1.0916162,-1.6077974,1.8307631
195567655753968,2.805997,0.47586402,-1.2986995,2.0372355
195567663739699,2.813983,-0.47403142,-1.074512,2.212554
195567671762814,2.822006,-0.82894415,-1.0635164,2.3457224
195567679748584,2.829992,-0.86315256,-1.1905763,2.4776695
195567687844468,2.838088,-0.7770206,-1.4587462,2.624277
195567695779353,2.846023,-0.8020661,-1.5693128,2.669481
195567703810353,2.854054,-0.816116,-1.5210545,2.6688702
195567711801199,2.862044,-0.6597345,-1.2498302,2.6261096
195567719799122,2.870042,-0.48747048,-1.0775663,2.5576928
195567727877968,2.878121,-0.34697145,-1.1264355,2.5149322
195567735854314,2.886097,-0.3475823,-1.4941764,2.5460863
195567743880814,2.894124,-0.46181414,-1.7739527,2.6273315
195567751913929,2.902157,-0.6432411,-2.0237966,2.8179214
195567759901045,2.910144,-0.77763146,-1.8093829,2.9321532
195567768012929,2.918256,-0.8717047,-1.6530013,2.9425378
195567775947852,2.926191,-0.89675015,-1.4935656,2.8112018
195567783979545,2.934223,-0.87781334,-1.3151928,2.6951375
195567791970775,2.942214,-0.75441855,-1.0317514,2.5540276
195567799969775,2.950213,-0.5681047,-0.81122905,2.2565362
195567808047929,2.958291,-0.42760566,-0.90469146,2.0176878
195567815995275,2.966238,-0.22113322,-0.90285885,1.8142698
195567823984583,2.974228,-0.10445796,-0.8313876,1.7195857
195567832087737,2.982331,-0.044593163,-0.7733554,1.6542231
195567840096006,2.990339,-0.040927973,-0.6579019,1.5839735
195567848160160,2.998403,-0.037873644,-0.45448375,1.4935656
195567856095391,3.006339,0.014049901,0.06719518,1.2779301
195567864145468,3.014389,0.073303826,0.7147123,1.078788
195567872152314,3.022395,0.1600467,1.0989466,0.99265605
195567880148660,3.030392,0.36041048,1.3982705,0.90102625
195567888246852,3.038490,0.52290064,1.4556919,0.8765916
195567896256737,3.046500,0.63224554,1.4446963,0.85154617
195567904309352,3.054553,0.66156703,1.3371841,0.83077675
195567912396390,3.062640,0.6096435,1.1826351,0.8356637
195567920381929,3.070625,0.5308419,1.0140363,0.86498517
195567928494198,3.078737,0.3885103,0.8179486,0.91507614
195567936428929,3.086672,0.2883284,0.73426,0.9272934
195567944470967,3.094714,0.20769419,0.6536258,0.9193522
195567952565659,3.102809,0.17470746,0.5833763,0.9126327
195567960642275,3.110885,0.1386664,0.5155703,0.91813046
195567968750236,3.118993,0.13744467,0.43066,0.8906415
195567976697044,3.126940,0.14538592,0.4392121,0.83016586
195567984697967,3.134941,0.14538592,0.49296826,0.70738196
195567992759005,3.143002,0.1740966,0.5369505,0.59620446
195568000823505,3.151067,0.20341812,0.5864306,0.46853364
195568008987813,3.159231,0.21746802,0.6963864,0.30115658
195568016937928,3.167181,0.22296582,0.7593055,0.19120082
195568024970159,3.175213,0.23151793,0.7666359,0.09468412
195568032973621,3.183217,0.24740042,0.7153232,0.0067195175
195568040971505,3.191215,0.25961772,0.6432411,-0.025045475
195568049050928,3.199294,0.23762658,0.5137377,-0.017715093
195568056999467,3.207243,0.21685717,0.40133846,0.026267206
195568065011005,3.215254,0.19547687,0.28221974,0.086132
195568073047928,3.223291,0.15027285,0.10995574,0.16920967
195568081033736,3.231277,0.12522738,0.0,0.22479841
195568089140159,3.239383,0.118507855,-0.06047566,0.2565634
195568097075967,3.247319,0.12156218,-0.056199603,0.26328292
195568105104851,3.255348,0.13561209,-0.02565634,0.25167647
195568113117736,3.263361,0.15149458,0.04642576,0.23640485
195568121111851,3.271355,0.15515977,0.10445796,0.22235495
195568129189697,3.279433,0.14905111,0.15210545,0.19975294
195568137135697,3.287379,0.1441642,0.20097467,0.15210545
195568145154428,3.295398,0.13683382,0.22235495,0.111177474
195568153200466,3.303444,0.13255776,0.22113322,0.06658431
195568161185582,3.311429,0.1301143,0.16676621,6.1086525E-4
195568169305005,3.319548,0.11301007,0.13561209,-0.040927973
195568177238620,3.327482,0.08307768,0.1386664,-0.059253927
195568185270005,3.335513,0.051923547,0.15454891,-0.04642576
195568193283543,3.343527,0.043982297,0.1441642,-0.012217305
195568201280735,3.351524,0.03359759,0.12889257,0.049480084
195568209359774,3.359603,0.022602014,0.14538592,0.09896017
195568217309466,3.367553,0.023823744,0.16126843,0.14355333
195568225336774,3.375580,0.053145275,0.15210545,0.17898351
195568233381928,3.383625,0.07941248,0.13255776,0.18387043
195568241368235,3.391611,0.10445796,0.12339478,0.172264
195568249484120,3.399727,0.13255776,0.1563815,0.15210545
195568257417735,3.407661,0.15454891,0.19242255,0.14110987
195568265478658,3.415722,0.16615535,0.20708331,0.13133603
195568273494043,3.423737,0.15882497,0.21380283,0.13988814
195568281491274,3.431734,0.13927728,0.22235495,0.1563815
195568289572466,3.439816,0.124005646,0.23090707,0.17837265
195568297520389,3.447764,0.12095132,0.22724187,0.18753563
195568305505581,3.455749,0.12461651,0.2284636,0.18997909
195568313587081,3.463830,0.13439035,0.2510656,0.1704314
195568321571735,3.471815,0.14966199,0.27672195,0.15454891
195568329687812,3.479931,0.17348573,0.31520647,0.14355333
195568337622735,3.487866,0.18753563,0.35369098,0.14782938
195568345663235,3.495906,0.19242255,0.38973203,0.15882497
195568353717696,3.503961,0.1966986,0.46303585,0.1863139
195568361715889,3.511959,0.19730948,0.50946164,0.21013765
195568369805581,3.520049,0.19853121,0.54550266,0.22785273
195568377803312,3.528046,0.19853121,0.5564982,0.23273966
195568385798427,3.536042,0.18448131,0.54550266,0.22418754
195568393891850,3.544135,0.16065755,0.5143485,0.22418754
195568401875773,3.552119,0.1459968,0.46303585,0.22907446
195568409992196,3.560235,0.12705997,0.39767328,0.24678956
195568417927042,3.568170,0.10445796,0.2919936,0.27550024
195568425968081,3.576211,0.09712757,0.20952678,0.28893927
195568434005619,3.584249,0.0983493,0.14110987,0.28710666
195568442002581,3.592246,0.108123146,0.09040806,0.28710666
195568450093465,3.600337,0.10629055,0.07574729,0.28588495
195568458095504,3.608339,0.11789699,0.09162979,0.27488935
195568466166542,3.616410,0.1160644,0.111177474,0.25961772
195568474271811,3.624515,0.10629055,0.1337795,0.25228736
195568482287965,3.632531,0.08857546,0.15577064,0.26633725
195568490425811,3.640669,0.07941248,0.15454891,0.28038713
195568498384504,3.648628,0.08124508,0.15454891,0.27488935
195568506463427,3.656707,0.09162979,0.15943582,0.25778514
195568514500657,3.664744,0.099571034,0.15882497,0.23090707
195568522524350,3.672768,0.09896017,0.15027285,0.20158553
195568530651927,3.680895,0.081855945,0.15332718,0.19364429
195568538599273,3.688842,0.05681047,0.16249016,0.19303341
195568546610696,3.696854,0.04153884,0.1600467,0.20647246
195568554692965,3.704936,0.040927973,0.14905111,0.2180789
195568562677003,3.712920,0.03726278,0.11362094,0.23151793
195568570792311,3.721035,0.032986723,0.10323623,0.24556783
195568578727426,3.728971,0.03176499,0.0983493,0.25289822
195568586760042,3.737003,0.021380283,0.08735373,0.25961772
195568594776080,3.745019,0.009162978,0.10262536,0.2742785
195568602772542,3.753016,0.004886922,0.11362094,0.29260445
195568610851503,3.761095,-6.1086525E-4,0.100792766,0.31642818
195568618799888,3.769043,0.0,0.08368854,0.33353242
195568626785349,3.777029,-0.0012217305,0.06047566,0.3567453
195568634829388,3.785073,-0.004886922,0.03848451,0.36102137
195568642812003,3.793055,-0.004276057,0.02076942,0.35002577
195568650920695,3.801164,-0.0036651916,0.047036625,0.32070425
195568658851811,3.809095,-0.0018325958,0.065973446,0.29016098
195568666902734,3.817146,-0.004276057,0.08246681,0.25717425
195568674989426,3.825233,-0.013439035,0.105068825,0.22052236
195568682985003,3.833228,-0.01038471,0.12461651,0.20586158
195568691065080,3.841308,0.0067195175,0.1142318,0.20891592
195568699012464,3.849256,0.007941248,0.086132,0.22968534
195568707037080,3.857280,0.010995574,0.07269296,0.26145032
195568715079310,3.865322,0.014660766,0.053145275,0.30298916
195568723062233,3.873305,0.026267206,0.03604105,0.32436943
195568731173503,3.881417,0.029321533,0.031154128,0.3390302
195568739130003,3.889373,0.039095376,0.03604105,0.34269542
195568747172887,3.897416,0.05009095,0.030543262,0.3304781
195568755183772,3.905427,0.06352998,0.026267206,0.2950479
195568763181233,3.913424,0.070249505,0.03176499,0.2742785
195568771259195,3.921502,0.073303826,0.025045475,0.26328292
195568779206118,3.929449,0.084910266,-0.007941248,0.2687807
195568787201002,3.937444,0.08674286,-0.02321288,0.28588495
195568795244002,3.945487,0.08124508,-0.035430185,0.30665436
195568803229079,3.953472,0.07147124,-0.062308256,0.32986724
195568811345502,3.961589,0.06841691,-0.073303826,0.33841935
195568819278349,3.969522,0.06841691,-0.06719518,0.3323107
195568827304656,3.977548,0.077579886,-0.049480084,0.3213151
195568835313656,3.985557,0.089186326,-0.02443461,0.31337386
195568843305579,3.993549,0.100792766,0.015882496,0.30604348
195568851383310,4.001626,0.10751228,0.03176499,0.2919936
195568859332079,4.009575,0.11362094,0.0421497,0.26083946
195568867326887,4.017570,0.11728613,0.05009095,0.18997909
195568875366079,4.025609,0.118507855,0.056199603,0.13194689
195568883347194,4.033590,0.116675265,0.047647487,0.09040806
195568891457733,4.041701,0.119729586,0.019547688,0.06841691
195568899390502,4.049634,0.11484267,0.004276057,0.07696902
195568907421233,4.057664,0.11728613,0.0,0.10751228
195568915434079,4.065677,0.12034045,-0.012217305,0.1301143
195568923432694,4.073676,0.12461651,-0.01160644,0.15210545
195568931512310,4.081755,0.1142318,0.0018325958,0.16676621
195568939484771,4.089728,0.095294975,0.012217305,0.16371189
195568947539079,4.097782,0.073303826,0.021380283,0.15332718
195568955622579,4.105866,0.037873644,0.04153884,0.14355333
195568963606656,4.113850,0.02076942,0.047647487,0.1441642
195568971724733,4.121968,0.02076942,0.04153884,0.14294247
195568979689156,4.129932,0.02321288,0.04642576,0.14477506
195568987800156,4.138043,0.028099801,0.058643065,0.15332718
195568995880002,4.146123,0.04520403,0.06536258,0.14966199
195569003876963,4.154120,0.056199603,0.065973446,0.12950343
195569012022579,4.162266,0.05497787,0.07880162,0.10934488
195569020050617,4.170294,0.05497787,0.077579886,0.1001819
195569028092155,4.178335,0.05009095,0.06780604,0.09407325
195569036167386,4.186411,0.035430185,0.056199603,0.10445796
195569044233001,4.194476,0.02565634,0.040927973,0.1160644
195569052424578,4.202668,0.01282817,0.01038471,0.10995574
195569060359348,4.210603,0.01038471,-0.008552114,0.09101892
195569068390040,4.218633,0.0030543262,-0.017104227,0.059864793
195569076402424,4.226646,-0.0061086523,-0.02321288,0.010995574
195569084399194,4.234642,-0.014660766,-0.016493361,-0.028099801
195569092476617,4.242720,-0.028710667,0.0,-0.06352998
195569100442732,4.250686,-0.03359759,0.02687807,-0.09101892
195569108521501,4.258765,-0.036651913,0.031154128,-0.100792766
195569116633617,4.266877,-0.03848451,0.037873644,-0.09468412
195569124617270,4.274860,-0.039095376,0.032375857,-0.08368854
195569132731078,4.282974,-0.03848451,0.013439035,-0.07941248
195569140665117,4.290908,-0.039095376,-0.009773844,-0.08307768
195569148695040,4.298938,-0.03481932,-0.017715093,-0.095294975
195569156746732,4.306990,-0.029932396,-0.029932396,-0.11301007
195569164770847,4.315014,-0.017104227,-0.05009095,-0.13561209
195569172909270,4.323152,-0.007941248,-0.065973446,-0.15271631
195569180855039,4.331098,-0.002443461,-0.086132,-0.17287487
195569188959655,4.339203,-0.0030543262,-0.09712757,-0.18570304
195569197084616,4.347328,-0.005497787,-0.10323623,-0.18753563
195569205150270,4.355393,-0.015882496,-0.08979719,-0.16737708
195569213339732,4.363583,-0.015271631,-0.06658431,-0.15027285
195569221354078,4.371597,-0.02321288,-0.047647487,-0.13988814
195569229486308,4.379729,-0.03176499,-0.03604105,-0.1386664
195569237446193,4.387689,-0.04337143,-0.018936822,-0.15577064
195569245443270,4.395686,-0.049480084,-0.020158553,-0.20219639
195569253568193,4.403811,-0.047647487,-0.03604105,-0.24373524
195569261594347,4.411838,-0.058643065,-0.05375614,-0.28038713
195569269584308,4.419827,-0.06414085,-0.054367006,-0.29443705
195569277629078,4.427872,-0.06352998,-0.05497787,-0.3005457
195569285624847,4.435868,-0.05375614,-0.03604105,-0.29260445
195569293775270,4.444018,-0.040927973,-0.027488936,-0.27916542
195569301751577,4.451995,-0.021380283,-0.026267206,-0.27183503
195569309818462,4.460062,-0.004886922,-0.036651913,-0.2706133
195569317888270,4.468131,6.1086525E-4,-0.05131268,-0.2724459
195569325896847,4.476140,0.0,-0.077579886,-0.27122417
195569333982116,4.484225,-0.002443461,-0.093462385,-0.2687807
195569342009462,4.492253,0.0,-0.10751228,-0.26145032
195569350056385,4.500300,0.007941248,-0.1142318,-0.25900686
195569358155923,4.508399,0.02443461,-0.116675265,-0.25411993
195569366141962,4.516385,0.050701816,-0.1142318,-0.2510656
195569374321346,4.524565,0.07147124,-0.10323623,-0.25411993
195569382259308,4.532502,0.08307768,-0.08124508,-0.27122417
195569390289539,4.540533,0.09162979,-0.06414085,-0.31703907
195569398300077,4.548543,0.09896017,-0.050701816,-0.3640757
195569406366385,4.556610,0.09285152,-0.026267206,-0.41355577
195569414492462,4.564736,0.06414085,0.009162978,-0.453262
195569422437423,4.572681,0.050701816,0.02565634,-0.45081854
195569430435577,4.580679,0.023823744,0.026267206,-0.38728857
195569438492654,4.588736,-0.004276057,0.02076942,-0.3023783
195569446477115,4.596720,-0.026267206,0.002443461,-0.20219639
195569454580115,4.604823,-0.06047566,-0.045814894,-0.0720821
195569462514923,4.612758,-0.08674286,-0.096516706,0.023823744
195569470547846,4.620791,-0.11789699,-0.15577064,0.11301007
195569478552154,4.628795,-0.14172074,-0.23884831,0.20280726
195569486551000,4.636794,-0.15088372,-0.30787608,0.24617869
195569494630000,4.644873,-0.16126843,-0.3915646,0.27672195
195569502582154,4.652825,-0.17348573,-0.42821655,0.29138273
195569510596230,4.660839,-0.19914207,-0.42760566,0.2919936
195569518640884,4.668884,-0.22357668,-0.37873647,0.27366763
195569526625423,4.676869,-0.24007004,-0.3323107,0.25167647
195569534741923,4.684985,-0.24862215,-0.2846632,0.21991149
195569542677692,4.692921,-0.2510656,-0.21991149,0.1685988
195569550708000,4.700951,-0.24801129,-0.18509217,0.13072516
195569558721384,4.708965,-0.22540927,-0.17470746,0.08002335
195569566717153,4.716960,-0.20341812,-0.18142697,0.04886922
195569574795615,4.725039,-0.18997909,-0.20280726,0.028099801
195569582747961,4.732991,-0.16615535,-0.24373524,0.026267206
195569590753653,4.740997,-0.15210545,-0.27855456,0.032986723
195569598798615,4.749042,-0.14172074,-0.3005457,0.043982297
195569606784576,4.757028,-0.12705997,-0.31215215,0.059864793
195569614900461,4.765144,-0.10934488,-0.3109304,0.076358154
195569622836692,4.773080,-0.086132,-0.3005457,0.09040806
195569630867692,4.781111,-0.047647487,-0.28893927,0.10323623
195569638880115,4.789123,-0.02321288,-0.29565877,0.11301007
195569646876922,4.797120,-0.0067195175,-0.30665436,0.13194689
195569654975384,4.805219,-0.01038471,-0.3268129,0.13988814
195569662923076,4.813166,-0.018936822,-0.36102137,0.13500121
195569670950922,4.821194,-0.03848451,-0.4166101,0.105068825
195569679008614,4.829252,-0.051923547,-0.44959682,0.073303826
195569686993961,4.837237,-0.058643065,-0.46853364,0.044593163
195569695110922,4.845354,-0.05681047,-0.4654793,0.02076942
195569703045268,4.853288,-0.043982297,-0.45020768,0.0036651916
195569711076076,4.861319,-0.02687807,-0.43127087,-0.023823744
195569719089845,4.869333,-0.02076942,-0.4098906,-0.03970624
195569727087883,4.877331,-0.01038471,-0.398895,-0.053145275
195569735165422,4.885409,0.0,-0.41722095,-0.069027774
195569743113730,4.893357,-6.1086525E-4,-0.44593164,-0.07269296
195569751099614,4.901343,-0.0036651916,-0.47342056,-0.064751714
195569759143999,4.909387,-0.015882496,-0.50701815,-0.050701816
195569767129691,4.917373,-0.025045475,-0.5198463,-0.047036625
195569775247576,4.925491,-0.03481932,-0.52290064,-0.065973446
195569783182960,4.933426,-0.050701816,-0.51923543,-0.09162979
195569791213768,4.941457,-0.07819075,-0.5009095,-0.1160644
195569799227460,4.949471,-0.11911872,-0.46914452,-0.12644911
195569807225345,4.957469,-0.14782938,-0.44226643,-0.12034045
195569815370614,4.965614,-0.17287487,-0.4166101,-0.10629055
195569823398306,4.973641,-0.1881465,-0.37812558,-0.09162979
195569831435191,4.981678,-0.17715092,-0.34697145,-0.09101892
195569839561922,4.989805,-0.13988814,-0.32436943,-0.116675265
195569847627691,4.997871,-0.11056661,-0.30970868,-0.14294247
195569855825229,5.006068,-0.08857546,-0.3042109,-0.16126843
195569863764345,5.014008,-0.07086037,-0.2932153,-0.17898351
195569871876075,5.022119,-0.056199603,-0.29077184,-0.18692477
195569879967998,5.030211,-0.03604105,-0.29810223,-0.18142697
195569888044537,5.038288,-0.02443461,-0.2968805,-0.16982053
195569896203652,5.046447,-0.014660766,-0.28405234,-0.1441642
195569904231306,5.054474,-0.0067195175,-0.2761111,-0.10140363
195569912314229,5.062557,0.005497787,-0.2883284,-0.08307768
195569920440498,5.070684,0.018936822,-0.29565877,-0.07819075
195569928507613,5.078751,0.029321533,-0.2968805,-0.08307768
195569936624306,5.086867,0.03604105,-0.29871312,-0.0842994
195569944558998,5.094802,0.049480084,-0.30604348,-0.07819075
195569952587498,5.102831,0.055588737,-0.30909783,-0.076358154
195569960621575,5.110865,0.059864793,-0.2932153,-0.06719518
195569968625421,5.118869,0.06352998,-0.28527406,-0.05681047
195569976784036,5.127027,0.06536258,-0.2883284,-0.044593163
195569984810883,5.135054,0.054367006,-0.28893927,-0.031154128
195569992899921,5.143143,0.043982297,-0.29443705,-0.028710667
195570000979959,5.151223,0.040317107,-0.29443705,-0.02687807
195570008963459,5.159207,0.047647487,-0.28893927,-0.028099801
195570017147382,5.167391,0.0580322,-0.2742785,-0.028099801
195570025163075,5.175406,0.0720821,-0.24007004,-0.008552114
195570033269575,5.183513,0.07513642,-0.20586158,0.02443461
195570041362767,5.191606,0.086132,-0.18448131,0.059253927
195570049432459,5.199676,0.096516706,-0.18753563,0.07452556
195570057593267,5.207836,0.09896017,-0.19792034,0.07452556
195570065621344,5.215865,0.1020145,-0.24190263,0.061086524
195570073674959,5.223918,0.100792766,-0.2773328,0.03970624
195570081799998,5.232043,0.092240654,-0.2938262,0.0030543262
195570089865305,5.240108,0.081855945,-0.28955013,-0.019547688
195570098059497,5.248303,0.07513642,-0.27488935,-0.030543262
195570106072228,5.256315,0.07696902,-0.23945917,-0.02565634
195570114181228,5.264424,0.08368854,-0.20463985,-0.017104227
195570122274305,5.272517,0.09162979,-0.15088372,0.005497787
195570130350036,5.280593,0.103847094,-0.10995574,0.02321288
195570138483574,5.288727,0.12522738,-0.08857546,0.032375857
195570146509036,5.296752,0.15393804,-0.07941248,0.02565634
195570154622036,5.304865,0.16798794,-0.08857546,0.015271631
195570162701959,5.312945,0.1740966,-0.11362094,0.007941248
195570170767959,5.321011,0.16737708,-0.1301143,0.0067195175
195570178926766,5.329170,0.15515977,-0.1459968,0.008552114
195570186911959,5.337155,0.14049901,-0.16493362,0.01038471
195570195018574,5.345262,0.13683382,-0.16371189,0.012217305
195570203112843,5.353356,0.14477506,-0.12583824,0.0012217305
195570211191266,5.361434,0.15454891,-0.086132,-0.017715093
195570219313035,5.369556,0.16310102,-0.03970624,-0.030543262
195570227332420,5.377576,0.15821409,0.022602014,-0.034208454
195570235399458,5.385643,0.15210545,0.06047566,-0.02687807
195570243524997,5.393768,0.1600467,0.09468412,-0.017104227
195570251589612,5.401833,0.172264,0.08674286,-0.0030543262
195570259786458,5.410030,0.18692477,0.06352998,0.021380283
195570267763305,5.418006,0.21074851,0.016493361,0.059253927
195570275874497,5.426118,0.22174409,-0.021380283,0.087964594
195570283966689,5.434210,0.22052236,-0.03481932,0.12950343
195570292038304,5.442281,0.21563543,-0.030543262,0.1563815
195570300171612,5.450415,0.2144137,-0.013439035,0.17470746
195570308197843,5.458441,0.22174409,0.0061086523,0.17837265
195570316277189,5.466520,0.22785273,0.025045475,0.1600467
195570324400920,5.474644,0.24129178,0.069027774,0.111177474
195570332466112,5.482709,0.24190263,0.10323623,0.07696902
195570340663150,5.490906,0.23579398,0.12034045,0.06169739
195570348677997,5.498921,0.21868975,0.13072516,0.059253927
195570356787689,5.507031,0.20463985,0.13805555,0.06780604
195570364880535,5.515124,0.18692477,0.15210545,0.089186326
195570372957458,5.523201,0.18081611,0.15454891,0.10262536
195570381123189,5.531366,0.1826487,0.14905111,0.108123146
195570389148689,5.539392,0.19608775,0.13500121,0.09468412
195570397212804,5.547456,0.21135938,0.13072516,0.07696902
195570405336689,5.555580,0.22052236,0.124005646,0.04642576
195570413399381,5.563643,0.21685717,0.119729586,0.03359759
195570421593919,5.571837,0.204029,0.1282817,0.03604105
195570429607304,5.579850,0.1863139,0.16187929,0.06291912
195570437717227,5.587960,0.1863139,0.19792034,0.09590584
195570445804765,5.596048,0.19792034,0.23823744,0.14782938
195570453878842,5.604122,0.21930063,0.2565634,0.17959438
195570462037035,5.612280,0.24251351,0.27183503,0.19914207
195570470062188,5.620305,0.2687807,0.2864958,0.22052236
195570478158458,5.628402,0.28405234,0.29138273,0.2284636
195570486253034,5.636496,0.29077184,0.29565877,0.23945917
195570494316381,5.644560,0.29077184,0.29932398,0.25473082
195570502520611,5.652764,0.28588495,0.30543262,0.27305678
195570510532457,5.660776,0.2883284,0.31948254,0.28160888
195570518641227,5.668884,0.29810223,0.3323107,0.27305678
195570526732304,5.676975,0.312763,0.35979962,0.24617869
195570534808496,5.685052,0.31337386,0.37873647,0.22479841
195570542967842,5.693211,0.31398472,0.40378192,0.21319197
195570550994111,5.701237,0.31520647,0.4373795,0.20341812
195570559058457,5.709302,0.31398472,0.4538729,0.1966986
195570567183073,5.717426,0.31398472,0.4654793,0.18875736
195570575269380,5.725513,0.312763,0.45998153,0.17837265
195570583404419,5.733648,0.3115413,0.44837508,0.1600467
195570591416611,5.741660,0.30726522,0.43127087,0.12217305
195570599524957,5.749768,0.3023783,0.40622538,0.09285152
195570607616572,5.757860,0.29443705,0.37812558,0.065973446
195570615692226,5.765935,0.2883284,0.35430184,0.04520403
195570623850072,5.774093,0.27366763,0.35369098,0.028099801
195570631875380,5.782119,0.25289822,0.39095375,0.02321288
195570639980303,5.790223,0.23762658,0.43493605,0.03176499
195570648104188,5.798347,0.22602014,0.50518554,0.05375614
195570656168611,5.806412,0.2284636,0.5552765,0.07391469
195570664356611,5.814600,0.24495697,0.6035349,0.122783914
195570672370418,5.822614,0.25961772,0.6206391,0.16737708
195570680481534,5.830725,0.27488935,0.62125,0.20952678
195570688573341,5.838817,0.27916542,0.6047566,0.24678956
195570696650495,5.846894,0.26816985,0.5870415,0.26511553
195570704811149,5.855054,0.2443461,0.5644395,0.2742785
195570712838495,5.863082,0.2284636,0.5510005,0.2602286
195570720908149,5.871151,0.20952678,0.53878313,0.23701571
195570729033880,5.879277,0.1740966,0.5308419,0.20647246
195570737082726,5.887326,0.15760323,0.535118,0.19364429
195570745216957,5.895460,0.15088372,0.552833,0.18142697
195570753231418,5.903475,0.15210545,0.5687156,0.16432275
195570761303456,5.911547,0.15760323,0.58093286,0.14355333
195570769314956,5.919558,0.16920967,0.6035349,0.10995574
195570777327649,5.927571,0.17287487,0.6133087,0.089186326
195570785488341,5.935732,0.18081611,0.61391956,0.077579886
195570793515418,5.943759,0.19730948,0.59742624,0.0720821
195570801565879,5.951809,0.21197024,0.5742133,0.069027774
195570809620918,5.959864,0.23151793,0.5198463,0.069027774
195570817666264,5.967909,0.24373524,0.47952923,0.07819075
195570825841572,5.976085,0.25045475,0.4373795,0.09468412
195570833775379,5.984019,0.23640485,0.4007276,0.12705997
195570841854918,5.992098,0.21991149,0.40194935,0.1459968
195570849940187,6.000183,0.20463985,0.40561453,0.14172074
195570857955918,6.008199,0.19425514,0.4196644,0.11789699
195570866085225,6.016328,0.17898351,0.43371433,0.07880162
195570874033187,6.024276,0.15882497,0.44715336,0.005497787
195570882036379,6.032280,0.15332718,0.4428773,-0.06352998
195570890088571,6.040332,0.1459968,0.43676865,-0.1441642
195570898111764,6.048355,0.13316862,0.42943826,-0.24678956
195570906286648,6.056530,0.12583824,0.42943826,-0.3231477
195570914300148,6.064543,0.11362094,0.4092797,-0.41355577
195570922410956,6.072654,0.09896017,0.39400807,-0.4569272
195570930424187,6.080667,0.08246681,0.38056904,-0.4868596
195570938492725,6.088736,0.05681047,0.3585779,-0.5112942
195570946648763,6.096892,0.04153884,0.35369098,-0.5161811
195570954596571,6.104840,0.02565634,0.36774087,-0.49541172
195570962602340,6.112846,0.019547688,0.4025602,-0.4569272
195570970648956,6.120892,0.021380283,0.44226643,-0.4007276
195570978700802,6.128944,0.03970624,0.4813618,-0.30726522
195570986843417,6.137087,0.061086524,0.48258355,-0.24312437
195570994811340,6.145055,0.084910266,0.45814893,-0.17287487
195571002869148,6.153112,0.09773844,0.44165558,-0.12095132
195571010952225,6.161195,0.10873401,0.4092797,-0.06719518
195571019028071,6.169271,0.12461651,0.37751472,0.017104227
195571027187994,6.177431,0.13500121,0.3622431,0.080634214
195571035141071,6.185384,0.14049901,0.3640757,0.13439035
195571043158148,6.193401,0.14844026,0.36957347,0.18448131
195571051210648,6.201454,0.14721853,0.3744604,0.21135938
195571059274532,6.209518,0.13622294,0.38912117,0.23762658
195571067465417,6.217709,0.122783914,0.39828414,0.25045475
195571075411917,6.225655,0.108123146,0.39767328,0.25900686
195571083442455,6.233686,0.09468412,0.37751472,0.25961772
195571091458340,6.241702,0.086132,0.35063666,0.24617869
195571099464455,6.249708,0.06414085,0.31581733,0.22540927
195571107540840,6.257784,0.0421497,0.2950479,0.21685717
195571115484840,6.265728,0.02443461,0.267559,0.20769419
195571123507955,6.273751,0.002443461,0.22602014,0.18692477
195571131552917,6.281796,-0.008552114,0.20525073,0.16371189
195571139535878,6.289779,-0.015882496,0.19242255,0.14172074
195571147651493,6.297895,-0.02443461,0.17898351,0.12156218
195571155630532,6.305874,-0.03848451,0.1704314,0.119729586
195571163685955,6.313929,-0.06780604,0.16982053,0.13316862
195571171700109,6.321943,-0.100792766,0.18692477,0.1563815
195571179696724,6.329940,-0.12644911,0.21502456,0.18875736
195571187793647,6.338037,-0.14966199,0.24007004,0.22724187
195571195764224,6.346007,-0.16554448,0.2443461,0.24251351
195571203757532,6.354001,-0.17470746,0.24007004,0.24373524
195571211798032,6.362041,-0.1826487,0.2144137,0.23090707
195571219782455,6.370026,-0.19120082,0.19303341,0.22724187
195571227895916,6.378139,-0.20830505,0.16310102,0.24373524
195571235830032,6.386073,-0.22113322,0.14721853,0.26939157
195571243858955,6.394102,-0.2284636,0.13500121,0.29626966
195571251922955,6.402166,-0.22907446,0.13561209,0.312763
195571259919262,6.410162,-0.22052236,0.12950343,0.29749137
195571268079878,6.418323,-0.20830505,0.12950343,0.26083946
195571276026916,6.426270,-0.19730948,0.11056661,0.18997909
195571284022185,6.434265,-0.19303341,0.08552113,0.12644911
195571292110031,6.442353,-0.19547687,0.064751714,0.050701816
195571300109877,6.450353,-0.19914207,0.047036625,0.004886922
195571308225993,6.458469,-0.2003638,0.026267206,-0.030543262
195571316179301,6.466422,-0.20280726,0.008552114,-0.053145275
195571324210685,6.474454,-0.19486602,-0.0036651916,-0.06780604
195571332224339,6.482468,-0.18325958,-0.013439035,-0.08307768
195571340221108,6.490464,-0.14782938,-0.026267206,-0.10751228
195571348299839,6.498543,-0.12461651,-0.051923547,-0.12644911
195571356247223,6.506490,-0.10873401,-0.076358154,-0.13622294
195571364233031,6.514476,-0.10751228,-0.07513642,-0.13622294
195571372299993,6.522543,-0.11728613,-0.0720821,-0.13683382
195571380318185,6.530561,-0.13500121,-0.059864793,-0.1386664
195571388433954,6.538677,-0.14538592,-0.047036625,-0.14355333
195571396369108,6.546612,-0.14782938,-0.0421497,-0.15393804
195571404399723,6.554643,-0.13622294,-0.045814894,-0.18753563
195571412411954,6.562655,-0.11728613,-0.052534413,-0.22052236
195571420408646,6.570652,-0.08735373,-0.05375614,-0.26328292
195571428486954,6.578730,-0.06352998,-0.056199603,-0.2932153
195571436437492,6.586681,-0.040927973,-0.047647487,-0.31764993
195571444528300,6.594771,-0.019547688,-0.029321533,-0.344528
195571452655069,6.602898,-0.004276057,-0.040317107,-0.37140608
195571460658723,6.610902,0.009773844,-0.06291912,-0.40011674
195571468775261,6.619018,0.010995574,-0.08735373,-0.4269948
195571476755185,6.626998,0.0018325958,-0.09896017,-0.43066
195571484787069,6.635030,-0.004886922,-0.10445796,-0.41783184
195571492816838,6.643060,0.0018325958,-0.095294975,-0.39767328
195571500815223,6.651058,0.015271631,-0.089186326,-0.37751472
195571508894954,6.659138,0.05131268,-0.09712757,-0.36713
195571516853492,6.667097,0.07696902,-0.11178834,-0.37690386
195571524845723,6.675089,0.10445796,-0.13316862,-0.40317106
195571532957184,6.683200,0.14110987,-0.16798794,-0.44348818
195571540993761,6.691237,0.16798794,-0.1881465,-0.46120325
195571549123646,6.699367,0.19914207,-0.18753563,-0.45753807
195571557074607,6.707318,0.22052236,-0.18509217,-0.4465425
195571565170338,6.715414,0.23945917,-0.16737708,-0.4269948
195571573259800,6.723503,0.25289822,-0.11789699,-0.3848451
195571581266838,6.731510,0.24556783,-0.09040806,-0.33658674
195571589345684,6.739589,0.22296582,-0.07574729,-0.24984388
195571597292838,6.747536,0.19975294,-0.08246681,-0.1740966
195571605323184,6.755566,0.17592919,-0.1020145,-0.086132
195571613391569,6.763635,0.1600467,-0.14172074,0.043982297
195571621389607,6.771633,0.1600467,-0.17959438,0.14355333
195571629502684,6.779746,0.16310102,-0.20830505,0.23640485
195571637439030,6.787682,0.16493362,-0.22052236,0.3390302
195571645469222,6.795712,0.16371189,-0.22174409,0.3848451
195571653494107,6.803737,0.14355333,-0.21502456,0.4196644
195571661534992,6.811778,0.122783914,-0.20891592,0.43004912
195571669665261,6.819908,0.09773844,-0.19364429,0.43249258
195571677627184,6.827870,0.06169739,-0.17104226,0.42943826
195571685618030,6.835861,0.04153884,-0.15088372,0.42271876
195571693651761,6.843895,0.03176499,-0.13072516,0.4111123
195571701635876,6.851879,0.030543262,-0.09896017,0.3866777
195571709745607,6.859989,0.034208454,-0.07513642,0.36713
195571717695876,6.867939,0.034208454,-0.056199603,0.3408628
195571725743260,6.875986,0.029932396,-0.05009095,0.31703907
195571733782260,6.884025,0.02443461,-0.04337143,0.2828306
195571741841453,6.892085,0.013439035,-0.045814894,0.23640485
195571749920376,6.900164,0.0012217305,-0.057421334,0.20097467
195571757868376,6.908112,-0.002443461,-0.073303826,0.1600467
195571765868530,6.916112,-0.0067195175,-0.09162979,0.10140363
195571773915068,6.924158,-0.0036651916,-0.096516706,0.053145275
195571781900645,6.932144,-0.0061086523,-0.08674286,0.002443461
195571790026683,6.940270,-0.004276057,-0.06291912,-0.021991149
195571797961606,6.948205,-0.007941248,-0.039095376,-0.032986723
195571805991337,6.956235,-0.014660766,0.0012217305,-0.032986723
195571814001299,6.964244,-0.014660766,0.028099801,-0.021991149
195571821997376,6.972241,-0.018325957,0.037873644,-0.004886922
195571830075606,6.980319,-0.018936822,0.029932396,0.022602014
195571838024299,6.988267,-0.008552114,0.018936822,0.037873644
195571846035760,6.996279,0.009162978,-0.0036651916,0.058643065
195571854081452,7.004325,0.018325957,-0.02565634,0.086132
195571862065606,7.012309,0.018325957,-0.042760566,0.12950343
195571870180183,7.020423,0.01282817,-0.043982297,0.19425514
195571878114145,7.028357,0.009773844,-0.026267206,0.23762658
195571886182029,7.036425,0.004886922,0.0018325958,0.2773328
195571894251068,7.044494,0.0012217305,0.032986723,0.31948254
195571902253452,7.052497,0.008552114,0.049480084,0.33964106
195571910332106,7.060575,0.026267206,0.06780604,0.35002577
195571918299914,7.068543,0.029932396,0.07269296,0.3475823
195571926314337,7.076558,0.02565634,0.06841691,0.34147367
195571934353644,7.084597,0.005497787,0.05131268,0.32803464
195571942374490,7.092618,-0.018325957,0.03970624,0.312763
195571950511183,7.100754,-0.04520403,0.03359759,0.29077184
195571958446260,7.108689,-0.08368854,0.05497787,0.25534168
195571966477721,7.116721,-0.09896017,0.07391469,0.22968534
195571974491836,7.124735,-0.09590584,0.09407325,0.18692477
195571982489836,7.132733,-0.087964594,0.108123146,0.14966199
195571990568798,7.140812,-0.07513642,0.112399206,0.1142318
195571998515490,7.148759,-0.070249505,0.12034045,0.070249505
195572006540759,7.156784,-0.073303826,0.12583824,0.043982297
195572014586106,7.164829,-0.07880162,0.12583824,0.02565634
195572022570798,7.172814,-0.0720821,0.12095132,0.002443461
195572030686336,7.180930,-0.06352998,0.12034045,-0.02076942
195572038620875,7.188864,-0.04642576,0.11362094,-0.055588737
195572046651375,7.196895,-0.034208454,0.10873401,-0.08979719
195572054717875,7.204961,-0.026267206,0.115453534,-0.13561209
195572062796144,7.213039,-0.028710667,0.15515977,-0.20830505
195572070921182,7.221164,-0.032986723,0.20525073,-0.2602286
195572078868028,7.229111,-0.027488936,0.2828306,-0.312763
195572086893644,7.237137,-6.1086525E-4,0.37018433,-0.3744604
195572094936682,7.245180,0.031154128,0.42210788,-0.4166101
195572102921874,7.253165,0.0842994,0.46853364,-0.44898596
195572111034028,7.261277,0.12156218,0.46181414,-0.45448375
195572118967797,7.269211,0.14905111,0.42760566,-0.44104472
195572126996605,7.277240,0.16187929,0.36163223,-0.3921755
195572134998374,7.285242,0.15760323,0.31703907,-0.3231477
195572142993951,7.293237,0.15088372,0.2602286,-0.22602014
195572151086297,7.301329,0.1423316,0.16249016,-0.08124508
195572159037028,7.309280,0.13744467,0.106901415,0.021991149
195572167065105,7.317308,0.13194689,0.06414085,0.13683382
195572175118643,7.325362,0.13988814,0.042760566,0.19853121
195572183153105,7.333396,0.14660765,0.018936822,0.23640485
195572191273105,7.341516,0.14355333,0.0036651916,0.26450464
195572199278374,7.349522,0.13439035,0.0,0.27916542
195572207388951,7.357632,0.11911872,0.018325957,0.2968805
195572215472336,7.365716,0.111177474,0.045814894,0.3145956
195572223505528,7.373749,0.103847094,0.06719518,0.32375857
195572231649143,7.381892,0.09407325,0.095294975,0.32498032
195572239628335,7.389872,0.07941248,0.13622294,0.32559118
195572247642643,7.397886,0.06719518,0.16920967,0.31764993
195572255687528,7.405931,0.06047566,0.1826487,0.2938262
195572263672489,7.413916,0.06169739,0.17531833,0.26206118
195572271788335,7.422032,0.06780604,0.13988814,0.21502456
195572279721181,7.429964,0.07574729,0.11056661,0.17348573
195572287750720,7.437994,0.07941248,0.080634214,0.1301143
195572295762143,7.446005,0.093462385,0.04520403,0.07819075
195572303802566,7.454046,0.10323623,0.028099801,0.0421497
195572311881412,7.462125,0.112399206,0.023823744,0.012217305
195572319829258,7.470072,0.1301143,0.028099801,-0.014049901
195572327814412,7.478058,0.1386664,0.026267206,-0.02076942
195572335861489,7.486105,0.14110987,0.053145275,0.0
195572343846912,7.494090,0.13927728,0.07880162,0.028710667
195572351953720,7.502197,0.1386664,0.093462385,0.056199603
195572359889412,7.510133,0.1423316,0.09040806,0.07574729
195572367919527,7.518163,0.14782938,0.08552113,0.0720821
195572375932143,7.526175,0.15332718,0.07696902,0.059864793
195572383933489,7.534177,0.15882497,0.07147124,0.058643065
195572392069450,7.542313,0.14966199,0.07696902,0.06658431
195572400023296,7.550266,0.13255776,0.08552113,0.087964594
195572408042604,7.558286,0.116675265,0.092240654,0.10567969
195572416088066,7.566331,0.10140363,0.09285152,0.12034045
195572424073950,7.574317,0.08735373,0.124005646,0.14172074
195572432190258,7.582433,0.08552113,0.16126843,0.1563815
195572440125373,7.590369,0.093462385,0.17959438,0.16310102
195572448156335,7.598400,0.10140363,0.19058995,0.1600467
195572456170873,7.606414,0.09712757,0.18448131,0.15821409
195572464168604,7.614412,0.07880162,0.17104226,0.16187929
195572472248488,7.622492,0.06291912,0.15393804,0.16676621
195572480197373,7.630441,0.0421497,0.14660765,0.16798794
195572488183142,7.638426,0.014660766,0.15393804,0.17898351
195572496227027,7.646470,-6.1086525E-4,0.16982053,0.18509217
195572504212373,7.654456,-0.01160644,0.20097467,0.19120082
195572512335219,7.662578,-0.01038471,0.25350907,0.18142697
195572520270911,7.670514,-6.1086525E-4,0.27366763,0.16371189
195572528300604,7.678544,0.015271631,0.28405234,0.14905111
195572536313680,7.686557,0.03970624,0.28099802,0.13439035
195572544311873,7.694555,0.0580322,0.267559,0.13316862
195572552389834,7.702633,0.080634214,0.23457226,0.14966199
195572560372988,7.710616,0.084910266,0.2003638,0.17715092
195572568409603,7.718653,0.08124508,0.18875736,0.21563543
195572576454219,7.726697,0.08307768,0.19364429,0.25717425
195572584440257,7.734683,0.096516706,0.1863139,0.2657264
195572592555219,7.742798,0.122783914,0.18203785,0.24862215
195572600490488,7.750734,0.13927728,0.18081611,0.2180789
195572608520873,7.758764,0.15332718,0.1863139,0.18387043
195572616534719,7.766778,0.15882497,0.1826487,0.15454891
195572624533642,7.774777,0.14782938,0.17959438,0.15760323
195572632612257,7.782855,0.13255776,0.18692477,0.17898351
195572640558142,7.790801,0.10751228,0.20586158,0.22235495
195572648568565,7.798812,0.099571034,0.2284636,0.26083946
195572656636372,7.806880,0.103847094,0.24495697,0.2932153
195572664620065,7.814863,0.108123146,0.25778514,0.31581733
195572672736295,7.822979,0.108123146,0.2669481,0.3231477
195572680670872,7.830914,0.100792766,0.27550024,0.3390302
195572688717218,7.838960,0.09407325,0.2706133,0.35246924
195572696730334,7.846974,0.086132,0.25411993,0.3652974
195572704727141,7.854970,0.06658431,0.22296582,0.37507126
195572712822949,7.863066,0.05131268,0.20463985,0.37507126
195572720817680,7.871061,0.036651913,0.204029,0.36346483
195572728819987,7.879063,0.015271631,0.22785273,0.344528
195572736863141,7.887106,-0.0030543262,0.25900686,0.33414328
195572744847026,7.895090,-0.012217305,0.3005457,0.31642818
195572752964064,7.903207,-0.008552114,0.32559118,0.29443705
195572760926372,7.911170,0.0012217305,0.3323107,0.2687807
195572768955180,7.919198,0.0012217305,0.31215215,0.24129178
195572776969526,7.927213,-0.012217305,0.2919936,0.23457226
195572784966526,7.935210,-0.0421497,0.27305678,0.23640485
195572793046064,7.943289,-0.081855945,0.2706133,0.25473082
195572800994487,7.951238,-0.10323623,0.27855456,0.2706133
195572808997910,7.959241,-0.11911872,0.29626966,0.27000242
195572817041372,7.967285,-0.12339478,0.2932153,0.24495697
195572825026026,7.975269,-0.12217305,0.28588495,0.20891592
195572833142564,7.983386,-0.13500121,0.29749137,0.16065755
195572841077449,7.991321,-0.15027285,0.3115413,0.14049901
195572849134949,7.999378,-0.16676621,0.3323107,0.14172074
195572857213948,8.007457,-0.16493362,0.35918877,0.16432275
195572865210833,8.015454,-0.14966199,0.3567453,0.1704314
195572873290218,8.023533,-0.12644911,0.32375857,0.16065755
195572881237679,8.031481,-0.115453534,0.29749137,0.14049901
195572889299025,8.039542,-0.11484267,0.28710666,0.13988814
195572897383294,8.047626,-0.11911872,0.29565877,0.17654006
195572905367679,8.055611,-0.11362094,0.2919936,0.21013765
195572913483371,8.063727,-0.10262536,0.2846632,0.22907446
195572921432602,8.071676,-0.084910266,0.2724459,0.22174409
195572929464871,8.079708,-0.06719518,0.26450464,0.19242255
195572937477371,8.087721,-0.047647487,0.2443461,0.14721853
195572945474679,8.095718,-0.047036625,0.22479841,0.1142318
195572953586333,8.103830,-0.048258353,0.2125811,0.0842994
195572961589756,8.111833,-0.04520403,0.22174409,0.04520403
195572969645833,8.119889,-0.039095376,0.24007004,0.012217305
195572977688602,8.127932,-0.023823744,0.25595254,-0.029321533
195572985698679,8.135942,-0.004886922,0.27855456,-0.09162979
195572993894563,8.144138,0.0036651916,0.29138273,-0.1441642
195573001907679,8.152151,0.01282817,0.28160888,-0.23579398
195573009990025,8.160233,0.019547688,0.24556783,-0.312763
195573018013794,8.168257,0.020158553,0.22052236,-0.38240165
195573026067871,8.176311,0.017715093,0.19914207,-0.45081854
195573034206755,8.184450,0.02076942,0.1881465,-0.48624873
195573042218602,8.192462,0.02687807,0.16615535,-0.5222898
195573050247679,8.200491,0.035430185,0.14844026,-0.5326745
195573058281986,8.208525,0.04520403,0.13744467,-0.5314528
195573066267755,8.216511,0.049480084,0.1142318,-0.50885075
195573074372986,8.224616,0.03359759,0.08552113,-0.47158796
195573082362525,8.232606,0.0018325958,0.057421334,-0.38789943
195573090390717,8.240634,-0.035430185,0.0421497,-0.3042109
195573098390063,8.248633,-0.06719518,0.043982297,-0.21380283
195573106384524,8.256628,-0.08857546,0.06536258,-0.11301007
195573114461871,8.264705,-0.095294975,0.07880162,-0.07452556
195573122407140,8.272650,-0.0983493,0.08368854,-0.062308256
195573130440601,8.280684,-0.09896017,0.08674286,-0.07574729
195573138482640,8.288726,-0.10262536,0.09468412,-0.084910266
195573146467101,8.296710,-0.11911872,0.0983493,-0.08002335
195573154582563,8.304826,-0.1301143,0.08735373,-0.05131268
195573162516909,8.312760,-0.13255776,0.07147124,-0.022602014
195573170546793,8.320790,-0.13988814,0.052534413,0.01282817
195573178559293,8.328802,-0.15577064,0.051923547,0.034208454
195573186569640,8.336813,-0.17348573,0.062308256,0.06169739
195573194655063,8.344898,-0.19730948,0.070249505,0.09407325
195573202602216,8.352845,-0.20525073,0.07269296,0.10262536
195573210621370,8.360865,-0.19914207,0.06658431,0.09590584
195573218665409,8.368909,-0.17898351,0.05681047,0.07696902
195573226650409,8.376894,-0.14660765,0.029932396,0.0580322
195573234789947,8.385033,-0.10567969,-0.015882496,0.02076942
195573242783370,8.393027,-0.077579886,-0.059864793,-0.01160644
195573250876293,8.401119,-0.059864793,-0.096516706,-0.03176499
195573258836908,8.409080,-0.049480084,-0.111177474,-0.03176499
195573266834024,8.417077,-0.047647487,-0.10323623,-0.018936822
195573274913678,8.425157,-0.042760566,-0.09162979,-0.012217305
195573283015255,8.433258,-0.029932396,-0.056199603,-0.036651913
195573291048793,8.441292,-0.008552114,-0.027488936,-0.0842994
195573299062562,8.449306,0.042760566,-0.015271631,-0.16920967
195573307047793,8.457291,0.07696902,-0.020158553,-0.23273966
195573315143062,8.465386,0.10140363,-0.040317107,-0.2846632
195573323078408,8.473322,0.108123146,-0.07513642,-0.30848694
195573331109908,8.481353,0.0983493,-0.0983493,-0.29016098
195573339112870,8.489356,0.08552113,-0.118507855,-0.25411993
195573347093331,8.497337,0.073303826,-0.11728613,-0.18875736
195573355140024,8.505383,0.07513642,-0.096516706,-0.13439035
195573363100447,8.513344,0.099571034,-0.06291912,-0.059864793
195573371121870,8.521365,0.12889257,-0.048258353,-0.01282817
195573379155293,8.529398,0.17104226,-0.050701816,0.027488936
195573387125177,8.537368,0.22174409,-0.0842994,0.06169739
195573395261177,8.545504,0.25350907,-0.12889257,0.069027774
195573403197100,8.553440,0.27122417,-0.1863139,0.06414085
195573411227985,8.561471,0.27305678,-0.2828306,0.05009095
195573419231485,8.569475,0.24984388,-0.35124752,0.044593163
195573427211946,8.577455,0.19486602,-0.4184427,0.03604105
195573435260639,8.585504,0.14721853,-0.44104472,0.02687807
195573443220523,8.593464,0.09773844,-0.42943826,0.012217305
195573451283446,8.601527,0.05009095,-0.35979962,-0.017715093
195573459332138,8.609575,0.030543262,-0.28527406,-0.05131268
195573467341985,8.617585,0.02565634,-0.2003638,-0.092240654
195573475441600,8.625685,0.036651913,-0.093462385,-0.15760323
195573483375869,8.633619,0.057421334,-0.035430185,-0.20525073
195573491407523,8.641651,0.07819075,-0.0018325958,-0.25411993
195573499430792,8.649674,0.09285152,-0.004886922,-0.27488935
195573507449369,8.657693,0.095294975,-0.018325957,-0.27916542
195573515507984,8.665751,0.0842994,-0.03848451,-0.25778514
195573523461754,8.673705,0.08307768,-0.050701816,-0.22724187
195573531560292,8.681803,0.08857546,-0.057421334,-0.1966986
195573539646330,8.689890,0.11178834,-0.070249505,-0.16065755
195573547616677,8.697860,0.13622294,-0.0842994,-0.14049901
195573555704715,8.705948,0.17531833,-0.11362094,-0.08552113
195573563649100,8.713892,0.19425514,-0.13805555,-0.020158553
195573571761023,8.722004,0.19364429,-0.16432275,0.07147124
195573579810600,8.730054,0.16737708,-0.17531833,0.20952678
195573587872292,8.738115,0.15210545,-0.18081611,0.28099802
195573596002715,8.746246,0.13683382,-0.18203785,0.3115413
195573603984561,8.754228,0.13988814,-0.18448131,0.2883284
195573612018484,8.762262,0.1423316,-0.19242255,0.24312437
195573620051676,8.770295,0.12339478,-0.20830505,0.1881465
195573628020753,8.778264,0.095294975,-0.20952678,0.15760323
195573636097676,8.786341,0.053145275,-0.19853121,0.14049901
195573644035407,8.794279,-0.0036651916,-0.17592919,0.13500121
195573652147138,8.802390,-0.029932396,-0.15027285,0.12950343
195573660180868,8.810424,-0.047647487,-0.10751228,0.111177474
195573668162138,8.818405,-0.037873644,-0.0842994,0.07819075
195573676218753,8.826462,-0.02321288,-0.06841691,0.029932396
195573684174138,8.834417,-0.015882496,-0.06047566,-0.05497787
195573692180715,8.842424,-0.017104227,-0.04520403,-0.11789699
195573700230984,8.850474,-0.023823744,-0.043982297,-0.1740966
195573708202022,8.858445,-0.019547688,-0.0421497,-0.2321288
195573716290291,8.866533,-0.012217305,-0.035430185,-0.25473082
195573724251176,8.874494,0.009162978,-0.037873644,-0.26328292
195573732282407,8.882526,0.040317107,-0.050701816,-0.25961772
195573740285753,8.890529,0.065973446,-0.050701816,-0.24556783
195573748267253,8.898510,0.08124508,-0.050701816,-0.20341812
195573756376022,8.906619,0.07574729,-0.044593163,-0.15393804
195573764330445,8.914574,0.05131268,-0.039095376,-0.08735373
195573772336330,8.922580,0.025045475,-0.01282817,0.0018325958
195573780368406,8.930612,0.013439035,0.021380283,0.059253927
195573788338291,8.938581,0.020158553,0.07086037,0.105068825
195573796423368,8.946667,0.04153884,0.15454891,0.15332718
195573804359329,8.954603,0.059864793,0.23090707,0.19608775
195573812390406,8.962634,0.08735373,0.31703907,0.25717425
195573820404599,8.970648,0.115453534,0.35979962,0.28710666
195573828386868,8.978630,0.14538592,0.3726278,0.29932398
195573836453137,8.986696,0.19364429,0.3549127,0.28527406
195573844406983,8.994650,0.22724187,0.33414328,0.26816985
195573852426329,9.002670,0.25595254,0.29871312,0.24923302
195573860460329,9.010704,0.2828306,0.2602286,0.21319197
195573868429598,9.018673,0.30176744,0.2321288,0.16920967
195573876571791,9.026815,0.31948254,0.20891592,0.092240654
195573884509060,9.034752,0.34025195,0.19975294,0.015271631
195573892540945,9.042784,0.36896262,0.17898351,-0.08735373
195573900542214,9.050785,0.39400807,0.1423316,-0.24556783
195573908530406,9.058774,0.4007276,0.119729586,-0.33658674
195573916616829,9.066860,0.40194935,0.09101892,-0.38973203
195573924569983,9.074813,0.39400807,0.04642576,-0.38912117
195573932600444,9.082844,0.3866777,0.007330383,-0.3585779
195573940622675,9.090866,0.3726278,-0.028099801,-0.31031954
195573948593367,9.098837,0.3323107,-0.06169739,-0.23396139
195573956658637,9.106902,0.2761111,-0.07391469,-0.15943582
195573964593944,9.114837,0.17104226,-0.07086037,-0.03359759
195573972643713,9.122887,0.09407325,-0.06536258,0.06291912
195573980650598,9.130894,0.025045475,-0.064751714,0.14905111
195573988664329,9.138908,-0.029932396,-0.059864793,0.21624629
195573996809406,9.147053,-0.05009095,-0.029321533,0.23151793
195574004763021,9.155006,-0.0580322,0.03481932,0.22174409
195574012797367,9.163041,-0.044593163,0.13927728,0.16737708
195574020820021,9.171063,-0.020158553,0.22479841,0.11484267
195574028789175,9.179032,0.02565634,0.31887165,0.028099801
195574036864482,9.187108,0.05681047,0.37018433,-0.0421497
195574044800444,9.195044,0.086132,0.40622538,-0.12644911
195574052832482,9.203076,0.10567969,0.41172317,-0.25350907
195574060823175,9.211066,0.10629055,0.38606682,-0.34330627
195574068805521,9.219049,0.096516706,0.35246924,-0.41355577
195574076881752,9.227125,0.08552113,0.29077184,-0.4746423
195574084834175,9.235077,0.084910266,0.23640485,-0.49357912
195574092823982,9.243067,0.08307768,0.17959438,-0.48441613
195574100842636,9.251086,0.08368854,0.10751228,-0.44532076
195574108813251,9.259056,0.080634214,0.059253927,-0.39767328
195574116924674,9.267168,0.07086037,0.029321533,-0.33475417
195574124874444,9.275118,0.06719518,0.015882496,-0.2932153
195574132913982,9.283157,0.06169739,0.017715093,-0.26083946
195574140908021,9.291151,0.051923547,0.05131268,-0.23090707
195574148889713,9.299133,0.037873644,0.087964594,-0.20891592
195574156969636,9.307213,0.029932396,0.13439035,-0.18509217
195574164928405,9.315172,0.02687807,0.19242255,-0.16371189
195574172928982,9.323172,0.02687807,0.22113322,-0.15882497
195574180949405,9.331193,0.026267206,0.24495697,-0.1563815
195574188919290,9.339162,0.026267206,0.24251351,-0.15027285
195574196985290,9.347228,0.018325957,0.23823744,-0.13927728
195574204920136,9.355163,0.01160644,0.23762658,-0.11301007
195574212952636,9.363196,0.012217305,0.22724187,-0.08674286
195574220942751,9.371186,0.012217305,0.2144137,-0.04520403
195574228922982,9.379166,0.008552114,0.19364429,0.026267206
195574236995328,9.387239,-0.0012217305,0.18875736,0.08857546
195574244948943,9.395192,-0.012217305,0.19975294,0.15577064
195574252960520,9.403204,-0.03481932,0.22418754,0.26389378
195574261029405,9.411273,-0.04642576,0.23945917,0.34147367
195574269051058,9.419294,-0.06047566,0.24923302,0.41172317
195574277197174,9.427440,-0.070249505,0.24678956,0.44409904
195574285166174,9.435409,-0.080634214,0.23090707,0.47219884
195574293278635,9.443522,-0.095294975,0.21868975,0.50762904
195574301285174,9.451528,-0.1001819,0.23457226,0.5314528
195574309266443,9.459510,-0.10323623,0.28160888,0.5503896
195574317314981,9.467558,-0.09773844,0.32498032,0.5552765
195574325297174,9.475540,-0.0842994,0.3567453,0.56321776
195574333322674,9.483566,-0.056199603,0.3921755,0.593761
195574341376404,9.491620,-0.026267206,0.41538838,0.62858033
195574349409827,9.499653,0.002443461,0.4343252,0.66950834
195574357494327,9.507738,0.032986723,0.46609017,0.7257079
195574365507020,9.515750,0.053145275,0.48258355,0.7593055
195574373577250,9.523820,0.089186326,0.49113566,0.7831292
195574381649212,9.531892,0.1160644,0.48808134,0.7837401
195574389692712,9.539936,0.14477506,0.48197266,0.7800749
195574397784520,9.548028,0.16920967,0.49357912,0.77946407
195574405737789,9.555981,0.18997909,0.50518554,0.7703011
195574413777827,9.564021,0.22235495,0.516792,0.73548174
195574421821673,9.572065,0.2565634,0.54000485,0.66523224
195574429791712,9.580035,0.27977628,0.516792,0.57848936
195574437930096,9.588173,0.29565877,0.43982297,0.40622538
195574445864058,9.596107,0.29932398,0.37751472,0.2510656
195574453895942,9.604139,0.30176744,0.29016098,0.0720821
195574461885596,9.612129,0.30115658,0.12583824,-0.18020524
195574469877865,9.620121,0.3023783,-0.002443461,-0.3622431
195574478055712,9.628299,0.30787608,-0.15088372,-0.5833763
195574486089173,9.636332,0.30298916,-0.22724187,-0.7098254
195574494202904,9.644446,0.2742785,-0.24556783,-0.79351395
195574502268211,9.652511,0.20219639,-0.1301143,-0.86009824
195574510265865,9.660509,0.12950343,0.03604105,-0.88331115
195574518331404,9.668575,0.02687807,0.22357668,-0.88697636
195574526267711,9.676511,-0.18142697,0.46914452,-0.829555
195574534298942,9.684542,-0.35369098,0.6291912,-0.7440339
195574542289788,9.692533,-0.5143485,0.7641924,-0.6010914
195574550271057,9.700514,-0.56016344,0.81000733,-0.4783075
195574558318673,9.708562,-0.54611355,0.78984874,-0.34697145
195574566273557,9.716517,-0.47891834,0.68539083,-0.11911872
195574574266211,9.724509,-0.42088616,0.5571091,0.07941248
195574582295865,9.732539,-0.37873647,0.4098906,0.27183503
195574590288211,9.740531,-0.3640757,0.23396139,0.4746423
195574598396019,9.748639,-0.37690386,0.14538592,0.57604593
195574606412596,9.756656,-0.4092797,0.073303826,0.64873886
195574614446403,9.764690,-0.44104472,0.04642576,0.65484756
195574622435596,9.772679,-0.46914452,0.03604105,0.6243043
195574630420865,9.780664,-0.5021312,0.057421334,0.5503896
195574638492211,9.788735,-0.51251596,0.092240654,0.48930305
195574646446249,9.796689,-0.5137377,0.13255776,0.43554693
195574654455480,9.804699,-0.50335294,0.18448131,0.3866777
195574662476019,9.812719,-0.49357912,0.21502456,0.36896262
195574670446134,9.820689,-0.4801401,0.23579398,0.36102137
195574678512403,9.828756,-0.4709771,0.2180789,0.3640757
195574686451903,9.836695,-0.4746423,0.19181168,0.3811799
195574694533480,9.844777,-0.48747048,0.16920967,0.41783184
195574702545480,9.852789,-0.4972443,0.15699236,0.44348818
195574710607057,9.860850,-0.50823987,0.14660765,0.47036624
195574718736903,9.868980,-0.52106804,0.13133603,0.50335294
195574726769403,9.877013,-0.53023106,0.1142318,0.5235115
195574734857095,9.885100,-0.5180137,0.09468412,0.5332854
195574742959095,9.893202,-0.49480084,0.076358154,0.5290093
195574751008557,9.901252,-0.47036624,0.0580322,0.5174029
195574759135172,9.909378,-0.4465425,0.044593163,0.50823987
195574767070134,9.917313,-0.4361578,0.044593163,0.49968776
195574775110518,9.925354,-0.4343252,0.052534413,0.48991394
195574783112095,9.933355,-0.42638394,0.08552113,0.47158796
195574791094095,9.941337,-0.40194935,0.10751228,0.4465425
195574799153672,9.949397,-0.34269542,0.13805555,0.40439278
195574807108864,9.957352,-0.28099802,0.16554448,0.3659083
195574815129556,9.965373,-0.20891592,0.17654006,0.32498032
195574823151095,9.973394,-0.1160644,0.15149458,0.27550024
195574831121941,9.981365,-0.05375614,0.09407325,0.23945917
195574839244826,9.989488,-0.0061086523,0.009162978,0.19975294
195574847235172,9.997478,0.036651913,-0.10873401,0.14294247
195574855302864,10.005546,0.051923547,-0.19120082,0.116675265
195574863304825,10.013548,0.070249505,-0.3005457,0.09590584
195574871286287,10.021529,0.084910266,-0.35185838,0.077579886
195574879349672,10.029593,0.09407325,-0.36774087,0.05681047
195574887309325,10.037553,0.106901415,-0.32803464,0.018325957
195574895336787,10.045580,0.12339478,-0.28221974,-0.031154128
195574903358402,10.053602,0.14782938,-0.2302962,-0.1020145
195574911327902,10.061571,0.1966986,-0.16676621,-0.23823744
195574919392594,10.069636,0.24923302,-0.15454891,-0.37140608
195574927327671,10.077571,0.30909783,-0.17104226,-0.52778757
195574935359094,10.085602,0.38973203,-0.24373524,-0.75441855
195574943350094,10.093593,0.43249258,-0.31215215,-0.9071349
195574951337248,10.101580,0.46120325,-0.41172317,-1.0519099
195574959415594,10.109659,0.46975538,-0.47769663,-1.110553
195574967369748,10.117613,0.45875978,-0.53023106,-1.1282681
195574975360248,10.125603,0.4288274,-0.5674938,-1.0977248
195574983381479,10.133625,0.39461896,-0.5687156,-1.0549643
195574991353671,10.141597,0.3585779,-0.552833,-1.0079277
195574999418286,10.149661,0.31398472,-0.51007247,-0.9578367
195575007353402,10.157597,0.27916542,-0.45570546,-0.93523467
195575015385056,10.165628,0.21563543,-0.35185838,-0.9266826
195575023376363,10.173620,0.1600467,-0.26083946,-0.9193522
195575031359440,10.181603,0.12034045,-0.1826487,-0.89675015
195575039410056,10.189653,0.058643065,-0.105068825,-0.84238315
195575047364863,10.197608,0.004276057,-0.06169739,-0.78801614
195575055354132,10.205597,-0.05497787,-0.037873644,-0.7287622
195575063386440,10.213630,-0.13255776,-0.03726278,-0.6414085
195575071357132,10.221600,-0.18570304,-0.05375614,-0.58032197
195575079431978,10.229675,-0.23457226,-0.08674286,-0.5180137
195575087367594,10.237611,-0.27672195,-0.16126843,-0.44165558
195575095398325,10.245642,-0.29565877,-0.23090707,-0.3885103
195575103402786,10.253646,-0.31764993,-0.3182608,-0.32620203
195575111383901,10.261627,-0.33841935,-0.37812558,-0.27183503
195575119481248,10.269724,-0.36774087,-0.4288274,-0.20830505
195575127436324,10.277679,-0.41172317,-0.47708577,-0.10995574
195575135435171,10.285678,-0.43493605,-0.48502702,-0.039095376
195575143481786,10.293725,-0.4392121,-0.47525316,0.017715093
195575151453978,10.301697,-0.42088616,-0.45814893,0.087964594
195575159518901,10.309762,-0.3933972,-0.4605924,0.13622294
195575167454286,10.317697,-0.3707952,-0.4642576,0.1966986
195575175485670,10.325729,-0.35124752,-0.45265114,0.30543262
195575183482324,10.333725,-0.34269542,-0.41722095,0.40194935
195575191504593,10.341748,-0.32986724,-0.3567453,0.5216789
195575199557824,10.349801,-0.31642818,-0.31887165,0.5882632
195575207512093,10.357755,-0.2950479,-0.28038713,0.62980205
195575215570055,10.365813,-0.26511553,-0.26206118,0.6560693
195575223592439,10.373836,-0.2284636,-0.26083946,0.64751714
195575231562632,10.381806,-0.18325958,-0.26633725,0.6010914
195575239627209,10.389870,-0.12767084,-0.2864958,0.5155703
195575247562555,10.397806,-0.10323623,-0.32070425,0.46120325
195575255593516,10.405837,-0.0720821,-0.37934732,0.3921755
195575263655978,10.413899,-0.04642576,-0.398895,0.3390302
195575271691247,10.421934,-0.04153884,-0.40133846,0.2883284
195575279738785,10.429982,-0.045814894,-0.39400807,0.23273966
195575287693555,10.437937,-0.053145275,-0.36957347,0.20525073
195575295715324,10.445958,-0.06536258,-0.32375857,0.19181168
195575303746478,10.453990,-0.055588737,-0.24495697,0.18387043
195575311716516,10.461960,-0.03481932,-0.2180789,0.16432275
195575319793862,10.470037,-0.010995574,-0.2302962,0.13194689
195575327728747,10.477972,-0.0012217305,-0.26939157,0.09896017
195575335760708,10.486004,0.009773844,-0.33414328,0.06169739
195575343760554,10.494004,0.025045475,-0.42943826,0.030543262
195575351745477,10.501989,0.055588737,-0.49113566,0.029321533
195575359791708,10.510035,0.09773844,-0.5198463,0.050701816
195575367741208,10.517984,0.16310102,-0.5180137,0.106901415
195575375743170,10.525986,0.19975294,-0.48441613,0.1704314
195575383763862,10.534007,0.2302962,-0.41416663,0.23457226
195575391733939,10.541977,0.25900686,-0.29260445,0.29993483
195575399794016,10.550037,0.2773328,-0.20891592,0.3268129
195575407729208,10.557972,0.31520647,-0.13316862,0.31520647
195575415760477,10.566004,0.35369098,-0.11362094,0.25900686
195575423750169,10.573993,0.39522982,-0.13439035,0.1600467
195575431729169,10.581972,0.43249258,-0.20952678,-0.0036651916
195575439774708,10.590018,0.4373795,-0.26816985,-0.13500121
195575447725092,10.597968,0.4202753,-0.32070425,-0.27366763
195575455759631,10.606003,0.3848451,-0.37018433,-0.45448375
195575463781015,10.614024,0.3555236,-0.3830125,-0.5693264
195575471751939,10.621995,0.33414328,-0.36713,-0.65118235
195575479815362,10.630059,0.31948254,-0.31642818,-0.68416905
195575487749515,10.637993,0.3036,-0.25961772,-0.6585127
195575495776554,10.646020,0.25167647,-0.16065755,-0.6041457
195575503763938,10.654007,0.18509217,-0.06719518,-0.5699373
195575511744054,10.661987,0.11056661,0.034208454,-0.54000485
195575519793669,10.670037,0.032375857,0.13500121,-0.5112942
195575527748361,10.677992,0.0012217305,0.17104226,-0.4831944
195575535747092,10.685990,-0.018325957,0.18387043,-0.43371433
195575543778554,10.694022,-0.027488936,0.17470746,-0.33169982
195575551748823,10.701992,-0.02443461,0.13927728,-0.23518312
195575559824054,10.710067,-0.029321533,0.09468412,-0.13072516
195575567761169,10.718004,-0.03970624,0.03359759,-0.0012217305
195575575806669,10.726050,-0.039095376,-0.014049901,0.08552113
195575583798900,10.734042,-0.01160644,-0.073303826,0.18387043
195575591781438,10.742025,0.01282817,-0.12034045,0.23273966
195575599835861,10.750079,0.030543262,-0.17104226,0.25473082
195575607797515,10.758041,0.029932396,-0.23335053,0.24617869
195575615797092,10.766040,0.0067195175,-0.26206118,0.23273966
195575623818438,10.774062,-0.036651913,-0.2761111,0.21319197
195575631787746,10.782031,-0.112399206,-0.26206118,0.1826487
195575639852015,10.790095,-0.16676621,-0.22479841,0.16065755
195575647786938,10.798030,-0.20769419,-0.17470746,0.1441642
195575655815592,10.806059,-0.24129178,-0.10934488,0.13316862
195575663801899,10.814045,-0.25350907,-0.06719518,0.12889257
195575671780284,10.822023,-0.26083946,-0.021991149,0.12889257
195575679826361,10.830070,-0.26328292,-0.007941248,0.13439035
195575687774322,10.838017,-0.25900686,-0.004276057,0.14049901
195575695792168,10.846035,-0.24801129,0.007330383,0.1441642
195575703823553,10.854067,-0.23273966,0.015271631,0.13683382
195575711875245,10.862118,-0.2180789,0.025045475,0.12522738
195575719992168,10.870235,-0.19547687,0.05131268,0.11301007
195575727979591,10.878223,-0.17165314,0.06536258,0.09407325
195575736009091,10.886252,-0.14172074,0.06780604,0.08002335
195575743997976,10.894241,-0.116675265,0.06841691,0.086132
195575751983168,10.902226,-0.1001819,0.06536258,0.096516706
195575760110322,10.910353,-0.07696902,0.086132,0.105068825
195575768138437,10.918382,-0.051923547,0.09590584,0.09896017
195575776178053,10.926421,-0.018325957,0.09590584,0.086132
195575784219476,10.934463,0.05009095,0.07513642,0.045814894
195575792187899,10.942431,0.11362094,0.02321288,0.0012217305
195575800258745,10.950502,0.18570304,-0.0580322,-0.06047566
195575808189630,10.958433,0.22174409,-0.13805555,-0.10934488
195575816215822,10.966459,0.24129178,-0.19914207,-0.14721853
195575824226783,10.974470,0.23457226,-0.2302962,-0.15332718
195575832206283,10.982449,0.20952678,-0.22235495,-0.12522738
195575840271399,10.990515,0.18081611,-0.18325958,-0.06780604
195575848219976,10.998463,0.15454891,-0.080634214,0.029932396
195575856215899,11.006459,0.14905111,0.012217305,0.10629055
195575864251399,11.014495,0.16126843,0.1142318,0.204029
195575872221322,11.022464,0.18203785,0.16676621,0.2761111
195575880294475,11.030538,0.19181168,0.18936823,0.3408628
195575888226283,11.038469,0.2003638,0.19058995,0.4092797
195575896252206,11.046495,0.19547687,0.1740966,0.43799037
195575904266937,11.054510,0.18325958,0.14905111,0.43860126
195575912330206,11.062573,0.16615535,0.14110987,0.41233405
195575920537744,11.070781,0.15027285,0.16371189,0.36835176
195575928526629,11.078770,0.14172074,0.20952678,0.28221974
195575936513975,11.086757,0.14782938,0.22724187,0.18753563
195575944536706,11.094780,0.16982053,0.22479841,0.05681047
195575952508975,11.102752,0.19914207,0.19303341,-0.14538592
195575960574090,11.110817,0.21319197,0.1459968,-0.30665436
195575968507783,11.118751,0.21502456,0.10445796,-0.45081854
195575976533783,11.126777,0.1863139,0.065973446,-0.58093286
195575984521052,11.134764,0.16371189,0.06169739,-0.61941737
195575992502013,11.142745,0.14721853,0.07574729,-0.6096435
195576000577321,11.150820,0.13133603,0.12950343,-0.5534439
195576008526821,11.158770,0.12034045,0.19425514,-0.48624873
195576016517206,11.166760,0.1001819,0.28771752,-0.37751472
195576024532783,11.174776,0.08124508,0.32803464,-0.29565877
195576032502513,11.182746,0.05681047,0.34391713,-0.2284636
195576040577590,11.190821,0.018936822,0.32253686,-0.18387043
195576048510898,11.198754,-0.01160644,0.28099802,-0.16737708
195576056537244,11.206780,-0.031154128,0.22540927,-0.14721853
195576064536936,11.214780,-0.0421497,0.14110987,-0.11178834
195576072516129,11.222759,-0.036651913,0.09896017,-0.07513642
195576080563590,11.230807,-0.021991149,0.07574729,-0.026267206
195576088517667,11.238761,-0.008552114,0.084910266,0.010995574
195576096518936,11.246762,-0.0012217305,0.1142318,0.03481932
195576104557475,11.254801,0.007330383,0.15699236,0.040927973
195576112529167,11.262772,0.01038471,0.19120082,0.022602014
195576120612474,11.270856,0.004276057,0.22052236,-0.013439035
195576128545667,11.278789,-0.017104227,0.2510656,-0.0720821
195576136576667,11.286820,-0.039095376,0.2565634,-0.11301007
195576144576282,11.294819,-0.06719518,0.24556783,-0.14172074
195576152555282,11.302798,-0.099571034,0.22602014,-0.15454891
195576160601051,11.310844,-0.116675265,0.22174409,-0.13927728
195576168553128,11.318796,-0.10995574,0.22724187,-0.09468412
195576176574282,11.326817,-0.08246681,0.22907446,-0.05009095
195576184614436,11.334858,-0.05009095,0.22052236,-0.015882496
195576192585090,11.342828,0.01282817,0.19853121,-0.002443461
195576200670013,11.350913,0.056199603,0.15882497,-0.025045475
195576208601243,11.358844,0.08674286,0.09468412,-0.064751714
195576216629859,11.366873,0.105068825,0.0067195175,-0.13072516
195576224630089,11.374873,0.09040806,-0.037873644,-0.17470746
195576232614205,11.382857,0.059864793,-0.051923547,-0.20952678
195576240688359,11.390932,0.026267206,-0.029932396,-0.23457226
195576248636397,11.398880,0.0036651916,0.009162978,-0.24007004
195576256656282,11.406899,-0.013439035,0.08735373,-0.24129178
195576264701705,11.414945,-0.004886922,0.12583824,-0.25717425
195576272671551,11.422915,0.008552114,0.13133603,-0.2846632
195576280755435,11.430999,0.02076942,0.09101892,-0.32742378
195576288687589,11.438931,0.018325957,0.04520403,-0.3481932
195576296711935,11.446955,0.01038471,-0.007941248,-0.34391713
195576304764551,11.455008,-0.012217305,-0.0720821,-0.3005457
195576312752320,11.462995,-0.03481932,-0.095294975,-0.24251351
195576320797551,11.471041,-0.0580322,-0.06658431,-0.14905111
195576328748474,11.478992,-0.064751714,-0.02443461,-0.08674286
195576336774589,11.487018,-0.053145275,0.014660766,-0.047036625
195576344805512,11.495049,-0.018936822,0.053145275,-0.03604105
195576352775974,11.503019,0.01038471,0.04886922,-0.059864793
195576360857974,11.511101,0.029932396,0.014049901,-0.09407325
195576368789781,11.519033,0.03726278,-0.049480084,-0.12034045
195576376816127,11.527059,0.022602014,-0.09040806,-0.11056661
195576384827666,11.535071,-0.0012217305,-0.11362094,-0.070249505
195576392810435,11.543054,-0.028099801,-0.10873401,-0.014049901
195576400857704,11.551101,-0.047647487,-0.089186326,0.020158553
195576408804820,11.559048,-0.06841691,-0.056199603,0.045814894
195576416856704,11.567100,-0.07696902,-0.04153884,0.045814894
195576424937435,11.575181,-0.081855945,-0.03604105,0.029932396
195576432909973,11.583153,-0.08857546,-0.045814894,0.01282817
195576440996243,11.591239,-0.095294975,-0.065973446,0.028099801
195576448926396,11.599170,-0.1020145,-0.0842994,0.064751714
195576456971127,11.607214,-0.1160644,-0.09896017,0.13622294
195576464981512,11.615225,-0.12644911,-0.10140363,0.21563543
195576472961204,11.623204,-0.14721853,-0.106901415,0.3323107
195576481019396,11.631263,-0.1704314,-0.100792766,0.40378192
195576488969358,11.639213,-0.19730948,-0.096516706,0.44593164
195576496965704,11.647209,-0.23151793,-0.10995574,0.44593164
195576504992896,11.655236,-0.25228736,-0.11178834,0.41599923
195576512961627,11.663205,-0.27000242,-0.11178834,0.36468655
195576521034588,11.671278,-0.27488935,-0.1160644,0.2761111
195576528968204,11.679211,-0.25900686,-0.12583824,0.20463985
195576536993088,11.687236,-0.23273966,-0.15943582,0.122783914
195576544989088,11.695232,-0.18387043,-0.21135938,-0.0018325958
195576552966434,11.703210,-0.15454891,-0.25534168,-0.0983493
195576561017434,11.711261,-0.13744467,-0.31031954,-0.20097467
195576569020665,11.719264,-0.14049901,-0.3286455,-0.24556783
195576577106396,11.727350,-0.15882497,-0.32742378,-0.26328292
195576585145511,11.735389,-0.18753563,-0.29626966,-0.26939157
195576593146896,11.743390,-0.20280726,-0.26083946,-0.28160888
195576601297319,11.751540,-0.19486602,-0.21197024,-0.321926
195576609296626,11.759540,-0.16493362,-0.1863139,-0.3622431
195576617406819,11.767650,-0.1301143,-0.18753563,-0.4092797
195576625486011,11.775729,-0.08368854,-0.24007004,-0.48075095
195576633543088,11.783786,-0.06414085,-0.2919936,-0.52839845
195576641588357,11.791832,-0.051923547,-0.33108896,-0.56321776
195576649542165,11.799785,-0.04642576,-0.38056904,-0.60231316
195576657639626,11.807883,-0.04642576,-0.40194935,-0.6206391
195576665759434,11.816003,-0.047647487,-0.38545597,-0.61453044
195576673809434,11.824053,-0.050701816,-0.35430184,-0.5907067
195576681960049,11.832203,-0.06536258,-0.31337386,-0.539394
195576689972242,11.840215,-0.07880162,-0.23640485,-0.4361578
195576698082203,11.848325,-0.0842994,-0.18448131,-0.34330627
195576706161357,11.856405,-0.07513642,-0.13988814,-0.23762658
195576714218934,11.864462,-0.049480084,-0.12583824,-0.19364429
195576722360357,11.872604,-0.02687807,-0.13500121,-0.172264
195576730387741,11.880631,-0.02321288,-0.18570304,-0.15577064
195576738484011,11.888727,-0.03604105,-0.23273966,-0.13439035
195576746598280,11.896841,-0.06352998,-0.28221974,-0.08307768
195576754647511,11.904891,-0.0842994,-0.30543262,-0.02321288
195576762775703,11.913019,-0.09773844,-0.30604348,0.056199603
195576770772741,11.921016,-0.1160644,-0.27550024,0.17287487
195576778860434,11.929104,-0.1301143,-0.22174409,0.2706133
195576786937664,11.937181,-0.15088372,-0.15760323,0.38606682
195576794996395,11.945240,-0.16920967,-0.12339478,0.4538729
195576803147857,11.953391,-0.18509217,-0.095294975,0.49357912
195576811175087,11.961418,-0.21013765,-0.065973446,0.5137377
195576819277356,11.969521,-0.22479841,-0.06536258,0.5314528
195576827389203,11.977632,-0.2302962,-0.095294975,0.56077427
195576835377626,11.985621,-0.22907446,-0.12095132,0.5742133
195576843457626,11.993701,-0.22540927,-0.14844026,0.5870415
195576851432818,12.001676,-0.21930063,-0.1881465,0.6114761
195576859538241,12.009781,-0.21380283,-0.21746802,0.6114761
195576867572933,12.017816,-0.21074851,-0.2144137,0.5821546
195576875633741,12.025877,-0.2125811,-0.18753563,0.55833083
195576883799625,12.034043,-0.21624629,-0.15577064,0.5467244
195576891827933,12.042071,-0.20891592,-0.10629055,0.548557
195576899936279,12.050179,-0.19730948,-0.06963864,0.5644395
195576908054318,12.058297,-0.16676621,-0.037873644,0.5900958
195576916103779,12.066347,-0.12339478,-0.03359759,0.6041457
195576924198279,12.074441,-0.08307768,-0.045814894,0.6017023
195576932129818,12.082373,-0.028710667,-0.06719518,0.5564982
195576940208894,12.090452,0.007941248,-0.09040806,0.5021312
195576948207933,12.098451,0.039095376,-0.116675265,0.43371433
195576956226125,12.106469,0.059864793,-0.16982053,0.321926
195576964330048,12.114573,0.0580322,-0.2125811,0.23273966
195576972277317,12.122520,0.06047566,-0.27122417,0.100792766
195576980259087,12.130502,0.070249505,-0.29077184,-0.0036651916
195576988295663,12.138539,0.08368854,-0.29626966,-0.10262536
195576996288817,12.146532,0.11789699,-0.27855456,-0.21624629
195577004474087,12.154717,0.13622294,-0.24740042,-0.29077184
195577012406817,12.162650,0.15882497,-0.20097467,-0.34880406
195577020474202,12.170717,0.19303341,-0.13927728,-0.42638394
195577028564317,12.178807,0.21685717,-0.08674286,-0.48930305
195577036552279,12.186795,0.23273966,-0.0012217305,-0.5674938
195577044604894,12.194848,0.23823744,0.056199603,-0.5992588
195577052584586,12.202828,0.2443461,0.07452556,-0.59803706
195577060601125,12.210844,0.25228736,0.05375614,-0.56077427
195577068615625,12.218859,0.25778514,0.037873644,-0.51007247
195577076586202,12.226829,0.258396,0.014049901,-0.45448375
195577084645971,12.234889,0.24617869,0.0036651916,-0.37140608
195577092580971,12.242824,0.21746802,0.007941248,-0.29871312
195577100642163,12.250885,0.15332718,0.021380283,-0.19792034
195577108628663,12.258872,0.11056661,0.04337143,-0.1282817
195577116607778,12.266851,0.0842994,0.06352998,-0.070249505
195577124662932,12.274906,0.064751714,0.0720821,-0.0036651916
195577132621086,12.282864,0.054367006,0.06169739,0.047647487
195577140655201,12.290898,0.039095376,0.048258353,0.100792766
195577148682355,12.298926,0.008552114,0.030543262,0.16798794
195577156654278,12.306897,-0.012217305,0.016493361,0.19975294
195577164736278,12.314979,-0.031154128,0.0012217305,0.20830505
195577172669009,12.322912,-0.04520403,0.002443461,0.18875736
195577180701470,12.330945,-0.04886922,0.02076942,0.15760323
195577188713932,12.338957,-0.059864793,0.059864793,0.0983493
195577196693201,12.346936,-0.06169739,0.09896017,0.052534413
195577204740740,12.354984,-0.058643065,0.13133603,0.0067195175
195577212688509,12.362932,-0.03970624,0.15821409,-0.051923547
195577220714047,12.370957,-0.013439035,0.15699236,-0.08552113
195577228753316,12.378996,0.01160644,0.13683382,-0.1020145
195577236723547,12.386967,0.03970624,0.09285152,-0.09407325
195577244795124,12.395038,0.03726278,0.05131268,-0.06780604
195577252727316,12.402970,0.021991149,0.03848451,-0.022602014
195577260780932,12.411024,-0.007941248,0.055588737,0.05497787
195577268731816,12.418975,-0.022602014,0.076358154,0.11728613
195577276710047,12.426953,-0.02687807,0.10140363,0.18692477
195577284756316,12.434999,-0.020158553,0.12705997,0.23335053
195577292706316,12.442949,-0.009773844,0.15332718,0.2687807
195577300738355,12.450982,0.02687807,0.1685988,0.3023783
195577308788508,12.459032,0.05497787,0.16676621,0.31031954
195577316758701,12.467002,0.07880162,0.16310102,0.3145956
195577324829893,12.475073,0.09407325,0.15943582,0.31520647
195577332762162,12.483005,0.09712757,0.16126843,0.31642818
195577340789585,12.491033,0.089186326,0.16554448,0.32559118
195577348791201,12.499034,0.08246681,0.16676621,0.3390302
195577356773585,12.507017,0.077579886,0.16493362,0.35002577
195577364865124,12.515108,0.08552113,0.15515977,0.3371976
195577372813508,12.523057,0.0983493,0.12583824,0.29993483
195577380797931,12.531041,0.10262536,0.0842994,0.24556783
195577388826431,12.539070,0.08368854,0.04520403,0.17592919
195577396797431,12.547041,0.059253927,0.028710667,0.13255776
195577404882431,12.555126,0.02687807,0.02443461,0.09773844
195577412815470,12.563059,-0.005497787,0.03604105,0.047036625
195577420840854,12.571084,-0.02076942,0.059253927,0.0036651916
195577428851623,12.579095,-0.018325957,0.09773844,-0.06047566
195577436836162,12.587079,-0.014049901,0.12034045,-0.09101892
195577444889200,12.595132,-0.015882496,0.14966199,-0.096516706
195577452837508,12.603081,-0.02687807,0.18387043,-0.070249505
195577460833623,12.611077,-0.02565634,0.19914207,-0.032986723
195577468909046,12.619152,-0.017104227,0.19486602,0.008552114
195577476906315,12.627149,0.0012217305,0.16432275,0.04642576
195577484980123,12.635223,0.018325957,0.12644911,0.048258353
195577492910700,12.643154,0.03726278,0.07269296,0.02443461
195577500973085,12.651216,0.04642576,0.035430185,-0.010995574
195577509045892,12.659289,0.05131268,0.010995574,-0.04520403
195577517106008,12.667349,0.05681047,-0.0067195175,-0.089186326
195577525248815,12.675492,0.06536258,-0.017104227,-0.11301007
195577533279469,12.683523,0.07880162,-0.02076942,-0.12583824
195577541296469,12.691540,0.095294975,0.0030543262,-0.13500121
195577549334815,12.699578,0.09712757,0.040927973,-0.12583824
195577557322777,12.707566,0.0842994,0.11484267,-0.09285152
195577565429392,12.715673,0.07086037,0.1704314,-0.055588737
195577573362392,12.723606,0.05497787,0.21624629,-0.016493361
195577581386777,12.731630,0.040927973,0.24373524,0.02076942
195577589396469,12.739640,0.032986723,0.23884831,0.03604105
195577597374584,12.747618,0.029321533,0.21319197,0.04153884
195577605446969,12.755690,0.028710667,0.14844026,0.021380283
195577613446507,12.763690,0.03726278,0.08857546,-0.018325957
195577621455315,12.771698,0.043982297,0.007941248,-0.077579886
195577629505815,12.779749,0.04886922,-0.04153884,-0.10445796
195577637476007,12.787719,0.03848451,-0.056199603,-0.10751228
195577645556738,12.795800,0.018325957,-0.02321288,-0.08368854
195577653492084,12.803735,0.009773844,0.032375857,-0.052534413
195577661521738,12.811765,0.007330383,0.105068825,-0.02565634
195577669530699,12.819774,0.02443461,0.18936823,-0.014049901
195577677509084,12.827752,0.039095376,0.226631,-0.019547688
195577685577276,12.835820,0.056199603,0.21380283,-0.047647487
195577693528084,12.843771,0.054367006,0.17470746,-0.076358154
195577701546776,12.851790,0.03359759,0.122783914,-0.095294975
195577709583584,12.859827,-0.01038471,0.05009095,-0.08857546
195577717552968,12.867796,-0.04520403,0.009773844,-0.0580322
195577725674315,12.875917,-0.08002335,-0.015882496,-0.014049901
195577733605930,12.883849,-0.12095132,6.1086525E-4,0.073303826
195577741649776,12.891893,-0.1386664,0.042760566,0.14782938
195577749650776,12.899894,-0.15027285,0.09468412,0.21991149
195577757629776,12.907873,-0.15821409,0.16920967,0.29565877
195577765705699,12.915949,-0.14721853,0.20952678,0.3182608
195577773654430,12.923898,-0.09773844,0.2144137,0.3036
195577781640007,12.931883,-0.06169739,0.16249016,0.2669481
195577789671430,12.939915,-0.028710667,0.08552113,0.21930063
195577797642930,12.947886,-0.021380283,-0.032375857,0.16310102
195577805710853,12.955954,-0.039095376,-0.10262536,0.1337795
195577813641891,12.963885,-0.065973446,-0.13683382,0.11484267
195577821668583,12.971912,-0.09040806,-0.116675265,0.092240654
195577829673276,12.979916,-0.096516706,-0.062308256,0.07391469
195577837649083,12.987892,-0.07574729,0.02443461,0.03481932
195577845732968,12.995976,-0.048258353,0.07147124,-0.014660766
195577853680891,13.003924,-0.028710667,0.09590584,-0.06780604
195577861667083,13.011910,-0.021380283,0.07941248,-0.119729586
195577869715852,13.019959,-0.03481932,0.053145275,-0.13072516
195577877684237,13.027927,-0.056199603,0.030543262,-0.1142318
195577885783622,13.036027,-0.07391469,0.013439035,-0.05009095
195577893714006,13.043957,-0.070249505,0.0067195175,0.012217305
195577901738083,13.051981,-0.050701816,0.0,0.06963864
195577909789275,13.060032,-0.0067195175,-0.018936822,0.10567969
195577917770698,13.068014,0.012217305,-0.029932396,0.11178834
195577925864160,13.076107,0.004886922,-0.018325957,0.13622294
195577933812775,13.084056,-0.016493361,-0.0036651916,0.1685988
195577941803314,13.092046,-0.025045475,0.005497787,0.19608775
195577949852737,13.100096,-0.007330383,6.1086525E-4,0.20219639
195577957822160,13.108065,0.017715093,-0.01282817,0.18570304
195577965935160,13.116178,0.037873644,-0.023823744,0.1685988
195577973866698,13.124110,0.036651913,-0.037873644,0.16187929
195577981891775,13.132135,0.013439035,-0.05497787,0.17531833
195577989900275,13.140143,-0.04153884,-0.07086037,0.20708331
195577997922083,13.148165,-0.09590584,-0.06841691,0.2443461
195578006005583,13.156249,-0.15210545,-0.04520403,0.28771752
195578014016967,13.164260,-0.21991149,0.013439035,0.3378085
195578022031621,13.172275,-0.25350907,0.05497787,0.35002577
195578030096813,13.180340,-0.25778514,0.089186326,0.31520647
195578038091813,13.188335,-0.22357668,0.12095132,0.20952678
195578046173429,13.196417,-0.17592919,0.106901415,0.11301007
195578054147275,13.204390,-0.1001819,0.022602014,-0.02565634
195578062172159,13.212415,-0.047036625,-0.06963864,-0.12583824
195578070167390,13.220411,-0.013439035,-0.15943582,-0.20097467
195578078145659,13.228389,-0.015271631,-0.23335053,-0.24801129
195578086241621,13.236485,-0.03359759,-0.24862215,-0.24190263
195578094247813,13.244491,-0.056199603,-0.21991149,-0.22235495
195578102258121,13.252501,-0.08368854,-0.13683382,-0.19914207
195578110282121,13.260525,-0.1001819,-0.05497787,-0.19364429
195578118251275,13.268494,-0.10445796,0.03604105,-0.20219639
195578126341544,13.276585,-0.09896017,0.06963864,-0.21380283
195578134276082,13.284519,-0.09407325,0.062308256,-0.22540927
195578142329313,13.292572,-0.0983493,0.015882496,-0.2144137
195578150337390,13.300581,-0.100792766,-0.028099801,-0.17837265
195578158315967,13.308559,-0.093462385,-0.06963864,-0.13500121
195578166362236,13.316605,-0.06169739,-0.10995574,-0.09407325
195578174320505,13.324564,-0.032986723,-0.12461651,-0.073303826
195578182358967,13.332602,0.0036651916,-0.12767084,-0.051923547
195578190397351,13.340641,0.040317107,-0.13500121,-0.008552114
195578198367620,13.348611,0.047036625,-0.124005646,0.040927973
195578206450620,13.356694,0.029932396,-0.1020145,0.1282817
195578214383120,13.364626,0.0,-0.0842994,0.20769419
195578222410082,13.372653,-0.03726278,-0.06780604,0.28955013
195578230420428,13.380664,-0.08002335,-0.05681047,0.38545597
195578238400428,13.388644,-0.10323623,-0.05131268,0.41538838
195578246447274,13.396690,-0.11911872,-0.045814894,0.41233405
195578254398159,13.404641,-0.1282817,-0.056199603,0.36713
195578262385736,13.412629,-0.122783914,-0.06963864,0.3145956
195578270408582,13.420652,-0.10262536,-0.08674286,0.2406809
195578278378697,13.428622,-0.08246681,-0.09407325,0.19364429
195578286446735,13.436690,-0.06963864,-0.08735373,0.16432275
195578294377812,13.444621,-0.056199603,-0.056199603,0.14844026
195578302429966,13.452673,-0.04886922,-0.01282817,0.14110987
195578310438466,13.460682,-0.04153884,0.049480084,0.12889257
195578318425274,13.468668,-0.013439035,0.13622294,0.0842994
195578326514697,13.476758,0.02443461,0.16126843,0.019547688
195578334461081,13.484704,0.06719518,0.14294247,-0.051923547
195578342447928,13.492691,0.116675265,0.076358154,-0.12889257
195578350570274,13.500813,0.13622294,0.015882496,-0.15149458
195578358619851,13.508863,0.13805555,-0.06352998,-0.11056661
195578366771120,13.517014,0.12950343,-0.09407325,-0.042760566
195578374782774,13.525026,0.1160644,-0.08735373,0.03176499
195578382822389,13.533066,0.112399206,-0.004276057,0.119729586
195578390889043,13.541132,0.12461651,0.07819075,0.15515977
195578398947427,13.549191,0.1777618,0.18570304,0.12339478
195578407004350,13.557248,0.24373524,0.24312437,0.035430185
195578414952043,13.565195,0.31215215,0.25045475,-0.092240654
195578422946196,13.573189,0.38545597,0.19120082,-0.2828306
195578430971927,13.581215,0.42455134,0.10934488,-0.41722095
195578438940735,13.589184,0.44104472,0.028099801,-0.5204572
195578447051004,13.597294,0.4343252,-0.04337143,-0.59803706
195578454982350,13.605226,0.41599923,-0.057421334,-0.6200282
195578463006658,13.613250,0.38728857,-0.039095376,-0.6236934
195578471004312,13.621247,0.35796702,-6.1086525E-4,-0.61269784
195578478982658,13.629226,0.312763,0.06536258,-0.56688297
195578487028850,13.637272,0.226631,0.1600467,-0.44348818
195578494980273,13.645223,0.14721853,0.22113322,-0.29810223
195578502984081,13.653227,0.065973446,0.27672195,-0.12705997
195578510999735,13.661243,-0.01282817,0.312763,0.06963864
195578518969850,13.669213,-0.047647487,0.3182608,0.1704314
195578527038888,13.677282,-0.06352998,0.3042109,0.21930063
195578534969581,13.685213,-0.06658431,0.26267207,0.20891592
195578542993427,13.693237,-0.064751714,0.21135938,0.16676621
195578550989350,13.701233,-0.05131268,0.14477506,0.076358154
195578558972619,13.709216,-0.032375857,0.09773844,-0.010995574
195578567028504,13.717272,-0.008552114,0.05681047,-0.11056661
195578574977619,13.725221,0.02565634,0.032375857,-0.22235495
195578582988504,13.733232,0.032986723,0.036651913,-0.27366763
195578591012504,13.741256,0.020158553,0.069027774,-0.28160888
195578599007119,13.749250,-0.023823744,0.15210545,-0.22357668
195578607104196,13.757347,-0.065973446,0.21991149,-0.14110987
195578615036273,13.765279,-0.108123146,0.28160888,-0.049480084
195578623059657,13.773303,-0.15210545,0.3475823,0.0580322
195578631056157,13.781299,-0.16249016,0.36651915,0.10934488
195578639035119,13.789278,-0.1600467,0.3304781,0.12339478
195578647097773,13.797341,-0.1600467,0.28160888,0.108123146
195578655076042,13.805319,-0.16737708,0.22907446,0.087964594
195578663107234,13.813350,-0.16065755,0.17592919,0.04520403
195578671138388,13.821382,-0.13316862,0.13744467,-0.009162978
195578679108926,13.829352,-0.0842994,0.106901415,-0.09040806
195578687182926,13.837426,0.017715093,0.084910266,-0.23945917
195578695119080,13.845362,0.10323623,0.058643065,-0.3707952
195578703152234,13.853395,0.1863139,0.029321533,-0.5271767
195578711155849,13.861399,0.20341812,0.047647487,-0.57971114
195578719137888,13.869381,0.18325958,0.08674286,-0.571159
195578727204965,13.877448,0.1301143,0.16371189,-0.47708577
195578735161195,13.885404,0.080634214,0.23151793,-0.35308012
195578743199657,13.893443,0.034208454,0.28527406,-0.20708331
195578751223734,13.901467,-0.009162978,0.32559118,-0.013439035
195578759197118,13.909440,-0.039095376,0.32620203,0.11484267
195578767274311,13.917517,-0.07086037,0.30298916,0.22968534
195578775211772,13.925455,-0.11056661,0.2321288,0.3463606
195578783244887,13.933488,-0.12950343,0.16432275,0.4098906
195578791260464,13.941504,-0.13194689,0.0720821,0.4447099
195578799242964,13.949486,-0.10995574,0.004886922,0.42394048
195578807295272,13.957538,-0.07941248,-0.06658431,0.3622431
195578815251657,13.965495,-0.042760566,-0.12950343,0.23640485
195578823246887,13.973490,-0.039095376,-0.14049901,0.13744467
195578831279887,13.981523,-0.049480084,-0.115453534,0.058643065
195578839253926,13.989497,-0.076358154,-0.042760566,0.004276057
195578847333887,13.997577,-0.09285152,0.026267206,0.0
195578855271541,14.005515,-0.1020145,0.09590584,0.0061086523
195578863306118,14.013549,-0.100792766,0.19242255,0.020158553
195578871318426,14.021562,-0.100792766,0.2443461,0.02565634
195578879300772,14.029544,-0.11789699,0.2779437,0.049480084
195578887396772,14.037640,-0.15210545,0.27916542,0.0842994
195578895353156,14.045596,-0.19730948,0.26389378,0.1423316
195578903357925,14.053601,-0.24617869,0.22479841,0.2443461
195578911399464,14.061643,-0.25228736,0.18142697,0.32986724
195578919372002,14.069615,-0.23884831,0.119729586,0.41355577
195578927458079,14.077701,-0.19547687,0.034208454,0.48747048
195578935395848,14.085639,-0.15454891,-0.018936822,0.49602258
195578943428464,14.093672,-0.11362094,-0.057421334,0.45448375
195578951433694,14.101677,-0.09285152,-0.06291912,0.398895
195578959417502,14.109661,-0.08124508,-0.045814894,0.3378085
195578967468502,14.117712,-0.06780604,-0.01282817,0.25289822
195578975426310,14.125669,-0.0580322,-0.007941248,0.19120082
195578983437464,14.133681,-0.051923547,-0.009773844,0.1423316
195578991471656,14.141715,-0.06414085,-0.009162978,0.093462385
195578999443348,14.149687,-0.086132,0.002443461,0.07269296
195579007527079,14.157770,-0.11911872,0.042760566,0.06841691
195579015463810,14.165707,-0.1441642,0.080634214,0.07819075
195579023496771,14.173740,-0.16676621,0.1160644,0.09468412
195579031499579,14.181743,-0.17531833,0.13805555,0.11911872
195579039482117,14.189725,-0.16432275,0.12889257,0.118507855
195579047532425,14.197776,-0.14905111,0.105068825,0.09101892
195579055488425,14.205732,-0.12950343,0.06719518,0.03481932
195579063489002,14.213732,-0.11301007,0.04642576,-0.014660766
195579071523271,14.221766,-0.09162979,0.044593163,-0.06963864
195579079494348,14.229738,-0.04520403,0.048258353,-0.16187929
195579087570925,14.237814,0.0067195175,0.022602014,-0.24556783
195579095507540,14.245751,0.08979719,-0.034208454,-0.39584067
195579103538886,14.253782,0.13927728,-0.08552113,-0.5290093
195579111544155,14.261787,0.16737708,-0.12156218,-0.64568454
195579119528886,14.269772,0.16615535,-0.14294247,-0.7489208
195579127577925,14.277821,0.14355333,-0.13133603,-0.7855727
195579135532425,14.285776,0.12339478,-0.09101892,-0.79290307
195579143563040,14.293806,0.1160644,-0.03481932,-0.7666359
195579151594386,14.301838,0.11728613,-0.004886922,-0.72204274
195579159565155,14.309808,0.124005646,0.007941248,-0.65301496
195579167640694,14.317884,0.09712757,-6.1086525E-4,-0.5375614
195579175577540,14.325821,0.057421334,-0.014049901,-0.43982297
195579183609655,14.333853,-0.0036651916,-0.042760566,-0.31337386
195579191611963,14.341855,-0.036651913,-0.08002335,-0.23151793
195579199595963,14.349839,-0.045814894,-0.12095132,-0.18387043
195579207650270,14.357893,-0.031154128,-0.17898351,-0.17959438
195579215687578,14.365931,-0.021380283,-0.21197024,-0.19853121
195579223719770,14.373963,-0.02321288,-0.23823744,-0.21868975
195579231764347,14.382008,-0.031154128,-0.25289822,-0.24923302
195579239736347,14.389980,-0.03848451,-0.24251351,-0.27916542
195579247825616,14.398069,-0.035430185,-0.2144137,-0.31642818
195579255760539,14.406004,-0.034208454,-0.18142697,-0.32498032
195579263792424,14.414036,-0.04153884,-0.14844026,-0.30848694
195579271803193,14.422046,-0.069027774,-0.092240654,-0.25900686
195579279784347,14.430028,-0.1001819,-0.030543262,-0.19303341
195579287834732,14.438078,-0.13255776,0.030543262,-0.10323623
195579295788616,14.446032,-0.16982053,0.08674286,0.05681047
195579303780039,14.454023,-0.18387043,0.093462385,0.19181168
195579311813732,14.462057,-0.18325958,0.04153884,0.35735616
195579319785770,14.470029,-0.16676621,-0.028710667,0.4465425
195579327871501,14.478115,-0.14477506,-0.10445796,0.49968776
195579335838270,14.486081,-0.12339478,-0.19058995,0.52412236
195579343869885,14.494113,-0.1142318,-0.22235495,0.5112942
195579351869154,14.502112,-0.10995574,-0.23151793,0.47525316
195579359894693,14.510138,-0.10262536,-0.21013765,0.41172317
195579367994270,14.518237,-0.08857546,-0.17959438,0.34697145
195579375949270,14.526192,-0.065973446,-0.14844026,0.25961772
195579383955501,14.534199,-0.012217305,-0.118507855,0.115453534
195579392001000,14.542244,0.036651913,-0.10140363,0.0018325958
195579399972270,14.550215,0.112399206,-0.10995574,-0.14172074
195579408129654,14.558373,0.15027285,-0.13988814,-0.23640485
195579416144270,14.566387,0.17287487,-0.1777618,-0.30543262
195579424256962,14.574500,0.16126843,-0.22602014,-0.344528
195579432265462,14.582509,0.11362094,-0.2302962,-0.32925636
195579440325731,14.590569,0.021991149,-0.1600467,-0.23762658
195579448460231,14.598703,-0.053145275,-0.07696902,-0.12095132
195579456450693,14.606694,-0.10751228,0.007941248,0.0018325958
195579464546308,14.614789,-0.12705997,0.050701816,0.13805555
195579472656923,14.622900,-0.09407325,0.032375857,0.19547687
195579480703462,14.630947,-0.031154128,-0.047036625,0.19914207
195579488852808,14.639096,0.0030543262,-0.119729586,0.16310102
195579496841385,14.647085,0.01282817,-0.18142697,0.11911872
195579504953346,14.655197,-0.004276057,-0.24740042,0.06536258
195579513035115,14.663278,-0.031154128,-0.267559,0.040927973
195579521096692,14.671340,-0.06414085,-0.2761111,-0.019547688
195579529220923,14.679464,-0.07513642,-0.2565634,-0.08674286
195579537191808,14.687435,-0.077579886,-0.23579398,-0.15515977
195579545263308,14.695506,-0.08246681,-0.21074851,-0.23457226
195579553383654,14.703627,-0.09040806,-0.18570304,-0.27977628
195579561377038,14.711620,-0.09040806,-0.17348573,-0.3231477
195579569535038,14.719778,-0.08979719,-0.16065755,-0.35002577
195579577504961,14.727748,-0.087964594,-0.14538592,-0.34025195
195579585536615,14.735780,-0.087964594,-0.12095132,-0.28099802
195579593538307,14.743781,-0.089186326,-0.1001819,-0.19914207
195579601519846,14.751763,-0.093462385,-0.080634214,-0.08552113
195579609605923,14.759849,-0.09590584,-0.08979719,0.09162979
195579617598153,14.767841,-0.11789699,-0.12156218,0.21563543
195579625625961,14.775869,-0.1459968,-0.15393804,0.32620203
195579633659384,14.783903,-0.19486602,-0.19975294,0.44959682
195579641629076,14.791872,-0.22907446,-0.24251351,0.5345071
195579649726538,14.799970,-0.25411993,-0.32375857,0.6151413
195579657660423,14.807904,-0.25473082,-0.38240165,0.63407815
195579665692038,14.815935,-0.23701571,-0.42455134,0.6200282
195579673693422,14.823937,-0.19547687,-0.52778757,0.5503896
195579681676115,14.831919,-0.16493362,-0.6462954,0.46670106
195579689750961,14.839994,-0.14355333,-0.73853606,0.3652974
195579697706999,14.847950,-0.13622294,-0.7483099,0.25045475
195579705695461,14.855939,-0.14844026,-0.6762278,0.18875736
195579713726076,14.863969,-0.17898351,-0.48624873,0.1563815
195579721697538,14.871941,-0.21074851,-0.30970868,0.14660765
195579729774730,14.880018,-0.2321288,-0.12950343,0.13500121
195579737710268,14.887953,-0.22785273,0.07269296,0.10323623
195579745741807,14.895985,-0.21319197,0.18203785,0.077579886
195579753744461,14.903988,-0.19120082,0.23945917,0.05497787
195579761726076,14.911969,-0.16432275,0.2602286,0.028099801
195579769840730,14.920084,-0.14110987,0.2406809,0.005497787
195579777794345,14.928038,-0.106901415,0.19242255,-0.027488936
195579785789307,14.936032,-0.052534413,0.08552113,-0.093462385
195579793828768,14.944072,-0.015882496,0.0018325958,-0.15882497
195579801825268,14.952068,0.026267206,-0.064751714,-0.25473082
195579809911499,14.960155,0.043982297,-0.070249505,-0.3200934
195579817845768,14.968089,0.05375614,-0.04337143,-0.36285394
195579825868845,14.976112,0.057421334,0.0421497,-0.3866777
195579833875537,14.984119,0.055588737,0.12156218,-0.3830125
195579841883883,14.992127,0.05009095,0.18753563,-0.3585779
195579849987191,15.000230,0.030543262,0.24678956,-0.27977628
195579857984037,15.008227,0.014049901,0.25717425,-0.19792034
195579865981960,15.016225,-0.004276057,0.21624629,-0.087964594
195579874021268,15.024264,-0.005497787,0.15454891,-0.02565634
195579881993768,15.032237,0.0012217305,0.073303826,0.017715093
195579890081268,15.040324,0.015882496,-0.022602014,0.042760566
195579898015729,15.048259,0.027488936,-0.07941248,0.0421497
195579906055729,15.056299,0.030543262,-0.10629055,0.040317107
195579914068575,15.064312,0.017715093,-0.0983493,0.05009095
195579922079652,15.072323,-0.002443461,-0.0580322,0.07086037
195579930173960,15.080417,-0.03359759,0.025045475,0.105068825
195579938196768,15.088440,-0.06719518,0.09468412,0.14172074
195579946233998,15.096477,-0.10751228,0.15943582,0.19364429
195579954300768,15.104544,-0.1777618,0.20219639,0.2687807
195579962270960,15.112514,-0.226631,0.20280726,0.3200934
195579970358921,15.120602,-0.26083946,0.16982053,0.35979962
195579978292691,15.128536,-0.28160888,0.06719518,0.40378192
195579986366575,15.136610,-0.28221974,-0.016493361,0.4202753
195579994421114,15.144664,-0.2687807,-0.108123146,0.42638394
195580002478498,15.152722,-0.26083946,-0.13927728,0.42638394
195580010570306,15.160813,-0.25961772,-0.12095132,0.43310347
195580018524229,15.168767,-0.267559,-0.05375614,0.44165558
195580026596152,15.176839,-0.27183503,0.018325957,0.44715336
195580034681998,15.184925,-0.26511553,0.10995574,0.43554693
195580042654575,15.192898,-0.25045475,0.13988814,0.40194935
195580050741229,15.200984,-0.23457226,0.13683382,0.36285394
195580058675152,15.208918,-0.22418754,0.093462385,0.31215215
195580066707229,15.216950,-0.22296582,0.03604105,0.26816985
195580074709998,15.224953,-0.22235495,-0.029932396,0.22113322
195580082690767,15.232934,-0.22357668,-0.09712757,0.15882497
195580090739036,15.240982,-0.20891592,-0.13622294,0.10873401
195580098691882,15.248935,-0.1777618,-0.15515977,0.050701816
195580106715767,15.256959,-0.1142318,-0.16615535,-0.03359759
195580114757805,15.265001,-0.0580322,-0.1863139,-0.105068825
195580122728498,15.272972,0.017715093,-0.19303341,-0.21380283
195580130814459,15.281058,0.062308256,-0.19181168,-0.30298916
195580138748036,15.288991,0.0983493,-0.18020524,-0.39461896
195580146778382,15.297022,0.12522738,-0.13988814,-0.50640726
195580154791651,15.305035,0.13927728,-0.1001819,-0.56688297
195580162773074,15.313016,0.15332718,-0.065973446,-0.6035349
195580170823651,15.321067,0.16920967,-0.021380283,-0.60903263
195580178778036,15.329021,0.1740966,0.01160644,-0.5717699
195580186814228,15.337057,0.17287487,0.05131268,-0.46731192
195580194845613,15.345089,0.1563815,0.07147124,-0.35979962
195580202817882,15.353061,0.1301143,0.08674286,-0.23701571
195580210916190,15.361159,0.10934488,0.05497787,-0.0983493
195580218852074,15.369095,0.115453534,-0.014049901,-0.043982297
195580226885267,15.377128,0.13316862,-0.09590584,-0.03176499
195580234887728,15.385131,0.1685988,-0.20891592,-0.06658431
195580242872151,15.393115,0.17715092,-0.28160888,-0.09712757
195580250924382,15.401168,0.15332718,-0.31215215,-0.105068825
195580258880766,15.409124,0.08735373,-0.28221974,-0.087964594
195580266878728,15.417122,0.032986723,-0.20525073,-0.06414085
195580274912189,15.425155,-0.03481932,-0.06780604,-0.030543262
195580282883574,15.433127,-0.06719518,0.04520403,-0.015271631
195580290972189,15.441215,-0.08857546,0.12583824,-0.017104227
195580298908266,15.449151,-0.10262536,0.15699236,-0.028099801
195580306940382,15.457184,-0.116675265,0.12889257,-0.025045475
195580314953343,15.465197,-0.124005646,0.07574729,0.0030543262
195580322935458,15.473179,-0.13744467,-0.0036651916,0.086132
195580330997074,15.481240,-0.1423316,-0.04886922,0.16126843
195580338951381,15.489195,-0.1386664,-0.092240654,0.24373524
195580346962766,15.497206,-0.12950343,-0.10445796,0.27000242
195580355002843,15.505246,-0.124005646,-0.08735373,0.27000242
195580362973228,15.513216,-0.11911872,-0.049480084,0.23762658
195580371094228,15.521337,-0.112399206,-0.012217305,0.19975294
195580379029035,15.529272,-0.105068825,0.030543262,0.1685988
195580387061266,15.537304,-0.09773844,0.08552113,0.15515977
195580395075304,15.545318,-0.09712757,0.106901415,0.17715092
195580403057381,15.553301,-0.10140363,0.1160644,0.22357668
195580411122035,15.561365,-0.118507855,0.118507855,0.29565877
195580419075843,15.569319,-0.1386664,0.10629055,0.35124752
195580427092881,15.577336,-0.15821409,0.069027774,0.4184427
195580435131958,15.585375,-0.16798794,0.034208454,0.45937067
195580443102535,15.593346,-0.17287487,0.0030543262,0.4831944
195580451185458,15.601429,-0.17654006,-0.035430185,0.48502702
195580459119612,15.609363,-0.17592919,-0.0580322,0.47158796
195580467151150,15.617394,-0.17654006,-0.07513642,0.44532076
195580475154035,15.625397,-0.16982053,-0.07941248,0.38789943
195580483137727,15.633381,-0.15393804,-0.07819075,0.3286455
195580491199881,15.641443,-0.118507855,-0.09162979,0.25045475
195580499154265,15.649397,-0.087964594,-0.1020145,0.19242255
195580507178881,15.657422,-0.049480084,-0.10751228,0.12156218
195580515214150,15.665457,-0.010995574,-0.09896017,0.016493361
195580523185727,15.673429,0.007941248,-0.07880162,-0.064751714
195580531274073,15.681517,0.02443461,-0.047036625,-0.15088372
195580539211035,15.689454,0.04153884,0.0,-0.25411993
195580547242150,15.697485,0.045814894,0.026267206,-0.31031954
195580555255881,15.705499,0.04642576,0.055588737,-0.34697145
195580563239381,15.713483,0.05131268,0.092240654,-0.35979962
195580571308227,15.721551,0.059253927,0.10629055,-0.3408628
195580579264227,15.729507,0.07880162,0.11301007,-0.2968805
195580587295534,15.737539,0.092240654,0.103847094,-0.2669481
195580595328457,15.745572,0.10445796,0.0842994,-0.23579398
195580603299534,15.753543,0.1142318,0.05497787,-0.19608775
195580611389804,15.761633,0.10751228,0.042760566,-0.16065755
195580619325073,15.769568,0.08735373,0.047647487,-0.11362094
195580627356227,15.777599,0.059864793,0.059253927,-0.045814894
195580635369611,15.785613,0.042760566,0.064751714,0.0012217305
195580643352150,15.793595,0.028099801,0.06963864,0.03970624
195580651447073,15.801690,0.02687807,0.06169739,0.037873644
195580659402188,15.809645,0.032375857,0.047647487,0.0067195175
195580667440380,15.817684,0.020158553,0.021991149,-0.04337143
195580675475034,15.825718,0.007941248,0.0012217305,-0.08124508
195580683447303,15.833690,-0.0018325958,-0.027488936,-0.12889257
195580691526226,15.841769,-0.010995574,-0.029932396,-0.19547687
195580699462880,15.849706,-0.015271631,6.1086525E-4,-0.23396139
195580707495726,15.857739,-0.035430185,0.059253927,-0.2602286
195580715510495,15.865754,-0.052534413,0.10751228,-0.2510656
195580723502726,15.873746,-0.07086037,0.1459968,-0.22479841
195580731591726,15.881835,-0.08246681,0.16432275,-0.16493362
195580739546880,15.889790,-0.0983493,0.1600467,-0.09712757
195580747548803,15.897792,-0.12583824,0.13500121,-0.015271631
195580755584072,15.905827,-0.1826487,0.093462385,0.106901415
195580763556572,15.913800,-0.23640485,0.0580322,0.1966986
195580771635880,15.921879,-0.2779437,0.01038471,0.26816985
195580779575264,15.929818,-0.30176744,-0.06414085,0.31581733
195580787609264,15.937852,-0.29932398,-0.106901415,0.32559118
195580795633764,15.945877,-0.28038713,-0.13805555,0.32986724
195580803615610,15.953859,-0.26267207,-0.13622294,0.3494149
195580811664880,15.961908,-0.24740042,-0.1160644,0.38606682
195580819621803,15.969865,-0.22418754,-0.07696902,0.43066
195580827636303,15.977879,-0.20525073,-0.05009095,0.44837508
195580835681995,15.985925,-0.18997909,-0.030543262,0.45631635
195580843653956,15.993897,-0.18325958,-0.02076942,0.43188173
195580851731072,16.001974,-0.18936823,-0.030543262,0.39278635
195580859666341,16.009910,-0.20280726,-0.053145275,0.32803464
195580867697610,16.017941,-0.21013765,-0.08246681,0.2742785
195580875699649,16.025943,-0.20647246,-0.1160644,0.22174409
195580883682610,16.033926,-0.18570304,-0.16187929,0.16310102
195580891733841,16.041977,-0.16493362,-0.1826487,0.12339478
195580899688533,16.049932,-0.15271631,-0.20097467,0.09162979
