time,seconds_elapsed,z,y,x
150421328016514,0.120223,0.061301,0.0383,0.011752
150421338017745,0.130224,-0.191612,-0.120777,-0.034143
150421348018951,0.140225,-0.472514,-0.309754,-0.07374
150421358020163,0.150226,-0.948384,-0.182531,-0.285806
150421368021369,0.160227,-1.604417,0.023547,-0.608698
150421378022510,0.170229,-1.998539,0.252935,-0.977236
150421388023744,0.180230,-2.23878,0.409158,-1.308437
150421398024975,0.190231,-2.290032,0.463214,-1.390161
150421408026201,0.200232,-2.09867,0.414996,-1.147722
150421418027436,0.210233,-1.5288,0.307133,-0.857927
150421428028681,0.220235,-0.941511,0.312435,-0.561069
150421438029927,0.230236,-0.766075,0.410741,-0.394504
150421448030924,0.240237,-0.678897,0.542604,-0.452894
150421458032153,0.250238,-0.901123,0.507388,-0.695367
150421468033389,0.260239,-1.340451,0.424736,-0.987323
150421478034619,0.270241,-1.542504,0.256308,-1.091005
150421488035850,0.280242,-1.512135,0.166637,-1.046019
150421498037077,0.290243,-1.097984,0.433538,-1.115985
150421508038308,0.300244,-0.711948,0.101922,-0.837146
150421518039519,0.310246,-0.319054,0.041027,-0.548196
150421528040674,0.320247,-0.216396,0.09197,-0.523681
150421538041980,0.330248,-0.277959,0.352002,-0.706698
150421548043218,0.340249,-0.448789,1.703239,-1.48727
150421558044358,0.350250,-0.721641,1.706774,-1.96736
150421568045572,0.360252,-0.838056,1.602767,-1.800894
150421578046773,0.370253,-0.829381,1.431871,-1.402913
150421588048004,0.380254,-0.654644,1.013255,-0.844112
150421598049226,0.390255,-0.545455,0.456939,-1.178171
150421608050457,0.400256,0.340081,1.828422,-1.866036
150421618051693,0.410258,0.64737,1.762551,-1.720347
150421628052924,0.420259,1.138694,1.799798,-1.252075
150421638054155,0.430260,0.432653,1.207406,-0.681118
150421648055375,0.440261,-0.115387,-0.387839,-1.759158
150421658056376,0.450262,-0.478042,0.626218,-0.554038
150421668057619,0.460264,-1.012957,1.283948,0.194353
150421678058836,0.470265,-0.634742,0.867835,0.327902
150421688060085,0.480266,-0.425354,0.872643,0.339122
150421698061316,0.490267,-0.559077,0.75885,0.107163
150421708062547,0.500269,-0.313471,0.91058,-0.163882
150421718063778,0.510270,-1.115794,1.045565,0.518123
150421728064934,0.520271,-1.102117,-0.177797,0.771641
150421738066239,0.530272,-0.249413,-0.210185,0.82759
150421748067409,0.540273,0.434741,0.247639,0.662564
150421758068653,0.550275,0.851944,0.439924,0.238441
150421768069879,0.560276,1.007967,0.607821,0.05511
150421778071124,0.570277,0.397672,0.715841,-0.214575
150421788072364,0.580278,-0.219586,0.270538,1.255904
150421798073595,0.590280,0.730268,-0.148113,0.1559
150421808074826,0.600281,-0.278989,1.169045,-0.452218
150421818076062,0.610282,-1.736849,0.880325,-0.767975
150421828077297,0.620283,-2.275864,0.712134,-0.712717
150421838078528,0.630285,-2.424245,-0.728995,0.888833
150421848079505,0.640286,-1.606381,-0.252429,-0.134667
150421858080749,0.650287,-2.12523,0.532159,-0.408816
150421868081965,0.660288,-2.037099,0.482135,-0.790286
150421878083196,0.670289,-1.951337,0.359003,-1.175925
150421888084431,0.680290,-2.130026,0.26031,-1.159901
150421898085662,0.690292,-2.277751,0.095412,-0.917697
150421908086893,0.700293,-2.08398,-0.068693,-0.615748
150421918088124,0.710294,-1.309021,-0.171416,-0.11654
150421928089326,0.720295,-1.015012,-0.076085,-0.691983
150421938090548,0.730297,-0.054869,0.263426,-0.96139
150421948091779,0.740298,0.934039,1.497338,-1.305558
150421958092991,0.750299,1.20178,0.951332,-1.219857
150421968094222,0.760300,0.748713,0.299604,-1.038753
150421978095372,0.770301,-0.119749,-0.103702,-0.179578
150421988096600,0.780303,-1.369796,-0.244388,0.408518
150421998097826,0.790304,-2.281624,-0.378327,0.593403
150422008099072,0.800305,-2.545982,-0.496518,0.528791
150422018100303,0.810306,-1.923105,0.036144,0.053962
150422028101543,0.820308,-1.044473,0.485965,-0.463782
150422038102779,0.830309,-0.734872,0.647289,-0.465128
150422048104010,0.840310,-0.428673,0.732944,0.056541
150422058105241,0.850311,-0.882542,0.623806,0.541251
150422068106458,0.860312,-0.956515,0.497071,0.735469
150422078107684,0.870314,-1.168281,0.290249,0.757481
150422088108915,0.880315,-1.13775,0.293067,0.865575
150422098109934,0.890316,-0.13387,0.455994,0.850808
150422108111394,0.900317,0.48122,0.974798,0.931093
150422118112642,0.910319,0.467633,1.296385,2.164163
150422128113882,0.920320,0.997457,0.921676,2.098475
150422138114882,0.930321,1.03753,0.527394,1.43622
150422148116110,0.940322,1.202878,0.646584,0.811418
150422158117336,0.950323,1.602862,0.910779,0.412221
150422168118567,0.960325,1.399434,1.144949,0.172254
150422178119798,0.970326,1.074744,1.43879,-0.134309
150422188121009,0.980327,0.996212,1.902622,-0.313334
150422198122239,0.990328,0.672285,2.05065,-0.269088
150422208123470,1.000329,0.301618,1.785392,-0.0681
150422218124687,1.010331,0.029807,1.3076,0.162962
150422228125913,1.020332,-0.025366,0.843538,0.27701
150422238127149,1.030333,0.024121,0.561948,0.192727
150422248128380,1.040334,0.174184,0.380782,-0.087895
150422258129625,1.050336,0.348804,0.270499,-0.330179
150422268130856,1.060337,0.663888,0.353249,-0.511166
150422278132077,1.070338,0.744014,0.487264,-0.542424
150422288133289,1.080339,0.737661,0.458492,-0.536884
150422298134525,1.090341,0.744151,0.299571,-0.424473
150422308135756,1.100342,0.891445,0.136183,-0.243147
150422318136987,1.110343,1.126254,-0.003371,-0.093808
150422328138218,1.120344,1.246074,-0.082292,-0.15427
150422338139448,1.130345,1.065951,-0.155636,-0.314919
150422348140678,1.140347,0.50588,-0.286763,-0.432496
150422358141903,1.150348,-0.119943,-0.418401,-0.45641
150422368143129,1.160349,-0.67099,-0.492198,-0.408985
150422378144360,1.170350,-1.140782,-0.407622,-0.573869
150422388145501,1.180352,-1.346082,-0.236572,-0.689923
150422398146816,1.190353,-1.438963,0.037615,-0.811002
150422408148049,1.200354,-1.597031,0.314778,-0.982255
150422418149266,1.210355,-1.643649,0.423746,-0.961592
150422428150477,1.220356,-1.654893,0.340842,-0.804318
150422438151703,1.230358,-1.160775,0.34253,-0.544969
150422448152853,1.240359,-0.778015,0.266384,-0.514585
150422458154172,1.250360,-0.425565,0.087692,-0.389349
150422468155328,1.260361,-0.053011,-0.136487,-0.067646
150422478156630,1.270363,0.253202,-0.233827,0.091445
150422488157862,1.280364,0.687988,-0.350998,0.144387
150422498159088,1.290365,0.904556,-0.496438,0.273952
150422508160319,1.300366,0.989491,-0.422892,0.267496
150422518161536,1.310368,0.899231,-0.701335,0.455222
150422528162767,1.320369,0.388786,-0.51678,0.075637
150422538163987,1.330370,0.296931,0.505268,-0.294516
150422548165217,1.340371,0.355757,0.708035,0.029835
150422558166467,1.350372,0.41078,0.073992,0.505352
150422568167627,1.360374,0.099117,-0.126359,0.506526
150422578168856,1.370375,-0.069679,-0.010633,0.171505
150422588170086,1.380376,0.126441,0.013401,0.033015
150422598171413,1.390377,0.32515,-0.00703,0.070316
150422608172646,1.400379,0.455535,-0.028503,0.166102
150422618173805,1.410380,0.467101,-0.151265,0.3381
150422628175129,1.420381,0.431737,-0.308425,0.600604
150422638176352,1.430382,0.401831,-0.408853,0.735178
150422648177583,1.440384,0.543993,-0.499627,0.84363
150422658178829,1.450385,0.583126,-0.625719,0.913821
150422668180069,1.460386,0.488705,-0.625765,0.865566
150422678181285,1.470387,0.291919,-0.554732,0.689748
150422688182516,1.480389,0.003274,-0.474555,0.470673
150422698183761,1.490390,-0.384514,-0.444532,0.211514
150422708185020,1.500391,-0.668561,-0.401933,-0.08374
150422718186237,1.510392,-0.807403,-0.262063,-0.324646
150422728187467,1.520393,-0.770216,-0.058016,-0.290951
150422738188669,1.530395,-0.669428,0.004764,-0.054264
150422748189893,1.540396,-0.493083,-0.070015,0.206385
150422758191134,1.550397,-0.331872,-0.175283,0.400855
150422768192350,1.560398,-0.149973,-0.220123,0.538527
150422778193581,1.570400,0.107197,-0.166604,0.596131
150422788194802,1.580401,0.18838,9.08E-4,0.490003
150422798196053,1.590402,0.200212,0.079342,0.415937
150422808197284,1.600403,0.164926,0.005043,0.447367
150422818198715,1.610405,0.121995,-0.169685,0.542665
150422828199717,1.620406,0.189314,-0.396408,0.773327
150422838200927,1.630407,0.551178,-0.585232,0.991158
150422848202158,1.640408,0.837605,-0.687006,1.09749
150422858203633,1.650410,0.994426,-0.644859,1.056438
150422868204636,1.660411,1.181741,-0.547261,0.954959
150422878206095,1.670412,1.103206,-0.423197,0.90965
150422888207342,1.680413,0.931111,-0.330692,0.889068
150422898208318,1.690414,0.653759,-0.267929,0.958305
150422908209547,1.700416,0.185118,-0.194223,1.001241
150422918211008,1.710417,-0.296232,-0.111417,1.035027
150422928212309,1.720418,-0.736186,-0.11982,1.091662
150422938213237,1.730419,-0.746728,-0.319688,1.241083
150422948214701,1.740421,-0.289978,-0.618007,1.478844
150422958215919,1.750422,0.140829,-0.719731,1.676839
150422968217150,1.760423,0.37148,-0.608361,1.692861
150422978218461,1.770424,0.474563,-0.432658,1.464231
150422988219694,1.780426,0.379736,-0.301227,1.147208
150422998220934,1.790427,0.251698,-0.319638,0.859667
150423008221872,1.800428,0.042657,-0.398613,0.691107
150423018223413,1.810429,-0.409633,-0.437031,0.54805
150423028224641,1.820431,-0.875262,-0.434459,0.403174
150423038225872,1.830432,-1.28267,-0.413919,0.252295
150423048227102,1.840433,-1.322853,-0.430411,0.12443
150423058228318,1.850434,-1.235882,-0.525674,0.082795
150423068229530,1.860436,-1.015209,-0.632788,0.103583
150423078230756,1.870437,-0.524756,-0.66215,0.215677
150423088232002,1.880438,0.048825,-0.637068,0.303887
150423098233232,1.890439,0.609567,-0.676913,0.352313
150423108234471,1.900440,1.168729,-0.727335,0.341399
150423118235701,1.910442,1.385995,-0.785201,0.437169
150423128236947,1.920443,1.341705,-0.897337,0.600696
150423138238182,1.930444,1.196898,-0.938351,0.549744
150423148239428,1.940445,0.912817,-0.837026,0.29362
150423158240659,1.950447,0.583123,-0.713514,0.077225
150423168241885,1.960448,0.111025,-0.590935,0.014123
150423178243116,1.970449,-0.247936,-0.419908,8.28E-4
150423188244337,1.980450,-0.291449,-0.228773,-0.062342
150423198245797,1.990452,-0.017636,-0.164578,-0.066229
150423208246799,2.000453,0.391465,-0.158309,-0.026807
150423218248038,2.010454,0.772372,-0.249939,0.056285
150423228249269,2.020455,0.976458,-0.446827,0.19568
150423238250514,2.030457,1.087326,-0.595748,0.232738
150423248251980,2.040458,1.089933,-0.636018,0.190997
150423258253213,2.050459,1.144566,-0.507985,0.118256
150423268254241,2.060460,1.009112,-0.217784,-0.011205
150423278255470,2.070461,0.632109,0.077289,-0.060997
150423288256701,2.080463,0.16245,0.259451,-0.081391
150423298257936,2.090464,-0.333777,0.223185,-0.062002
150423308259384,2.100465,-0.555424,0.098731,-0.117208
150423318260622,2.110467,-0.44377,-0.196002,-0.083379
150423328261866,2.120468,0.013907,-0.658069,0.257527
150423338263097,2.130469,0.703534,-0.908453,0.606996
150423348264328,2.140470,1.277123,-0.860961,0.80653
150423358265559,2.150472,1.663791,-0.775094,0.989494
150423368266804,2.160473,1.745378,-0.696994,1.0581
150423378268039,2.170474,1.542703,-0.591751,0.986677
150423388269269,2.180475,1.089429,-0.458935,0.979759
150423398270494,2.190476,0.465349,-0.399692,1.038406
150423408271725,2.200478,-0.133774,-0.303762,0.988181
150423418272951,2.210479,-0.698452,-0.22908,0.888317
150423428274168,2.220480,-1.156325,-0.233397,0.711934
150423438275155,2.230481,-1.537388,-0.237601,0.589903
150423448276615,2.240483,-1.859502,-0.165894,0.503197
150423458277862,2.250484,-1.924156,-0.055485,0.458648
150423468279093,2.260485,-1.790339,0.012578,0.545777
150423478280308,2.270486,-1.448603,0.060642,0.636437
150423488281539,2.280488,-0.961149,0.031119,0.634452
150423498282756,2.290489,-0.599554,-0.05621,0.518054
150423508283987,2.300490,-0.220648,-0.219845,0.339823
150423518285218,2.310491,0.111392,-0.417397,0.211808
150423528286218,2.320492,0.402543,-0.494667,0.181361
150423538287436,2.330493,0.594167,-0.375793,0.092487
150423548288879,2.340495,0.691117,-0.19944,-1.07E-4
150423558290126,2.350496,0.795062,-0.316306,0.134879
150423568291126,2.360497,0.852808,-0.621952,0.4265
150423578292355,2.370498,0.908765,-0.780663,0.674926
150423588293816,2.380500,0.873327,-0.567682,0.755655
150423598295049,2.390501,0.59197,-0.276093,0.697315
150423608296054,2.400502,-0.004779,-0.034681,0.475133
150423618297499,2.410503,-0.724388,0.055229,0.332665
150423628298732,2.420505,-1.42056,0.09898,0.236236
150423638299977,2.430506,-1.999861,0.183091,0.161361
150423648300997,2.440507,-2.348473,0.432356,0.037714
150423658302212,2.450508,-2.521798,0.707896,-0.100279
150423668303443,2.460509,-2.410515,0.927413,-0.307459
150423678304687,2.470511,-2.079807,0.841001,-0.369229
150423688305913,2.480512,-1.579789,0.483657,-0.364236
150423698307135,2.490513,-0.805463,0.085577,-0.282214
150423708308366,2.500514,0.178902,-0.242948,0.004235
150423718309822,2.510516,1.096026,-0.385784,0.266251
150423728310833,2.520517,1.947413,-0.378572,0.425588
150423738312062,2.530518,2.474832,-0.364201,0.394585
150423748313274,2.540519,2.544212,-0.338063,0.088032
150423758314505,2.550521,2.219045,-0.400741,-0.28445
150423768315722,2.560522,1.843876,-0.44136,-0.523082
150423778316961,2.570523,1.621797,-0.281144,-0.693914
150423788318187,2.580524,1.43832,0.061161,-0.786606
150423798319418,2.590525,1.206011,0.357942,-0.824667
150423808320644,2.600527,0.966817,0.575569,-0.65978
150423818321846,2.610528,0.7984,0.680674,-0.301302
150423828323077,2.620529,0.733483,0.77885,0.002411
150423838324304,2.630530,0.916082,0.92662,0.075395
150423848325549,2.640532,1.237645,0.996964,0.106109
150423858326766,2.650533,1.443707,0.900843,0.226716
150423868327987,2.660534,1.622227,0.770927,0.342475
150423878329227,2.670535,1.672359,0.794389,0.280214
150423888330381,2.680536,1.629585,0.996513,0.098838
150423898331596,2.690538,1.464139,1.282412,-0.157493
150423908332827,2.700539,1.106719,1.514077,-0.39288
150423918334067,2.710540,0.694203,1.693185,-0.492002
150423928335288,2.720541,0.38221,1.857448,-0.404424
150423938336519,2.730543,0.177684,1.98714,-0.169001
150423948337779,2.740544,0.107153,1.929814,0.177314
150423958339005,2.750545,0.246382,1.659872,0.553397
150423968340236,2.760546,0.55641,1.346122,0.815093
150423978341481,2.770547,0.806607,1.17077,0.785889
150423988342712,2.780549,0.742764,1.258783,0.411385
150423998343948,2.790550,0.149987,1.556322,-0.326401
150424008345193,2.800551,-0.800404,1.738708,-1.234594
150424018346194,2.810552,-1.889208,2.013315,-2.301467
150424028347422,2.820553,-2.637091,2.27341,-3.329178
150424038348663,2.830555,-2.935752,2.345767,-3.988608
150424048349889,2.840556,-2.971089,2.245466,-4.154025
150424058351125,2.850557,-2.484261,2.11131,-3.839165
150424068352341,2.860558,-1.506145,1.963171,-3.265966
150424078353571,2.870560,-0.354197,1.840426,-2.641212
150424088354817,2.880561,0.926707,1.855468,-2.1359
150424098356038,2.890562,1.988247,1.911503,-1.636462
150424108357269,2.900563,2.722651,1.877361,-1.175514
150424118358486,2.910564,2.899662,1.690416,-0.722316
150424128359698,2.920566,2.442353,1.338606,-0.387527
150424138360853,2.930567,1.56451,1.153672,-0.24744
150424148362077,2.940568,0.529474,1.186946,-0.188507
150424158363327,2.950569,-0.549695,0.998745,-0.122249
150424168364558,2.960571,-1.850068,0.674027,-0.232762
150424178365783,2.970572,-3.091332,0.361425,-0.513484
150424188367004,2.980573,-3.764369,0.088356,-0.855968
150424198368220,2.990574,-3.667104,-0.063126,-1.250811
150424208369451,3.000575,-2.861528,-0.156801,-1.622473
150424218370682,3.010577,-1.704814,-0.243674,-1.842058
150424228371674,3.020578,-0.672365,-0.349418,-1.878105
150424238372902,3.030579,-0.112692,-0.582732,-1.594396
150424248374133,3.040580,-0.011275,-0.918418,-1.041719
150424258375374,3.050581,-0.291839,-1.224348,-0.483311
150424268376600,3.060583,-0.704791,-1.457126,-0.117871
150424278377831,3.070584,-1.098512,-1.617214,-0.045376
150424288379075,3.080585,-1.26672,-1.838859,-0.102822
150424298380246,3.090586,-1.425183,-1.982539,-0.237993
150424308381561,3.100588,-1.629302,-2.064968,-0.339184
150424318382732,3.110589,-1.942803,-2.186609,-0.392425
150424328383951,3.120590,-2.23293,-2.167818,-0.427818
150424338385181,3.130591,-2.348934,-2.08144,-0.256722
150424348386412,3.140592,-2.457697,-1.898688,0.002881
150424358387648,3.150594,-2.619773,-1.650306,0.246206
150424368388903,3.160595,-2.764354,-1.487006,0.430496
150424378389910,3.170596,-3.079343,-1.386774,0.528572
150424388391139,3.180597,-3.426184,-1.31228,0.623503
150424398392397,3.190598,-3.664738,-1.278774,0.743864
150424408393619,3.200600,-3.757707,-1.283405,0.821352
150424418394835,3.210601,-3.713342,-1.25331,0.879069
150424428396086,3.220602,-3.484001,-1.225539,0.923713
150424438397246,3.230603,-3.253223,-1.365446,1.045106
150424448398551,3.240605,-3.113512,-1.50998,1.096214
150424458399707,3.250606,-3.011319,-1.593696,1.04022
150424468400951,3.260607,-2.995749,-1.699583,0.903889
150424478402187,3.270608,-3.123282,-1.739937,0.624714
150424488403398,3.280609,-3.367177,-1.70456,0.325931
150424498404619,3.290611,-3.654153,-1.654656,0.020502
150424508405625,3.300612,-3.83986,-1.542981,-0.236047
150424518406854,3.310613,-3.954089,-1.439289,-0.396653
150424528408071,3.320614,-3.883146,-1.332353,-0.515387
150424538409302,3.330615,-3.795705,-1.17713,-0.653514
150424548410514,3.340617,-3.726641,-0.930971,-0.701465
150424558411744,3.350618,-3.519928,-0.703578,-0.650152
150424568412910,3.360619,-3.102852,-0.473953,-0.560304
150424578414139,3.370620,-2.489702,-0.080379,-0.470026
150424588415351,3.380621,-1.816075,0.343906,-0.367596
150424598416596,3.390623,-1.222222,0.807541,-0.300962
150424608417826,3.400624,-0.390044,1.414088,-0.420931
150424618419067,3.410625,0.710073,1.879609,-0.574668
150424628420050,3.420626,1.54499,2.313022,-0.846336
150424638421274,3.430627,2.278302,2.923836,-1.339039
150424648422495,3.440628,2.88124,3.749882,-1.867241
150424658423637,3.450630,3.185465,4.366865,-2.286369
150424668424861,3.460631,3.774058,5.120311,-2.786764
150424678426091,3.470632,3.57923,5.496997,-3.39126
150424688427322,3.480633,3.444896,5.269899,-3.648545
150424698428538,3.490635,2.968054,5.42176,-3.867014
150424708429536,3.500636,2.553877,5.67159,-3.552758
150424718430774,3.510637,2.330122,5.363799,-2.69074
150424728432005,3.520638,2.69517,4.513798,-1.455573
150424738433235,3.530639,4.049917,3.250301,-0.12474
150424748434391,3.540640,5.482015,2.159036,0.853615
150424758435620,3.550642,6.814295,1.482081,1.288746
150424768436851,3.560643,8.137055,1.349896,1.334046
150424778438077,3.570644,8.920723,1.712764,1.273864
150424788439298,3.580645,8.909264,2.172114,1.269709
150424798440300,3.590646,7.692458,2.392142,1.308983
150424808441529,3.600648,5.514678,2.573052,1.404247
150424818442685,3.610649,3.567182,2.598375,1.409725
150424828443991,3.620650,1.286446,2.261198,1.438638
150424838445137,3.630651,-0.818782,1.966385,1.247172
150424848446365,3.640652,-2.475893,1.697494,0.833045
150424858447591,3.650654,-3.759162,1.451893,0.24592
150424868448822,3.660655,-4.714687,1.251102,-0.50304
150424878449819,3.670656,-4.944462,0.936103,-1.132038
150424888451048,3.680657,-4.666734,0.440145,-1.507386
150424898452219,3.690658,-3.981949,-0.163179,-1.58554
150424908453452,3.700659,-3.157679,-0.742097,-1.437714
150424918454682,3.710661,-2.604511,-1.166194,-1.244218
150424928455899,3.720662,-1.951588,-1.344308,-1.048054
150424938456901,3.730663,-1.518762,-1.594678,-1.027428
150424948458119,3.740664,-1.242293,-1.714114,-1.233596
150424958459350,3.750665,-1.385064,-1.711482,-1.578083
150424968460576,3.760667,-1.650283,-1.707681,-1.899735
150424978461731,3.770668,-1.934258,-1.760352,-2.048884
150424988462955,3.780669,-2.184657,-1.715342,-2.002697
150424998463953,3.790670,-2.284568,-1.446208,-1.911442
150425008465186,3.800671,-2.232241,-1.135488,-1.67696
150425018466417,3.810672,-2.092143,-0.876698,-1.33052
150425028467663,3.820674,-1.838481,-0.728012,-0.93844
150425038468818,3.830675,-1.741268,-0.626823,-0.497914
150425048470052,3.840676,-1.589247,-0.371566,-0.105175
150425058471292,3.850677,-1.509226,-0.254624,0.2647
150425068472294,3.860678,-1.532922,-0.081916,0.476633
150425078473518,3.870680,-1.429575,0.360641,0.302215
150425088474674,3.880681,-1.389826,0.770335,-0.087774
150425098475889,3.890682,-1.151059,0.909907,-0.395624
150425108477124,3.900683,-0.940896,1.024215,-0.595932
150425118478369,3.910684,-0.870361,1.225483,-0.672864
150425128479376,3.920685,-1.025659,1.436204,-0.516522
150425138480616,3.930687,-1.21198,1.72307,-0.430167
150425148481772,3.940688,-1.17677,1.935976,-0.532031
150425158483010,3.950689,-0.85357,2.057839,-0.673019
150425168484255,3.960690,-0.405467,2.249663,-0.815049
150425178485247,3.970691,-0.049723,2.248585,-0.639926
150425188486471,3.980692,0.193001,2.279784,-0.470526
150425198487692,3.990694,0.215998,2.777014,-0.574323
150425208488848,4.000695,0.685191,2.70436,-0.510802
150425218490073,4.010696,1.014355,2.695331,-0.475917
150425228491075,4.020697,1.251483,2.679745,-0.441132
150425238492293,4.030698,1.361479,2.53035,-0.429511
150425248493449,4.040699,1.333614,2.315231,-0.371106
150425258494688,4.050701,1.516081,2.032323,-0.141251
150425268495919,4.060702,1.774456,1.860011,0.142964
150425278496921,4.070703,2.114362,1.755327,0.399549
150425288498149,4.080704,2.352705,1.61006,0.729814
150425298499305,4.090705,2.371198,1.487866,0.923896
150425308500529,4.100707,2.322405,1.387877,0.900584
150425318501745,4.110708,2.218509,1.32546,0.643893
150425328502742,4.120709,1.962085,1.271969,0.327649
150425338503986,4.130710,1.461808,1.179002,0.035257
150425348505142,4.140711,0.851439,1.250552,-0.218847
150425358506375,4.150712,0.213921,1.289541,-0.322228
150425368507615,4.160714,-0.363107,1.226193,-0.312322
150425378508626,4.170715,-0.916256,1.051466,-0.214825
150425388509787,4.180716,-1.383544,0.826202,-0.054461
150425398511018,4.190717,-1.869064,0.697084,0.079104
150425408512030,4.200718,-2.102462,0.576111,0.109429
150425418513268,4.210719,-2.109969,0.399143,0.01776
150425428514480,4.220720,-1.941852,0.210837,-0.199866
150425438515641,4.230722,-1.748972,0.07262,-0.480087
150425448516869,4.240723,-1.575876,-0.005974,-0.687141
150425458518105,4.250724,-1.657134,-0.037488,-0.845337
150425468519121,4.260725,-1.88642,-0.053956,-0.965481
150425478520259,4.270726,-2.143615,-0.148273,-0.985572
150425488521494,4.280727,-2.349049,-0.19974,-0.993965
150425498522725,4.290729,-2.416016,-0.200516,-1.018006
150425508523733,4.300730,-2.283225,-0.261743,-1.006225
150425518524866,4.310731,-2.093967,-0.204784,-0.975958
150425528526086,4.320732,-1.996152,-0.026001,-0.984186
150425538527332,4.330733,-1.826534,0.182731,-1.013086
150425548528324,4.340734,-1.708996,0.317864,-1.040649
150425558529553,4.350736,-1.595824,0.394254,-1.023119
150425568530709,4.360737,-1.319178,0.409703,-0.969353
150425578531637,4.370738,-0.961461,0.458093,-0.947589
150425588532943,4.380739,-0.544498,0.448507,-0.931777
150425598534098,4.390740,-0.238843,0.582474,-0.913863
150425608535108,4.400741,-0.07377,0.974833,-0.942446
150425618536326,4.410742,-0.128893,1.350154,-0.995636
150425628537553,4.420744,-0.405944,1.447778,-1.009183
150425638538709,4.430745,-0.744314,1.44749,-1.089264
150425648539694,4.440746,-0.957381,1.513751,-1.204495
150425658540923,4.450747,-0.923539,1.638108,-1.273292
150425668542140,4.460748,-0.629076,1.735189,-1.300227
150425678543300,4.470749,-0.368513,1.779801,-1.350062
150425688544543,4.480751,-0.111137,1.690901,-1.3517
150425698545545,4.490752,-0.07755,1.573054,-1.257156
150425708546473,4.500752,-0.216782,1.634429,-1.31398
150425718547702,4.510754,-0.368359,1.664359,-1.484752
150425728548923,4.520755,-0.49558,1.62487,-1.708098
150425738549848,4.530756,-0.489125,1.630868,-1.880102
150425748551082,4.540757,-0.307463,1.598854,-1.877342
150425758552308,4.550758,-0.211734,1.491983,-1.796299
150425768553464,4.560759,-0.110033,1.465501,-1.667896
150425778554697,4.570761,-0.069288,1.601384,-1.516227
150425788555703,4.580762,-0.112717,1.562546,-1.286511
150425798556865,4.590763,-0.201087,1.368881,-1.083565
150425808558096,4.600764,-0.356793,1.182413,-0.933691
150425818559337,4.610765,-0.432643,1.132499,-0.904513
150425828560334,4.620766,-0.632639,1.278086,-0.994676
150425838561500,4.630768,-0.717683,1.391708,-1.167534
150425848562531,4.640769,-0.853799,1.236274,-1.148338
150425858563678,4.650770,-0.978197,1.063832,-1.092977
150425868564878,4.660771,-1.253267,1.084078,-1.079073
150425878565880,4.670772,-1.441508,1.107124,-1.061967
150425888567104,4.680773,-1.401063,0.952098,-1.00491
150425898568246,4.690774,-1.251307,0.74659,-0.862125
150425908569480,4.700775,-0.993612,0.542732,-0.73293
150425918570482,4.710776,-0.58359,0.448766,-0.685001
150425928571701,4.720778,-0.487376,0.59104,-0.763528
150425938572857,4.730779,-0.704065,0.731625,-0.85436
150425948573862,4.740780,-1.105097,0.825177,-1.034613
150425958574994,4.750781,-1.397744,0.798706,-1.220119
150425968576210,4.760782,-1.780923,0.59308,-1.306266
150425978577207,4.770783,-1.907298,0.544557,-1.330432
150425988578355,4.780784,-1.817503,0.557638,-1.146291
150425998579600,4.790786,-1.818521,0.487813,-0.817633
150426008580602,4.800787,-1.761232,0.537463,-0.507638
150426018581739,4.810788,-1.644182,0.549777,-0.37549
150426028582956,4.820789,-1.381432,0.518719,-0.437371
150426038583968,4.830790,-1.090099,0.625702,-0.824143
150426048585206,4.840791,-0.954856,0.638374,-1.147182
150426058586353,4.850792,-0.938214,0.555166,-1.274879
150426068587353,4.860793,-1.088454,0.592501,-1.258893
150426078588519,4.870795,-1.215244,0.68988,-1.16947
150426088589516,4.880796,-1.056026,0.676395,-1.03324
150426098590668,4.890797,-0.7631,0.663484,-0.849409
150426108591899,4.900798,-0.318622,0.828661,-0.750476
150426118592901,4.910799,-0.205144,0.938214,-0.704411
150426128594053,4.920800,-0.157811,0.963332,-0.674894
150426138595313,4.930801,-0.292452,1.060509,-0.780934
150426148596328,4.940802,-0.428629,1.01849,-0.775968
150426158597484,4.950803,-0.538591,0.99918,-0.735731
150426168598720,4.960805,-0.640009,1.180586,-0.761617
150426178599722,4.970806,-0.638058,1.25785,-0.700209
150426188600951,4.980807,-0.575288,1.146194,-0.568881
150426198602116,4.990808,-0.462888,1.105617,-0.426236
150426208603116,5.000809,-0.415621,1.168375,-0.353679
150426218604273,5.010810,-0.534923,1.354294,-0.455583
150426228605285,5.020811,-0.830738,1.565723,-0.760354
150426238606437,5.030812,-1.277923,1.575557,-1.073238
150426248607668,5.040814,-1.461626,1.443951,-1.421234
150426258608670,5.050815,-1.44495,1.412197,-1.652785
150426268609830,5.060816,-1.232527,1.301397,-1.69735
150426278610852,5.070817,-0.73733,1.13681,-1.450349
150426288612004,5.080818,-0.125345,1.105286,-1.049625
150426298613235,5.090819,0.492003,1.129751,-0.713874
150426308614208,5.100820,0.802599,1.197626,-0.53894
150426318615360,5.110821,0.80648,1.360151,-0.640494
150426328616376,5.120822,0.613862,1.367936,-0.723521
150426338617542,5.130824,0.241284,1.188122,-0.702169
150426348618540,5.140825,-0.312652,1.182183,-0.745581
150426358619773,5.150826,-0.699588,1.33117,-0.73207
150426393623698,5.185830,-0.871402,1.215781,-0.31992
150426403624698,5.195831,-0.880513,1.363448,-0.526879
150426413625847,5.205832,-0.941054,1.463228,-0.803035
150426423626862,5.215833,-1.130221,1.555162,-0.923756
150426433628011,5.225834,-0.974473,1.306864,-0.979131
150426443629011,5.235835,-0.806862,1.078018,-0.905993
150426453630223,5.245836,-0.586145,0.989798,-0.758582
150426463631366,5.255837,-0.182477,0.834898,-0.374322
150426473632366,5.265838,0.26004,0.671797,0.052947
150426483633520,5.275840,0.375792,0.692916,0.419706
150426493634491,5.285840,0.325181,0.832529,0.444987
150426503635631,5.295842,-0.029181,0.876179,0.150603
150426513636867,5.305843,-0.649849,0.785294,-0.263538
150426523637867,5.315844,-1.572463,0.578937,-0.682342
150426533639021,5.325845,-1.770392,0.717153,-0.909807
150426543640035,5.335846,-2.018334,0.32156,-0.918367
150426553641160,5.345847,-2.094771,0.401023,-0.955368
150426563642160,5.355848,-1.993622,0.40385,-0.747223
150426573643314,5.365849,-1.712084,0.3297,-0.500348
150426583644300,5.375850,-1.431915,0.359243,-0.44083
150426593645453,5.385851,-1.222816,0.492572,-0.537717
150426603646688,5.395853,-0.99502,0.519488,-0.802849
150426613647688,5.405854,-1.073233,0.449709,-1.067127
150426623648861,5.415855,-1.175987,0.606831,-1.246878
150426633649871,5.425856,-0.958744,0.338833,-1.272719
150426643651025,5.435857,-0.878586,0.228477,-1.215893
150426653652025,5.445858,-0.519165,0.234005,-0.996069
150426663653184,5.455859,-0.129347,0.130384,-0.621218
150426673654198,5.465860,0.116419,0.246448,-0.421054
150426683655338,5.475861,0.21796,0.351851,-0.444508
150426693656343,5.485862,-0.06709,0.363281,-0.561641
150426703657557,5.495864,-0.56056,0.431657,-0.738991
150426713658491,5.505864,-1.197384,0.453859,-0.838784
150426723659655,5.515866,-1.287558,0.763369,-0.803091
150426733660655,5.525867,-1.399409,0.462914,-0.7277
150426743661832,5.535868,-1.349568,0.643433,-0.786499
150426753663074,5.545869,-1.292471,0.782862,-0.670161
150426763663987,5.555870,-1.381532,0.947689,-0.632007
150426773664988,5.565871,-1.442143,1.059835,-0.579004
150426783666141,5.575872,-1.602997,0.979438,-0.528649
150426793667146,5.585873,-1.704538,0.906835,-0.6231
150426803668362,5.595874,-1.389043,0.852073,-0.731657
150426813669290,5.605875,-0.797409,0.671737,-0.684923
150426823670536,5.615877,-0.155446,0.525321,-0.416369
150426833671468,5.625877,0.382885,0.429225,-0.057748
150426843672608,5.635879,0.430298,0.515723,0.13998
150426853673622,5.645880,0.222476,0.847484,-0.049153
150426863674760,5.655881,-0.222208,1.094907,-0.437702
150426873675771,5.665882,-0.956245,1.132668,-0.890813
150426883676906,5.675883,-1.494574,1.267767,-1.23278
150426893678127,5.685884,-1.632975,1.262066,-1.162883
150426903679050,5.695885,-1.585651,1.070929,-0.67709
150426913680050,5.705886,-0.988094,0.998157,-0.128494
150426923681170,5.715887,-0.309144,0.955661,0.390834
150426933682165,5.725888,0.070742,0.93593,0.742013
150426943683393,5.735889,0.216071,1.080915,0.598211
150426953684319,5.745890,-0.057986,1.118661,0.226595
150426963685482,5.755891,-0.677036,1.005751,-0.195349
150426973686467,5.765892,-1.058947,0.984696,-0.678936
150426983687611,5.775894,-1.293301,0.82182,-0.861542
150426993688597,5.785895,-1.150126,0.578377,-0.736748
150427003689520,5.795896,-0.955481,0.610456,-0.44652
150427013690780,5.805897,-0.857913,0.730132,-0.093305
150427023691929,5.815898,-0.931137,0.974054,-0.061859
150427033692934,5.825899,-1.201518,1.187402,-0.343202
150427043694078,5.835900,-1.451416,1.153785,-0.65003
150427053695078,5.845901,-1.800797,1.178944,-0.999765
150427063696232,5.855902,-1.153875,1.043314,-1.208412
150427073697170,5.865903,-0.902578,0.671994,-0.980711
150427083698174,5.875904,-0.325779,0.591602,-0.633559
150427093699336,5.885905,0.257503,0.564259,0.047756
150427103700348,5.895906,0.600544,0.629585,0.751814
150427113701502,5.905908,0.758992,0.899428,1.056633
150427123702487,5.915908,0.416356,1.034899,1.055328
150427133703627,5.925910,-0.254468,1.139371,0.647179
150427143704550,5.935911,-0.892794,1.285627,0.070194
150427153705775,5.945912,-1.324158,1.255469,-0.364724
150427163706695,5.955913,-1.431746,0.965969,-0.339241
150427173707680,5.965914,-1.141451,0.861035,-0.006474
150427183708832,5.975915,-0.76352,0.917293,0.394671
150427193709834,5.985916,-0.41531,1.093739,0.627683
150427203710987,5.995917,-0.174125,1.413256,0.496461
150427213711907,6.005918,-0.080724,1.441692,0.228695
150427223713151,6.015919,-0.37124,1.275529,0.165183
150427233714074,6.025920,-0.779693,1.121697,0.158783
150427243715083,6.035921,-0.968663,0.796852,0.299934
150427253716233,6.045922,-0.870828,0.438554,0.52008
150427263717237,6.055923,-0.39954,0.318267,0.619703
150427273718160,6.065924,-1.248262,0.405057,0.442589
150427283719319,6.075925,-1.948088,0.654102,0.39426
150427293720319,6.085926,-2.301713,1.166024,-0.078875
150427303721487,6.095927,-2.288617,1.118986,-0.38306
150427313722492,6.105928,-1.759017,0.918759,-0.967341
150427323723661,6.115930,-0.627631,0.161922,0.591641
150427333724603,6.125931,-0.997703,0.610361,-0.779627
150427343725608,6.135932,-0.507871,0.781918,-0.204045
150427353726783,6.145933,-0.777576,0.769279,0.077147
150427363727771,6.155934,-1.270387,0.571803,0.388932
150427373728929,6.165935,-1.301819,0.878576,0.032775
150427383729857,6.175936,-0.675282,0.784587,-0.178761
150427393731088,6.185937,-0.024903,0.904501,-0.643303
150427403732011,6.195938,0.432768,1.039967,-1.035196
150427413733025,6.205939,0.64282,0.909853,-0.865963
150427423734169,6.215940,0.843418,0.454713,-0.355985
150427433735092,6.225941,1.138269,0.283014,-0.098668
150427443736323,6.235942,1.103025,0.395199,0.044699
150427453737264,6.245943,0.436454,0.650501,0.095574
150427463738266,6.255944,-0.55602,1.008401,-0.037149
150427473739419,6.265945,-1.892443,1.22358,-0.28355
150427483740342,6.275946,-2.747361,1.274573,-0.60228
150427493741342,6.285947,-3.076957,0.968212,-0.773185
150427503742492,6.295948,-2.585633,0.4629,-0.549655
150427513743400,6.305949,-2.036099,0.159142,-0.171691
150427523744387,6.315950,-1.524204,0.049101,0.332168
150427533745524,6.325952,-1.04914,-0.002049,0.793173
150427543746526,6.335953,-0.958598,0.05343,1.057911
150427553747680,6.345954,-1.095955,0.356297,0.861677
150427563748603,6.355955,-1.070751,0.848888,0.207619
150427573749603,6.365956,-1.615699,1.057263,-0.440267
150427583750526,6.375957,-2.105898,0.851175,-0.881908
150427593751685,6.385958,-2.358529,0.532377,-1.056948
150427603752680,6.395959,-2.213878,0.133614,-0.578662
150427613753826,6.405960,-1.698648,-0.109603,0.069626
150427623754814,6.415961,-1.113862,-0.183361,0.807635
150427633755732,6.425962,-0.672273,0.056212,1.265015
150427643756879,6.435963,-0.442935,0.590383,1.307907
150427653757876,6.445964,-0.557708,1.070904,1.026612
150427663759030,6.455965,-0.714612,1.306697,0.734074
150427673759953,6.465966,-0.6534,1.267599,0.489459
150427683760886,6.475967,-0.094618,0.925559,0.630891
150427693762136,6.485968,-0.034875,0.721434,0.888434
150427703763071,6.495969,-0.220859,0.885045,1.087369
150427713764073,6.505970,-0.624909,1.265364,1.106706
150427723765225,6.515971,-1.230439,1.624335,0.932919
150427733766150,6.525972,-1.579021,1.645623,0.727619
150427743767143,6.535973,-1.454654,1.398916,0.627673
150427753768309,6.545974,-1.05988,1.228835,0.439448
150427763769230,6.555975,-0.723967,1.3287,0.253157
150427773770237,6.565976,-0.663456,1.510892,-0.06531
150427783771180,6.575977,-0.966491,1.675655,-0.402004
150427793772334,6.585978,-1.045156,1.750076,-0.732632
150427803773339,6.595979,-1.117788,1.720804,-0.963706
150427813774498,6.605980,-1.245357,1.438677,-0.996894
150427823775426,6.615981,-1.234149,1.072826,-0.623624
150427833776426,6.625982,-1.112191,1.047861,-0.411854
150427843777348,6.635983,-0.939106,1.214613,-0.346154
150427853778502,6.645985,-0.764184,1.459338,-0.564214
150427863779472,6.655985,-0.931679,1.58895,-0.796788
150427873780397,6.665986,-1.097003,1.415186,-0.760222
150427883781549,6.675988,-1.043709,0.957736,-0.536624
150427893782488,6.685988,-0.856169,-0.030011,-0.433679
150427903783493,6.695989,-0.432612,-0.497205,0.461873
150427913784647,6.705991,-0.071211,-0.470209,1.40218
150427923785649,6.715992,6.25E-4,-0.317072,2.035442
150427933786560,6.725993,-0.189085,0.001949,2.196514
150427943787712,6.735994,-0.882456,0.348438,1.736203
150427953788637,6.745995,-1.872131,0.6329,0.940446
150427963789637,6.755996,-3.070697,1.003912,-0.023609
150427973790555,6.765997,-3.279652,1.119247,-0.942995
150427983791712,6.775998,-3.463707,0.825455,-1.211503
150427993792642,6.785999,-2.86713,0.338045,-0.90102
150428003793627,6.796000,-1.99336,0.016644,-0.015319
150428013794781,6.806001,-1.72166,0.08462,0.620534
150428023795707,6.816002,-1.327008,0.380322,0.930909
150428033796723,6.826003,-0.850808,0.83017,1.094984
150428043797875,6.836004,-1.389097,1.414405,0.838348
150428053798800,6.846005,-1.756023,1.70696,0.581475
150428063799798,6.856006,-1.657174,1.745739,0.436029
150428073800709,6.866007,-1.709541,1.711211,0.648341
150428083801856,6.876008,-1.358895,1.705922,0.703826
150428093802781,6.886009,-0.242137,1.775803,0.282003
150428103803781,6.896010,0.679687,1.846109,-0.27217
150428113804933,6.906011,1.774507,1.821122,-0.767077
150428123805842,6.916012,2.64629,1.483739,-0.447878
150428133806857,6.926013,2.441348,1.39907,0.108676
150428143808021,6.936014,2.049518,1.191699,0.740497
150428153808944,6.946015,1.314792,1.010201,1.253194
150428163809855,6.956016,0.102891,1.532539,0.69187
150428173810857,6.966017,0.638968,2.199547,0.728112
150428183812019,6.976018,1.880869,2.827799,0.773776
150428193812943,6.986019,2.911999,2.70433,1.146402
150428203813956,6.996020,3.316589,2.513059,1.110038
150428213814881,7.006021,3.181452,2.280677,0.357164
150428223816038,7.016022,2.664715,2.139493,-0.582168
150428233816948,7.026023,2.124921,2.295078,-1.142739
150428243817963,7.036024,1.316086,2.260729,-1.246287
150428253819102,7.046025,0.550137,1.651852,-2.715536
150428263820009,7.056026,1.010759,1.546379,-1.461861
150428273820948,7.066027,1.640622,1.526245,0.495853
150428283822177,7.076028,1.46157,1.818732,2.277337
150428293822871,7.086029,2.128911,2.281812,2.588657
150428303824029,7.096030,2.165235,2.52369,2.692842
150428313825016,7.106031,2.029732,2.401153,2.31365
150428323825949,7.116032,1.742533,1.937032,0.297287
150428333826872,7.126033,1.814357,1.82726,0.162006
150428343828024,7.136034,2.127798,2.070551,1.040443
150428353829031,7.146035,1.40321,1.841028,1.434421
150428363829954,7.156036,-0.051672,2.209461,1.610602
150428373831088,7.166037,-0.878001,1.745634,1.633881
150428383831995,7.176038,-1.848276,0.715997,1.695585
150428393832997,7.186039,-2.84332,0.401887,1.430066
150428403834158,7.196040,-3.01947,1.315377,1.197583
150428413835081,7.206041,-2.69145,1.317627,1.222018
150428423836024,7.216042,-1.663305,1.396309,0.683083
150428433837026,7.226043,-0.998185,1.375147,0.075242
150428443837964,7.236044,-0.484773,0.906546,-0.108135
150428453839103,7.246045,-0.303341,0.367339,-0.006284
150428463840025,7.256046,-0.408304,-0.217709,0.344558
150428473841021,7.266047,0.511549,-0.248813,0.457622
150428483841944,7.276048,1.677638,0.323741,-0.237626
150428493843084,7.286049,1.255008,-0.219091,-0.385573
150428503844005,7.296050,1.437748,-0.369702,0.547671
150428513844993,7.306051,-0.00187,0.428984,-0.510089
150428523845916,7.316052,-1.593097,0.026142,-0.148019
150428533847070,7.326053,-1.758228,0.168693,-0.235537
150428543847996,7.336054,-1.912231,0.591142,-0.569186
150428553849025,7.346055,-1.949218,0.920092,-1.116826
150428563849944,7.356056,-2.156815,0.74179,-1.142333
150428573851098,7.366057,-1.596938,0.300965,-0.901219
150428583852019,7.376058,-0.907682,0.58025,-0.712873
150428593852944,7.386059,-0.293692,1.182158,-0.73173
150428603853925,7.396060,0.543362,1.254384,-0.229349
150428613855079,7.406061,-1.368559,0.807872,-0.811746
150428623856000,7.416062,-3.372197,0.439852,-1.168447
150428633856925,7.426063,-3.331693,1.125726,-1.750607
150428643857925,7.436064,-2.536932,1.090554,-1.69315
150428653859079,7.446065,-1.53096,0.99708,-1.305772
150428663860014,7.456066,-1.386753,1.335497,-1.538753
150428673860939,7.466067,-1.147628,1.695108,-1.348332
150428683861967,7.476068,-0.247948,1.206787,-1.186026
150428693862890,7.486069,0.794529,0.807773,-0.784906
150428703864042,7.496070,1.167491,0.404632,-0.282515
150428713864967,7.506071,1.215582,0.859508,-0.22402
150428723865953,7.516072,0.491404,0.744903,0.47957
150428733867112,7.526073,0.401425,1.290233,0.632576
150428743868033,7.536074,-0.52911,1.609754,0.720443
150428753869054,7.546075,-1.275006,1.510012,0.774519
150428763869962,7.556076,-1.479293,1.321392,0.681688
150428773870900,7.566077,-1.138343,0.973335,1.000246
150428783872047,7.576078,-0.533676,1.001415,1.487045
150428793872967,7.586079,-0.395565,1.010643,1.946234
150428803873965,7.596080,-0.41341,1.385565,1.914842
150428813874891,7.606081,-0.97866,1.70545,1.38752
150428823876042,7.616082,-1.862453,1.64935,0.675187
150428833876953,7.626083,-2.296183,1.208457,0.213971
150428843877951,7.636084,-2.291922,0.816349,0.099711
150428853878848,7.646085,-2.075696,0.63083,0.270189
150428863880004,7.656086,-1.475409,0.698129,0.306392
150428873880944,7.666087,-0.781435,0.846617,0.064355
150428883881937,7.676088,-0.835898,0.869543,-0.215894
150428893882862,7.686089,-0.452852,0.438126,-0.380669
150428903884011,7.696090,-0.368717,-0.043957,-0.360598
150428913884916,7.706091,-0.489755,-0.234076,-0.157248
150428923885837,7.716092,0.33179,-0.020567,0.024363
150428933886839,7.726093,1.762724,0.245715,0.091321
150428943887762,7.736094,1.926374,0.375683,-0.016043
150428953888680,7.746095,1.221675,0.474278,-0.124535
150428963889832,7.756096,0.479943,0.18893,0.154071
150428973890834,7.766097,-0.073913,0.063747,0.511001
150428983891757,7.776098,-0.703447,0.199218,0.546409
150428993892680,7.786099,-0.921011,0.892868,0.373938
150429003893846,7.796100,-1.626684,0.920571,0.181989
150429013894834,7.806101,-1.905542,0.847728,-0.131655
150429023895771,7.816102,-1.778629,0.714904,-0.333954
150429033896689,7.826103,-1.730583,0.511832,-0.33076
150429043897832,7.836104,-1.413167,0.207927,-0.12857
150429053898762,7.846105,-0.895641,0.220085,-0.003965
150429063899759,7.856106,-0.48141,0.418172,0.004948
150429073900698,7.866107,-0.34473,0.829224,-0.292117
150429083901850,7.876108,-0.361792,0.864563,-0.411135
150429093902766,7.886109,-0.362213,0.583395,-0.33995
150429103903764,7.896110,-0.840151,0.265093,-0.183049
150429113904689,7.906111,-0.932658,-0.04585,0.015326
150429123905848,7.916112,-0.27538,0.00762,-0.007214
150429133906799,7.926113,-0.652215,0.745842,-0.225918
150429143907802,7.936114,-0.2656,1.271567,-0.296257
150429153908727,7.946115,-0.034463,0.940533,-0.017063
150429163909874,7.956116,-0.577342,0.360553,0.152503
150429173910554,7.966117,-0.092448,-0.125887,0.291327
150429183911721,7.976118,0.926959,-0.25812,0.76866
150429193912727,7.986119,1.161113,-0.108331,0.82778
150429203913650,7.996120,1.702345,0.479091,0.446215
150429213914804,8.006121,1.330679,0.985106,-0.030289
150429223915735,8.016122,0.08982,0.994316,-0.295765
150429233916732,8.026123,-1.070376,0.800782,-0.359459
150429243917655,8.036124,-2.343092,0.551031,-0.182741
150429253918785,8.046125,-2.662487,0.218118,0.047371
150429263919721,8.056126,-1.940559,0.473274,-0.006165
150429273920722,8.066127,-1.005704,0.909441,-0.492546
150429283921660,8.076128,-0.716732,0.782725,-0.746744
150429293922809,8.086129,-0.317751,0.329264,-0.666793
150429303923711,8.096130,-0.038444,-0.085033,-0.596516
150429313924631,8.106131,0.444333,-0.296834,-0.503772
150429323925629,8.116132,1.188127,-0.179253,-0.198873
150429333926559,8.126133,1.18011,0.296441,-0.081869
150429343927711,8.136134,0.137543,0.793551,-0.439649
150429353928650,8.146135,-0.610183,0.714948,-0.640087
150429363929571,8.156136,-0.837243,0.52055,-0.420228
150429373930583,8.166137,-0.632408,0.354304,-0.088751
150429383931737,8.176138,-0.478964,0.164657,0.215722
150429393932645,8.186139,-0.003929,-0.057544,0.545931
150429403933581,8.196140,0.901975,-0.157671,0.736314
150429413934597,8.206141,1.256282,-0.322548,0.525771
150429423935539,8.216142,0.688098,-0.458003,0.359886
150429433936693,8.226143,0.221965,-0.331171,0.255117
150429443937691,8.236144,-0.032912,-0.246238,0.137134
150429453938602,8.246145,-1.002831,-0.230051,-0.356891
150429463939525,8.256146,-1.738675,1.532642,-0.298486
150429473940679,8.266147,-1.825481,1.490853,-0.548243
150429483941681,8.276148,-2.374777,0.466888,-1.081879
150429493942606,8.286149,-2.494524,0.531022,-0.985071
150429503943536,8.296150,-1.324122,0.325706,-0.818179
150429513944675,8.306151,-0.164164,0.020198,-0.513158
150429523945582,8.316152,0.546399,0.317318,0.074213
150429533946522,8.326153,1.46981,0.415355,0.389965
150429543947735,8.336154,1.275002,0.177216,0.658141
150429553948659,8.346155,1.430716,0.189685,0.608151
150429563949582,8.356156,1.508129,0.192891,0.431561
150429573950575,8.366157,0.727928,0.432677,0.03459
150429583951498,8.376157,-0.046191,0.603632,-0.019221
150429593952637,8.386159,-0.133468,0.834742,-0.058932
150429603953544,8.396160,0.299905,1.075263,-0.27368
150429613954551,8.406161,0.965031,0.904264,-0.206652
150429623955474,8.416161,0.778788,0.514503,0.008454
150429633956396,8.426162,0.628501,0.090341,0.341144
150429643957548,8.436164,0.896856,-0.102313,0.701844
150429653958560,8.446165,1.250956,-0.022161,0.610008
150429663959483,8.456165,1.642673,0.33016,0.048543
150429673960631,8.466167,1.028144,0.496502,-0.651894
150429683961552,8.476168,0.046686,0.304492,-0.978536
150429693962569,8.486169,-1.165811,-0.114946,-0.770717
150429703963491,8.496169,-1.147568,-0.364643,-0.384359
150429713964645,8.506171,-0.331578,-0.485305,0.018897
150429723965566,8.516172,0.080149,-0.519004,0.454763
150429733966506,8.526173,0.50606,-0.698659,0.727801
150429743967735,8.536174,0.811726,-0.750416,0.689959
150429753968660,8.546175,0.753809,-0.456246,0.216016
150429763969581,8.556176,-0.039506,-0.322095,-0.192474
150429773970588,8.566177,-0.656062,-0.334596,-0.29296
150429783971506,8.576178,-1.736271,-0.43619,-0.245463
150429793972660,8.586179,-2.277169,-0.273407,-0.120698
150429803973581,8.596180,-2.039264,-0.157943,-0.173943
150429813974583,8.606181,-1.681977,-0.095901,-0.157899
150429823975735,8.616182,-1.130447,-0.077477,-0.020943
150429833976648,8.626183,-0.595583,-0.074571,0.040404
150429843977650,8.636184,-0.092251,-0.013639,-0.111404
150429853978559,8.646185,-0.054379,-0.312953,0.052534
150429863979706,8.656186,0.091436,-0.548097,0.274598
150429873980631,8.666187,0.202961,-0.434334,0.245927
150429883981616,8.676188,0.589791,-0.282433,0.132655
150429893982756,8.686189,0.766259,-0.01539,-0.095725
150429903983662,8.696190,0.823984,0.353265,-0.307264
150429913984587,8.706191,0.38321,0.148788,-0.054917
150429923985585,8.716192,-0.500918,-0.138678,0.495326
150429933986526,8.726193,-0.320843,-0.006402,0.608198
150429943987672,8.736194,0.54617,0.594932,0.394855
150429953988674,8.746195,0.806822,0.838934,-0.11604
150429963989582,8.756196,0.476849,0.909378,-0.452124
150429973990511,8.766197,-0.089847,0.688436,-0.44448
150429983991662,8.776198,-0.440864,0.300463,-0.162903
150429993992664,8.786199,-0.639789,0.23402,-0.239165
150430003993603,8.796200,-0.253626,0.11277,-0.085115
150430013994756,8.806201,0.695892,0.19473,0.064515
150430023995693,8.816202,1.282327,0.497214,0.007966
150430033996699,8.826203,1.384215,0.472278,0.025903
150430043997850,8.836204,1.06941,0.273229,0.204137
150430053998776,8.846205,0.49249,0.079803,0.319182
150430063999788,8.856206,0.252866,-0.031365,0.479801
150430074000713,8.866207,0.13006,-0.003444,0.408808
150430084001636,8.876208,0.111929,0.295082,0.023226
150430094002790,8.886209,-0.171927,0.573443,-0.433196
150430104003790,8.896210,-0.422111,0.580395,-0.448053
150430114004713,8.906211,-0.517119,0.380614,-0.166771
150430124005870,8.916212,-0.588834,0.348432,0.113325
150430134006795,8.926213,-1.082485,0.48435,0.337974
150430144007809,8.936214,-1.079021,0.910184,0.070449
150430154008959,8.946215,-1.160209,1.00387,-0.340852
150430164009879,8.956216,-1.109713,0.469074,-0.2762
150430174010853,8.966217,-0.216187,0.153472,-0.158643
150430184011762,8.976218,0.995992,-0.170505,0.104956
150430194012901,8.986219,1.433022,-0.33462,0.347919
150430204013894,8.996220,1.493724,-0.231255,0.410719
150430214014814,9.006221,1.228659,-0.279491,0.319045
150430224015966,9.016222,0.593759,-0.251127,-0.105275
150430234016982,9.026223,0.154616,-0.215061,-0.551954
150430244017905,9.036224,-0.329918,-0.262078,-0.7424
150430254019059,9.046225,-0.38138,-0.186925,-0.62348
150430264019980,9.056226,-0.876305,-0.034892,-0.72891
150430274020896,9.066227,-1.263736,0.037679,-0.722111
150430284021896,9.076228,-1.411391,-0.026313,-0.78009
150430294022804,9.086229,-1.217783,-0.294813,-0.68155
150430304023956,9.096230,-0.697263,-0.488857,-0.628575
150430314024958,9.106231,-0.519548,-0.722294,-0.374652
150430324025881,9.116232,-0.760189,-0.954341,0.006632
150430334027035,9.126233,-0.562785,-1.062541,0.221388
150430344027970,9.136234,-0.412303,-1.134224,-0.105523
150430354028992,9.146235,-0.301907,-1.058748,-0.516798
150430364030159,9.156236,-0.473295,-0.684094,-1.242348
150430374031088,9.166237,-0.865696,-0.461192,-1.567327
150430384032097,9.176238,-1.469996,-0.453122,-0.867203
150430394033016,9.186239,-1.539233,-0.197973,-0.495267
150430404033925,9.196240,-0.924584,-0.235515,-0.091325
150430414035169,9.206241,0.49883,-0.463249,0.19822
150430424036107,9.216242,1.150664,-0.482952,0.248681
150430434037261,9.226243,1.273899,-0.50637,0.140013
150430444038259,9.236244,1.471611,-0.945116,-0.048043
150430454039179,9.246245,1.705367,-0.861239,-0.301496
150430464040345,9.256246,1.537732,-0.502148,0.04861
150430474041270,9.266247,0.7817,-0.103253,0.500301
150430484042191,9.276248,0.025921,0.449821,0.60145
150430494043422,9.286249,-0.58482,0.816044,0.318202
150430504044350,9.296250,-0.974329,0.999332,0.040918
150430514045275,9.306251,-1.342404,0.838658,-0.154106
150430524046268,9.316252,-0.992133,0.21731,0.240626
150430534047193,9.326253,-0.040014,-0.266913,0.663289
150430544048345,9.336254,0.955712,-0.265941,0.809228
150430554049270,9.346255,1.088773,0.27908,0.532839
150430564050266,9.356256,1.211237,0.649498,0.232186
150430574051424,9.366257,0.537526,0.730413,0.304741
150430584052345,9.376258,-0.119168,0.392742,0.53437
150430594053333,9.386259,-0.582893,0.053155,1.210724
150430604054472,9.396260,-0.192591,0.124,1.627518
150430614055395,9.406261,0.437625,0.449194,1.492862
150430624056395,9.416262,0.594354,0.947368,0.841534
150430634057318,9.426263,0.126887,1.132865,0.286364
150430644058466,9.436264,-0.260312,1.196555,-0.064166
150430654059391,9.446265,-0.682343,0.971237,0.113022
150430664060405,9.456266,-0.808936,0.516314,0.331781
150430674061323,9.466267,-0.634828,0.069182,0.41094
150430684062475,9.476268,0.550782,0.003006,0.226687
150430694063400,9.486269,1.453741,0.230788,-0.212004
150430704064400,9.496270,1.752987,0.379087,-0.591249
150430714065554,9.506272,1.336952,0.115817,-0.581832
150430724066552,9.516273,1.182216,-0.62414,0.104797
150430734067713,9.526274,1.448857,-1.138292,0.986278
150430744068629,9.536275,2.139353,-1.151515,1.549706
150430754069631,9.546276,2.561159,-1.054551,1.667311
150430764070554,9.556277,1.896932,-0.608595,1.004799
150430774071713,9.566278,0.794634,-0.101105,0.107085
150430784072638,9.576279,-0.515562,-0.083659,-0.37726
150430794073624,9.586280,-2.013665,-0.427102,-0.30002
150430804074555,9.596281,-3.263505,-0.853235,-0.015573
150430814075717,9.606282,-2.689381,-1.101075,0.493209
150430824076639,9.616283,-1.197162,-0.941421,0.77666
150430834077651,9.626284,-0.298933,-0.480598,0.365287
150430844078559,9.636285,-0.097819,0.047515,-0.289718
150430854079713,9.646286,-1.103881,0.468546,-0.912623
150430864080707,9.656287,-2.13095,0.6085,-0.994209
150430874081632,9.666288,-2.788128,0.503227,-1.015979
150430884082784,9.676289,-2.951108,-0.436156,-0.641376
150430894083709,9.686290,-1.59524,-1.166096,0.168036
150430904084702,9.696291,0.601831,-1.022628,0.563848
150430914085862,9.706292,2.200519,-0.503217,0.507181
150430924086783,9.716293,3.370306,-0.212643,0.462691
150430934087785,9.726294,3.343562,-0.53398,0.513103
150430944088929,9.736295,2.593221,-0.955184,0.895064
150430954089849,9.746296,1.455064,-0.621752,0.90708
150430964090783,9.756297,0.377624,0.050795,0.629601
150430974091785,9.766298,-0.47959,0.696635,-0.077232
150430984092947,9.776299,-0.931688,0.908944,-0.589135
150430994093867,9.786300,-1.155013,0.686778,-0.511795
150431004094858,9.796301,-1.072801,0.179214,0.196173
150431014096011,9.806302,-0.110923,0.157173,0.843119
150431024096932,9.816303,0.91411,0.85094,0.927379
150431034097877,9.826304,1.351878,1.339224,0.525725
150431044098877,9.836305,1.030654,1.176769,0.303165
150431054100030,9.846306,0.646314,0.594756,0.500579
150431064100951,9.856307,0.873825,-0.12912,0.904882
150431074101939,9.866308,1.824042,-0.553314,1.377072
150431084103091,9.876309,2.357391,-0.344074,1.251156
150431094104093,9.886310,2.630882,0.015715,1.06011
150431104105021,9.896311,1.973445,0.475906,0.404978
150431114106180,9.906312,0.258872,0.772419,-0.073284
150431124107101,9.916313,-0.822246,0.900668,-0.530394
150431134108026,9.926314,-1.733107,0.849782,-0.776671
150431144109026,9.936315,-1.628955,0.798739,-0.857643
150431154110165,9.946316,-0.645139,0.682961,-0.652476
150431164111086,9.956317,0.398346,0.759482,-0.448448
150431174112088,9.966318,0.861429,0.796321,-0.283546
150431184113011,9.976319,0.883898,0.703895,-0.178555
150431194114180,9.986320,0.741169,0.278441,0.105199
150431204115163,9.996321,1.272594,-0.372271,0.776648
150431214116103,10.006322,1.720373,-0.791224,1.666705
150431224117254,10.016323,2.184878,-0.727824,2.018646
150431234118254,10.026324,1.945221,-0.152734,1.391395
150431244119179,10.036325,0.514713,0.255723,0.424543
150431254120088,10.046326,-0.811379,0.216123,-0.056062
150431264121254,10.056327,-1.93023,-0.246756,-0.208452
150431274122254,10.066328,-2.641819,-0.556173,-0.230652
150431284123160,10.076329,-1.942709,-0.732923,0.11774
150431294124083,10.086330,-0.357895,-0.560571,0.443224
150431304125235,10.096331,0.405039,-0.211649,0.385358
150431314126237,10.106332,0.304513,-0.010612,0.204245
150431324127160,10.116333,-0.758532,0.177433,-0.127475
150431334128328,10.126334,-1.272899,-0.072323,-0.343775
150431344129326,10.136335,-1.718745,-0.242066,-0.452809
150431354130242,10.146336,-2.077401,-0.260326,-0.579505
150431364131380,10.156337,-1.66492,-0.360777,-0.2184
150431374132291,10.166338,-0.773522,-0.26984,-0.229101
150431384133262,10.176339,0.037613,-0.450798,-0.378528
150431394134416,10.186340,0.745103,-1.140136,0.029041
150431404135337,10.196341,0.665989,-1.68828,0.488784
150431414136339,10.206342,1.03394,-1.813285,1.084882
150431424137510,10.216344,1.458343,-1.613619,0.901987
150431434138447,10.226344,1.157218,-1.027699,0.341918
150431444139342,10.236345,-0.660804,-0.476857,-0.571499
150431454140343,10.246346,-1.712905,-0.37748,-1.115605
150431464141497,10.256347,-2.905309,-0.421275,-1.643344
150431474142420,10.266348,-4.10851,-0.470056,-1.877769
150431484143416,10.276349,-3.994813,-0.802818,-1.483287
150431494144353,10.286350,-2.091152,-0.725602,-0.800027
150431504145505,10.296352,-0.310234,-0.595393,-0.241969
150431514146433,10.306352,1.242182,-0.591662,0.354689
150431524147449,10.316353,2.02098,-0.836445,0.672696
150431534148598,10.326355,1.794217,-0.784539,0.764014
150431544149519,10.336356,1.27235,-0.42257,0.752924
150431554150534,10.346357,1.121214,-0.316041,0.761231
150431564151701,10.356358,0.23701,-0.16142,0.379713
150431574152632,10.366359,-0.426776,0.103622,-0.114401
150431584153630,10.376360,-0.784192,0.319088,-0.685268
150431594154550,10.386361,-0.867867,0.199366,-0.806942
150431604155702,10.396362,-0.681202,-0.053123,-0.651428
150431614156651,10.406363,-0.046422,0.122867,-0.399079
150431624157665,10.416364,0.609832,0.337166,-0.271293
150431634158819,10.426365,1.046572,0.620709,-0.278844
150431644159745,10.436366,0.934075,0.762105,-0.39037
150431654160676,10.446367,0.397959,0.44865,-0.468903
150431664161662,10.456368,0.271511,-0.114357,-0.204199
150431674162800,10.466369,0.881792,-0.37584,0.455212
150431684163793,10.476370,2.197701,-0.330258,0.954054
150431694164714,10.486371,3.289855,-0.01944,1.322187
150431704165870,10.496372,3.482339,0.329503,1.323355
150431714166872,10.506373,2.646202,0.525472,1.068859
150431724167782,10.516374,0.905698,0.633482,0.992343
150431734168949,10.526375,-0.503037,0.468156,1.099975
150431744169851,10.536376,-1.268096,0.318418,1.239536
150431754170867,10.546377,-1.27023,0.552235,0.948277
150431764171790,10.556378,-1.022773,0.898168,0.321131
150431774172944,10.566379,-0.906392,1.111467,-0.449393
150431784173841,10.576380,-0.859574,0.846185,-0.932367
150431794174843,10.586381,-0.42454,0.30362,-1.102548
150431804175776,10.596382,-0.236435,-0.305489,-1.053213
150431814176930,10.606383,0.207944,-0.365555,-0.924922
150431824177908,10.616384,1.160948,-0.384244,-0.473651
150431834178843,10.626385,1.421786,-0.440759,-0.246474
150431844179997,10.636386,1.555388,-0.527675,-0.145612
150431854180997,10.646387,1.680454,-0.713258,-0.059088
150431864181934,10.656388,1.032552,-0.990796,-0.003004
150431874182857,10.666389,1.253037,-1.174467,0.250033
150431884184014,10.676390,1.830279,-1.05542,0.336716
150431894185031,10.686391,1.303321,-0.775957,0.19962
150431904185925,10.696392,0.260518,-0.671759,-0.075527
150431914187086,10.706393,-0.320062,-0.8239,-0.01994
150431924188077,10.716394,-1.349187,-0.797341,0.056339
150431934189006,10.726395,-1.78936,-0.682958,0.178626
150431944190161,10.736396,-1.121098,-0.357052,0.260863
150431954191110,10.746397,-0.02809,-0.474623,0.51688
150431964192112,10.756398,0.684749,-0.717783,0.411574
150431974193264,10.766399,0.512317,-0.66398,0.121736
150431984194178,10.776400,0.201139,-0.460317,-0.109759
150431994195192,10.786401,0.094139,-0.432209,-0.147646
150432004196112,10.796402,-0.092534,-0.601598,0.118164
150432014197035,10.806403,0.372542,-0.717324,0.333914
150432024198189,10.816404,0.653129,-0.943965,0.57977
150432034199175,10.826405,0.524338,-1.035254,0.632565
150432044200322,10.836406,0.713584,-0.939135,0.797763
150432054201231,10.846407,2.077405,-0.979485,0.897442
150432064202231,10.856408,2.823503,-1.236207,0.879622
150432074203156,10.866409,2.262915,-1.062358,0.722371
150432084204315,10.876410,1.483012,-0.792511,0.618092
150432094205238,10.886411,0.923291,-0.695272,0.578183
150432104206233,10.896412,0.396094,-0.523015,0.379467
150432114207152,10.906413,0.592349,-0.451941,0.347981
150432124208299,10.916414,-0.042627,-0.672123,0.535072
150432134209286,10.926415,-0.135374,-0.870688,0.791764
150432144210209,10.936416,0.454142,-0.732027,0.78941
150432154211363,10.946417,0.978989,-0.408966,0.50668
150432164212366,10.956418,1.212741,-0.327999,0.240441
150432174213286,10.966419,1.029319,-0.617918,0.084638
150432184214440,10.976420,0.182182,-0.748432,-0.036167
150432194215438,10.986421,-0.101708,-0.793481,0.047811
150432204216363,10.996422,0.034145,-0.74665,0.079412
150432214217522,11.006424,0.409185,-0.524054,-0.105314
150432224218443,11.016424,0.524803,-0.607699,-0.027809
150432234219469,11.026425,0.577326,-0.783167,0.204122
150432244220392,11.036426,0.740082,-0.917082,0.193496
150432254221559,11.046428,0.837338,-0.99184,0.060069
150432264222475,11.056428,1.287823,-0.921519,0.174515
150432274223477,11.066429,1.779904,-0.804647,0.327928
150432284224634,11.076431,1.301496,-0.817894,0.292962
150432294225624,11.086432,0.67697,-0.851915,0.24683
150432304226554,11.096433,0.428409,-0.913362,0.057316
150432314227477,11.106433,0.52949,-0.838999,-0.058317
150432324228629,11.116435,-0.17569,-1.110997,-0.254022
150432334229621,11.126436,0.037106,-1.098719,-0.215332
150432344230544,11.136437,0.485337,-1.177616,-0.12333
150432354231703,11.146438,0.399338,-0.968152,-0.26163
150432364232629,11.156439,0.32723,-0.820383,-0.327102
150432374233631,11.166440,0.084463,-0.795083,-0.254938
150432384234554,11.176441,0.107043,-0.786074,-0.178181
150432394235783,11.186442,0.283538,-0.750475,-0.297408
150432404236708,11.196443,0.652168,-0.74163,-0.336562
150432414237862,11.206444,0.753798,-0.903131,-0.160415
150432424238783,11.216445,0.549853,-1.073639,0.020422
150432434239788,11.226446,0.525026,-1.138387,0.204356
150432444240713,11.236447,0.873548,-1.036073,0.268269
150432454241862,11.246448,1.145648,-1.001495,0.212941
150432464242860,11.256449,0.939435,-1.067221,0.072478
150432474243794,11.266450,0.564513,-1.051987,-0.029473
150432484244932,11.276451,0.444244,-0.963483,0.031873
150432494245855,11.286452,0.005541,-0.732034,0.064526
150432504246846,11.296453,-0.40972,-0.671115,0.037692
150432514248011,11.306454,-0.66702,-0.352406,0.088352
150432524248932,11.316455,-1.029611,-0.280882,-0.056105
150432534249934,11.326456,-1.109796,-0.265928,-0.067525
150432544251082,11.336457,-0.914923,-0.324127,0.05917
150432554252005,11.346458,-0.454113,-0.407624,0.344727
150432564253005,11.356459,-0.073812,-0.457856,0.495983
150432574253930,11.366460,0.20331,-0.671673,0.688916
150432584255072,11.376461,0.444653,-1.203165,0.824999
150432594255995,11.386462,0.902104,-1.408812,0.717002
150432604256997,11.396463,1.245941,-1.431554,0.673273
150432614258151,11.406464,1.61448,-1.209035,0.53439
150432624259135,11.416465,1.419039,-1.147823,0.353498
150432634260074,11.426466,1.178021,-1.05339,0.179516
150432644261212,11.436467,0.735628,-1.121229,0.123223
150432654262154,11.446468,-0.09925,-1.020143,-0.047511
150432664263144,11.456469,-0.989719,-0.822178,-0.180048
150432674264298,11.466470,-1.685544,-0.577929,-0.312593
150432684265235,11.476471,-1.865001,-0.289287,-0.575531
150432694266213,11.486472,-1.810611,-0.289269,-0.714682
150432704267365,11.496473,-1.374931,-0.298203,-0.803033
150432714268288,11.506474,-0.850266,-0.317546,-0.642039
150432724269286,11.516475,-0.761414,-0.436043,-0.511634
150432734270209,11.526476,-0.049788,-0.671376,-0.420418
150432744271365,11.536477,0.637952,-0.87297,-0.389717
150432754272360,11.546478,0.924926,-1.088945,-0.298596
150432764273514,11.556480,1.018585,-1.23177,-0.371467
150432774274437,11.566480,0.87809,-1.567554,0.188529
150432784275442,11.576481,1.09105,-0.821134,-0.567313
150432794276381,11.586482,1.517801,-0.752646,-0.047164
150432804277533,11.596484,1.231294,-1.041593,0.301461
150432814278519,11.606485,1.327586,-1.13141,0.111315
150432824279444,11.616485,1.133999,-0.910934,-0.482467
150432834280591,11.626487,1.083168,-1.213388,0.197092
150432844281524,11.636488,0.779997,-1.201777,0.288695
150432854282526,11.646489,1.380016,-1.185576,0.694226
150432864283683,11.656490,2.600806,-0.893949,0.846831
150432874284611,11.666491,3.174209,-1.025555,1.062395
150432884285613,11.676492,2.319365,-0.940877,0.812299
150432894286541,11.686493,0.617424,-0.990549,0.960089
150432904287769,11.696494,-0.763922,-0.899079,1.537344
150432914288687,11.706495,-1.907758,-0.341611,0.504967
150432924289841,11.716496,-1.293307,-0.007406,0.378329
150432934290765,11.726497,-1.543678,-0.097661,-0.09467
150432944291767,11.736498,-1.060041,0.203994,-0.722472
150432954292923,11.746499,-0.792017,-0.077472,-0.760761
150432964293841,11.756500,-0.003122,-0.228623,-0.725882
150432974294844,11.766501,1.062819,-0.338613,-0.36761
150432984296010,11.776502,1.37242,-0.593537,-0.163177
150432994296947,11.786503,0.452119,-0.529211,-0.359839
150433004297947,11.796504,0.311661,0.126491,-0.667086
150433014299101,11.806505,0.013443,-0.10992,-0.542485
150433024300024,11.816506,0.573287,-0.339757,-0.075412
150433034301019,11.826507,1.14728,-0.575203,0.434209
150433044302173,11.836508,1.658573,-1.053012,0.940223
150433054303096,11.846509,2.233411,-1.256955,1.080818
150433064304098,11.856510,3.178362,-0.513372,0.819671
150433074305036,11.866511,3.345701,-0.61077,1.142203
150433084306189,11.876512,3.046856,-0.728908,1.423644
150433094307202,11.886513,2.669747,-0.550468,1.255278
150433104308128,11.896514,2.058641,-0.183338,0.952032
150433114309295,11.906515,0.480236,-0.742501,1.060728
150433124310289,11.916516,-0.125919,-0.899038,0.804145
150433134311213,11.926517,-1.120327,0.638189,-0.57214
150433144312366,11.936518,-1.906604,0.268829,-0.872415
150433154313364,11.946519,-1.235304,0.207667,-0.667831
150433164314523,11.956521,-0.314237,0.02707,-0.501534
150433174315432,11.966521,0.599398,-0.632454,-0.03892
150433184316438,11.976522,1.381292,-0.964561,0.379972
150433194317362,11.986523,2.25248,-0.659485,0.611069
150433204318520,11.996525,1.814405,-2.011699,1.371279
150433214319443,12.006525,1.427053,-1.446229,1.106158
150433224320443,12.016526,-0.002634,-0.869621,0.690781
150433234321597,12.026528,-1.323347,-0.818102,0.417954
150433244322597,12.036529,-2.097451,-0.36078,0.100751
150433254323735,12.046530,-2.468708,-0.124611,-0.212131
150433264324735,12.056531,-1.647659,-0.34484,0.081884
150433274325645,12.066532,-0.235821,-0.310597,0.648104
150433284326797,12.076533,0.406491,-1.014637,1.032404
150433294327783,12.086534,1.504998,-0.432598,0.774133
150433304328694,12.096535,1.85073,-2.488028,1.784036
150433314329831,12.106536,2.318447,-1.115159,1.33885
150433324330841,12.116537,1.752289,-0.912508,0.979461
150433334331761,12.126538,0.63081,-1.103862,0.914618
150433344332684,12.136539,-0.045089,-0.848745,0.553439
150433354333838,12.146540,-1.049719,-0.690696,0.143565
150433364334833,12.156541,-1.189325,-0.484739,-0.158616
150433374335987,12.166542,-0.892664,-0.282551,-0.155129
150433384336985,12.176543,-0.249363,-0.342432,-0.06588
150433394337910,12.186544,0.153923,-0.376251,0.016855
150433404338833,12.196545,0.270635,-0.504839,-0.097031
150433414340059,12.206546,0.72742,-0.551692,-0.130964
150433424340977,12.216547,0.883504,-0.598341,-0.045499
150433434342129,12.226548,1.038904,-0.597837,0.109799
150433444343131,12.236549,0.776152,-0.630211,0.193307
150433454344273,12.246550,0.721029,-0.607948,0.03528
150433464345191,12.256551,0.837602,-0.587905,-0.256456
150433474346177,12.266552,0.686043,-0.649983,-0.07139
150433484347102,12.276553,0.674617,-0.596954,0.167952
150433494348270,12.286554,1.024927,-0.638697,0.521624
150433504349268,12.296555,1.276055,-0.604788,0.636235
150433514350422,12.306556,1.500921,-0.568193,0.551856
150433524351340,12.316557,1.392167,-0.525398,0.276615
150433534352340,12.326558,1.038792,-0.466856,-0.008918
150433544353265,12.336559,0.769507,-0.519184,-0.055173
150433554354420,12.346560,0.420615,-0.578871,0.101613
150433564355405,12.356561,0.476578,-0.499442,0.218329
150433574356552,12.366563,0.697295,-0.41459,0.198611
150433584357557,12.376564,0.567962,-0.278346,-0.003258
150433594358492,12.386564,0.136471,-0.230917,-0.27323
150433604359649,12.396566,-0.473015,-0.162616,-0.326062
150433614360567,12.406567,-0.367676,0.006116,-0.32166
150433624361569,12.416568,-0.217976,-0.019288,-0.306833
150433634362745,12.426569,0.192062,-0.0358,-0.166018
150433644363745,12.436570,0.561992,-0.304705,-0.084611
150433654364913,12.446571,0.608121,-0.518661,0.090051
150433664365851,12.456572,1.048815,-0.652134,0.137673
150433674366837,12.466573,1.37913,-0.718015,0.177237
150433684367752,12.476574,1.448344,-0.608877,0.184345
150433694368906,12.486575,1.080774,-0.510678,0.21413
150433704369921,12.496576,0.665471,-0.455195,0.14953
150433714371073,12.506577,0.191784,-0.411724,-0.007562
150433724372073,12.516578,-9.36E-4,-0.41191,-0.100886
150433734373007,12.526579,0.0972,-0.552396,-0.095041
150433744374159,12.536580,0.376309,-0.520185,-0.004031
150433754375082,12.546581,0.520123,-0.462078,0.101768
150433764376303,12.556582,0.54664,-0.413408,0.048316
150433774377202,12.566583,0.507221,-0.475486,-0.080053
150433784378125,12.576584,0.317063,-0.533452,-0.211711
150433794379361,12.586585,0.144732,-0.605082,-0.277448
150433804380284,12.596586,0.49393,-0.810372,-0.207175
150433814381272,12.606587,0.818512,-1.009142,0.076207
150433824382424,12.616588,0.877996,-0.933081,0.235074
150433834383342,12.626589,0.904589,-0.83942,0.36453
150433844384358,12.636590,1.065066,-0.765481,0.300865
150433854385515,12.646592,0.625554,-0.521839,-0.064049
150433864386520,12.656593,0.014331,-0.407749,-0.35638
150433874387449,12.666593,-0.314619,-0.444957,-0.350689
150433884388601,12.676595,-0.841551,-0.504792,-0.306029
150433894389529,12.686596,-0.703096,-0.518186,-0.078597
150433904390531,12.696597,-0.291111,-0.405163,0.030193
150433914391685,12.706598,0.005395,-0.332475,-0.023785
150433924392698,12.716599,0.238652,-0.520784,-0.120663
150433934393856,12.726600,0.260165,-0.756647,-0.147194
150433944394856,12.736601,0.087552,-0.953783,-0.033702
150433954395799,12.746602,0.361353,-0.969599,0.115677
150433964396940,12.756603,0.193166,-0.906657,0.009102
150433974397938,12.766604,0.059082,-0.751564,-0.324529
150433984398873,12.776605,-0.151834,-0.665315,-0.648295
150433994400027,12.786606,-0.76466,-0.619898,-0.86897
150434004401025,12.796607,-0.830291,-0.644311,-1.019969
150434014401955,12.806608,-0.569378,-0.868238,-0.872503
150434024403093,12.816609,-0.041605,-1.087554,-0.466003
150434034404101,12.826610,0.612096,-1.081961,-0.216473
150434044405021,12.836611,1.088794,-1.037004,0.072717
150434054406250,12.846612,1.267603,-0.9581,0.233283
150434064407160,12.856613,0.982573,-0.946945,0.386238
150434074408308,12.866614,0.472118,-0.974549,0.375753
150434084409231,12.876615,0.322145,-1.063609,0.465696
150434094410237,12.886616,0.223464,-1.114157,0.510575
150434104411394,12.896617,0.197073,-1.166645,0.580962
150434114412389,12.906618,0.258179,-1.000154,0.407575
150434124413552,12.916620,-0.20916,-0.777855,0.017631
150434134414476,12.926620,-0.680374,-0.593696,-0.339162
150434144415478,12.936621,-1.189256,-0.379919,-0.648866
150434154416645,12.946623,-1.03127,-0.235543,-0.842494
150434164417644,12.956624,-0.990664,-0.18231,-0.899088
150434174418564,12.966625,-0.789938,-0.390922,-0.61352
150434184419706,12.976626,-0.148233,-0.597073,-0.355572
150434194420707,12.986627,0.702743,-0.649734,-0.261443
150434204421632,12.996628,1.07366,-0.758047,-0.153426
150434214422860,13.006629,1.386068,-0.872524,-0.126346
150434224423785,13.016630,1.504705,-0.959568,-0.114546
150434234424937,13.026631,0.933926,-0.916966,-0.205943
150434244425860,13.036632,0.649858,-0.789528,-0.226752
150434254426862,13.046633,0.13625,-0.56259,-0.407155
150434264428011,13.056634,-0.306751,-0.325699,-0.633917
150434274429002,13.066635,-0.686575,-0.206169,-0.62277
150434284429925,13.076636,-0.527745,-0.270733,-0.44999
150434294431154,13.086637,-0.107981,-0.4169,-0.329069
150434304432060,13.096638,0.156054,-0.548505,-0.301566
150434314433209,13.106639,0.638389,-0.479225,-0.307885
150434324434221,13.116640,1.01271,-0.377546,-0.430809
150434334435137,13.126641,0.705549,-0.305495,-0.475392
150434344436305,13.136642,0.31904,-0.34812,-0.424189
150434354437303,13.146643,-0.144691,-0.309915,-0.312078
150434364438457,13.156644,-0.389138,-0.446734,-0.207868
150434374439395,13.166645,-0.049816,-0.48245,-0.225837
150434384440397,13.176646,0.368368,-0.295648,-0.494477
150434394441563,13.186648,0.615199,-0.269283,-0.805977
150434404442486,13.196648,0.624094,-0.332346,-0.941527
150434414443717,13.206650,0.882089,-0.480964,-0.652811
150434424444640,13.216651,1.073312,-0.539078,-0.245049
150434434445642,13.226652,1.593648,-0.635043,0.227452
150434444446570,13.236653,2.340798,-0.774457,0.551647
150434454447714,13.246654,2.819659,-0.933639,0.667053
150434464448707,13.256655,2.906758,-1.084796,0.805766
150434474449876,13.266656,3.013967,-1.241985,0.763932
150434484450861,13.276657,2.637076,-1.2171,0.700252
150434494451786,13.286658,1.937554,-1.104214,0.675302
150434504452940,13.296659,1.266161,-0.865085,0.62361
150434514453921,13.306660,0.810537,-0.621641,0.550666
150434524454844,13.316661,0.662511,-0.301245,0.253227
150434534456017,13.326662,0.47029,-0.013291,-0.177837
150434544457003,13.336663,0.174842,0.215891,-0.546252
150434554458125,13.346664,-0.079305,0.295296,-0.588735
150434564459125,13.356665,0.152893,0.298921,-0.37369
150434574460264,13.366666,0.390073,0.277727,-0.130686
150434584461173,13.376667,1.129578,0.201607,0.117458
150434594462168,13.386668,1.885665,0.174782,0.259981
150434604463093,13.396669,2.160008,0.161148,0.176158
150434614464312,13.406670,2.078038,0.169247,0.121908
150434624465266,13.416671,1.87262,0.285295,-0.0687
150434634466438,13.426672,1.643674,0.630088,-0.340823
150434644467438,13.436673,1.362387,1.136537,-0.805787
150434654468592,13.446675,1.031902,1.782612,-1.29951
150434664469534,13.456676,0.934149,1.932274,-1.404033
150434674470536,13.466677,1.370982,1.578978,-0.947647
150434684471685,13.476678,2.142516,1.259619,-0.237725
150434694472606,13.486679,3.285897,1.11038,0.265382
150434704473598,13.496680,4.240393,0.917598,0.533178
150434714474762,13.506681,4.320572,0.605196,0.5139
150434724475776,13.516682,3.634497,0.607567,0.086467
150434734476699,13.526683,2.217477,0.827365,-0.586915
150434744477853,13.536684,0.799153,0.863148,-0.833409
150434754478872,13.546685,-1.04534,0.440901,-0.436375
150434764480031,13.556686,-2.21638,0.128881,0.13779
150434774481029,13.566687,-1.992145,-0.07062,1.009051
150434784482182,13.576688,-0.752969,-0.379926,1.489795
150434794483192,13.586689,0.224035,-0.893651,1.590774
150434804484101,13.596690,0.523301,-1.072753,1.206786
150434814485012,13.606691,0.005579,-1.283026,0.708277
150434824486161,13.616692,-0.859585,-1.523685,0.203387
150434834487152,13.626693,-1.908834,-1.64687,-0.182649
150434844488303,13.636694,-2.805428,-1.667256,-0.260702
150434854489308,13.646695,-3.211645,-1.628924,-0.206757
150434864490475,13.656696,-3.0904,-1.580826,-0.357195
150434874491385,13.666697,-2.561436,-1.420861,-0.91137
150434884492391,13.676698,-2.358842,-1.300186,-1.596363
150434894493545,13.686700,-2.46663,-1.274843,-2.134321
150434904494538,13.696701,-2.52428,-1.590445,-2.151186
150434914495692,13.706702,-2.112556,-2.033156,-1.590702
150434924496692,13.716703,-1.394548,-2.536212,-0.631945
150434934497612,13.726704,-0.660256,-3.002873,0.023154
150434944498764,13.736705,-0.123724,-3.42277,0.300768
150434954499672,13.746706,0.430202,-3.904769,0.056958
150434964500669,13.756707,0.480038,-4.036015,-0.162178
150434974501823,13.766708,-0.013682,-4.030672,-0.242366
150434984502823,13.776709,-0.758226,-3.918425,-0.235165
150434994503980,13.786710,-1.84609,-3.682931,-0.279478
150435004504987,13.796711,-2.740988,-3.417731,-0.455633
150435014505905,13.806712,-3.536108,-3.29019,-0.565181
150435024507059,13.816713,-4.038326,-2.974143,-0.820894
150435034508049,13.826714,-3.905128,-2.780896,-0.919639
150435044509216,13.836715,-3.568834,-2.713946,-0.791111
150435054510216,13.846716,-3.003383,-2.731149,-0.428812
150435064511146,13.856717,-2.324761,-2.830347,0.028273
150435074512300,13.866718,-1.813981,-2.872255,0.311643
150435084513305,13.876719,-1.530346,-2.947302,0.2333
150435094514209,13.886720,-1.499223,-2.884742,-0.084031
150435104515363,13.896721,-1.786871,-2.669788,-0.589393
150435114516578,13.906723,-2.278079,-2.376496,-1.221794
150435124517529,13.916724,-2.86209,-2.052743,-1.866439
150435134518515,13.926725,-3.648661,-1.783716,-2.423735
150435144519655,13.936726,-3.808757,-1.533005,-2.750785
150435154520655,13.946727,-3.46573,-1.539209,-2.65429
150435164521794,13.956728,-2.507583,-1.567411,-2.061991
150435174522717,13.966729,-1.128235,-1.608959,-1.097377
150435184523724,13.976730,0.427319,-1.409464,-0.373839
150435194524637,13.986731,1.591136,-1.017965,-0.175254
150435204525861,13.996732,2.547866,-0.409367,-0.494894
150435214527030,14.006733,2.834659,0.298517,-1.123905
150435224527953,14.016734,2.748053,1.417381,-1.566261
150435234528955,14.026735,2.292373,2.481279,-1.588833
150435244529878,14.036736,1.913613,3.378771,-1.220635
150435254531121,14.046737,1.638937,3.877396,-0.568266
150435264532289,14.056738,2.141259,4.081058,0.249308
150435274533213,14.066739,3.344968,4.301213,0.745312
150435284534241,14.076740,4.94702,4.696433,0.800564
150435294535394,14.086741,5.974817,4.932084,0.378831
150435304536395,14.096742,6.226311,4.97822,-0.130646
150435314537343,14.106743,5.677491,4.848636,-0.363867
150435324538496,14.116744,4.411731,4.809362,-0.210792
150435334539490,14.126745,3.320137,4.847139,-0.119029
150435344540658,14.136747,2.467606,4.42212,0.023407
150435354541658,14.146748,2.700304,3.998394,0.210852
150435364542812,14.156749,3.39398,3.620978,0.362655
150435374543730,14.166750,4.200565,3.275846,0.35774
150435384544732,14.176751,4.888324,2.726456,0.238374
150435394545884,14.186752,5.238064,2.356082,0.108741
150435404546876,14.196753,4.853087,2.126712,0.126779
150435414547799,14.206754,3.564872,1.750536,0.158242
150435424548969,14.216755,1.875601,1.28951,0.252481
150435434549952,14.226756,0.629174,0.945217,0.164314
150435444551106,14.236757,-0.301666,0.507933,0.062379
150435454552034,14.246758,-0.952971,0.168645,-0.330387
150435464553246,14.256759,-1.174804,-0.158589,-0.758267
150435474554154,14.266760,-1.498659,-0.47366,-1.177216
150435484555156,14.276761,-2.055752,-0.810228,-1.339531
150435494556084,14.286762,-2.089554,-1.219552,-1.116256
150435504557243,14.296763,-2.022208,-1.525757,-0.940368
150435514558462,14.306764,-1.77467,-1.846059,-0.929097
150435524559381,14.316765,-1.676513,-2.08,-1.035782
150435534560381,14.326766,-1.615202,-2.091291,-1.382009
150435544561537,14.336768,-1.814184,-2.124938,-1.724383
150435554562472,14.346768,-2.085138,-2.143652,-2.002403
150435564563474,14.356769,-2.580076,-2.170966,-2.066557
150435574564642,14.366771,-2.729979,-2.168942,-1.845359
150435584565642,14.376772,-2.526062,-2.042264,-1.524848
150435594566779,14.386773,-2.039855,-1.801311,-1.435992
150435604567779,14.396774,-1.775735,-1.504272,-1.476378
150435614568699,14.406775,-1.425216,-1.303794,-1.331228
150435624569849,14.416776,-0.933598,-1.11932,-1.376834
150435634570849,14.426777,-0.612378,-1.019055,-1.008151
150435644572001,14.436778,-0.305883,-0.917326,-0.428533
150435654572987,14.446779,-0.208517,-0.634487,0.149292
150435664574141,14.456780,-0.138726,-0.26814,0.573154
150435674575073,14.466781,-0.357891,0.121335,0.673432
150435684576075,14.476782,-0.484529,0.351631,0.570199
150435694577250,14.486783,-0.675933,0.538993,0.159392
150435704578255,14.496784,-0.929897,0.619027,-0.229826
150435714579408,14.506785,-1.04862,0.491832,-0.310404
150435724580317,14.516786,-0.66352,0.458276,-0.442674
150435734581319,14.526787,-0.465895,0.673138,-0.915377
150435744582443,14.536788,-0.272213,0.758913,-1.530313
150435754583445,14.546789,-0.127108,0.692646,-1.862496
150435764584582,14.556791,-0.088237,0.746988,-1.921922
150435774585505,14.566792,0.035137,0.94686,-1.716636
150435784586507,14.576793,-0.009507,0.978605,-1.32028
150435794587664,14.586794,-0.131344,0.950757,-1.094837
150435804588592,14.596795,-0.415572,1.200752,-1.398698
150435814589823,14.606796,-0.556825,1.374769,-1.734117
150435824590837,14.616797,-0.626727,1.475873,-1.827747
150435834591772,14.626798,-0.661024,1.498119,-1.679356
150435844592924,14.636799,-0.49955,1.649805,-1.322024
150435854593837,14.646800,-0.151061,1.716649,-0.964673
150435864595070,14.656801,0.346374,1.492746,-0.404529
150435874595986,14.666802,0.919003,1.614378,-0.138907
150435884596988,14.676803,1.155492,1.919194,-0.211066
150435894598140,14.686804,0.872143,1.945248,-0.540447
150435904599142,14.696805,0.253193,1.719485,-0.720673
150435914600294,14.706806,-0.459492,1.640317,-0.622799
150435924601227,14.716807,-0.714299,1.728498,-0.349122
150435934602247,14.726808,-0.374017,1.727955,-0.180436
150435944603387,14.736809,-0.0157,1.488136,-0.077479
150435954604399,14.746810,0.139522,1.339366,-0.142084
150435964605553,14.756812,-0.016866,1.301513,-0.348262
150435974606485,14.766812,-0.361367,1.14426,-0.696185
150435984607492,14.776813,-0.807369,0.902442,-0.906567
150435994608637,14.786815,-1.207067,0.832282,-1.27899
150436004609639,14.796816,-1.666355,0.97935,-1.659797
150436014610795,14.806817,-1.803517,0.722776,-1.712148
150436024611808,14.816818,-1.868763,0.341305,-1.445625
150436034612742,14.826819,-1.649785,0.192277,-1.026006
150436044613887,14.836820,-1.388792,0.065239,-0.839876
150436054614808,14.846821,-1.318141,0.018521,-0.94679
150436064615805,14.856822,-1.767911,0.085462,-1.427755
150436074616968,14.866823,-2.328603,0.176927,-1.897717
150436084617959,14.876824,-2.485694,0.256766,-2.106413
150436094619130,14.886825,-2.440496,-0.007421,-1.923559
150436104620132,14.896826,-1.795657,-0.510715,-1.111149
150436114621276,14.906827,-0.881194,-0.664594,-0.198558
150436124622265,14.916828,0.008717,-0.71308,0.279551
150436134623190,14.926829,0.471239,-0.398697,0.047264
150436144624340,14.936830,0.246319,-0.265646,-0.420851
150436154625325,14.946831,-0.555079,-0.236272,-0.757892
150436164626476,14.956832,-1.382033,-0.234099,-0.771856
150436174627395,14.966833,-2.079653,-0.181253,-0.474548
150436184628397,14.976834,-2.125737,-0.059409,-0.049138
150436194629541,14.986836,-1.648304,0.097568,0.194809
150436204630443,14.996836,-1.084667,0.247597,0.139897
150436214631678,15.006838,-0.903885,0.462903,-0.317746
150436224632601,15.016839,-1.043898,0.609667,-0.820871
150436234633593,15.026840,-1.41695,0.816207,-1.084047
150436244634822,15.036841,-1.558037,0.618416,-0.752675
150436254635747,15.046842,-1.070824,0.457229,-0.218365
150436264636909,15.056843,-0.717873,0.636294,0.021639
150436274637817,15.066844,-0.114721,0.617311,-0.077672
150436284638819,15.076845,0.087082,0.734184,-0.524605
150436294639969,15.086846,-0.021065,0.951321,-0.96879
150436304640981,15.096847,-0.292487,1.184794,-1.387935
150436314642142,15.106848,-0.717261,1.186829,-1.384633
150436324643154,15.116849,-1.133452,1.05984,-1.294747
150436334644079,15.126850,-0.958931,1.063664,-1.032815
150436344645233,15.136851,-0.633536,1.183108,-0.861911
150436354646154,15.146852,-0.049341,1.339929,-0.884026
150436364647385,15.156853,0.289527,1.340639,-1.010575
150436374648380,15.166854,0.304399,1.467356,-1.250271
150436384649314,15.176855,0.043142,1.572291,-1.346997
150436394650464,15.186856,-0.196782,1.380657,-1.110745
150436404651464,15.196857,0.191182,1.065676,-0.590232
150436414652401,15.206858,0.548995,1.110121,-0.385061
150436424653639,15.216860,0.940127,1.279,-0.491574
150436434654550,15.226861,1.314914,1.399442,-0.799947
150436444655702,15.236862,1.449122,1.595055,-1.207203
150436454656702,15.246863,0.635895,1.851394,-1.599007
150436464657862,15.256864,-0.310604,1.706601,-1.553978
150436474658799,15.266865,-0.783527,1.413844,-1.208033
150436484659801,15.276866,-0.605008,1.098429,-0.693156
150436494660934,15.286867,0.111138,0.952833,-0.10956
150436504661934,15.296868,0.618875,0.782364,0.044417
150436514663088,15.306869,0.91468,0.699239,-0.05431
150436524664006,15.316870,0.816317,0.99024,-0.668716
150436534665008,15.326871,-0.525487,1.150253,-1.331647
150436544666145,15.336872,-1.207579,0.877907,-1.457228
150436554667141,15.346873,-1.837545,0.578433,-1.374829
150436564668066,15.356874,-1.968121,0.396361,-0.967468
150436574669220,15.366875,-1.244619,0.435106,-0.555408
150436584670217,15.376876,-0.634772,0.609011,-0.528552
150436594671367,15.386877,-0.578232,0.719924,-0.986584
150436604672369,15.396878,-0.975836,0.663998,-1.464186
150436614673510,15.406880,-0.967952,0.275524,-1.569654
150436624674434,15.416880,-0.815705,-0.008684,-1.404162
150436634675414,15.426881,-0.853695,-0.223109,-1.075098
150436644676567,15.436883,-0.480778,-0.41593,-0.683356
150436654677538,15.446884,0.122641,-0.425253,-0.673686
150436664678692,15.456885,0.265685,-0.174218,-1.068258
150436674679615,15.466886,-0.086855,0.07034,-1.375241
150436684680615,15.476887,-0.759548,0.018786,-1.318473
150436694681774,15.486888,-1.62061,-0.087718,-0.906181
150436704682697,15.496889,-1.683332,-0.156161,-0.363522
150436714683699,15.506890,-1.285241,-0.12735,-0.012818
150436724684853,15.516891,-0.675725,0.223376,-0.260798
150436734685855,15.526892,-0.621751,0.579088,-0.876297
150436744687009,15.536893,-1.208226,0.816216,-1.403939
150436754687995,15.546894,-1.664784,0.692913,-1.315989
150436764688920,15.556895,-1.672999,0.267671,-0.651648
150436774690074,15.566896,-0.875294,-0.126821,0.140809
150436784691072,15.576897,0.148039,-0.219587,0.448267
150436794692006,15.586898,0.931746,-0.074436,0.041961
150436804693235,15.596899,0.962163,0.323437,-0.807209
150436814694170,15.606900,-0.100276,0.567289,-1.408468
150436824695322,15.616901,-1.296446,0.676464,-1.455308
150436834696259,15.626902,-2.02959,0.458087,-1.00232
150436844697280,15.636903,-1.987096,0.215806,-0.389942
150436854698439,15.646904,-0.898591,0.254617,-1.83E-4
150436864699449,15.656905,0.115945,0.465978,-0.18488
150436874700591,15.666907,0.551308,0.845363,-0.80716
150436884701523,15.676908,0.415072,1.039238,-1.342401
150436894702530,15.686909,-0.262751,0.872106,-1.421246
150436904703699,15.696910,-0.770344,0.654238,-0.958338
150436914704620,15.706911,-0.56974,0.552344,-0.296621
150436924705622,15.716912,0.177365,0.64969,-0.206269
150436934706790,15.726913,0.778682,0.882305,-0.724001
150436944707788,15.736914,0.927143,1.182495,-1.517985
150436954708944,15.746915,0.553125,0.885782,-1.784598
150436964709927,15.756916,0.417652,0.382376,-1.338442
150436974710852,15.766917,0.443766,0.086729,-0.496405
150436984712011,15.776918,0.818976,-0.003529,0.059228
150436994713005,15.786919,1.197042,0.128155,0.103672
150437004714159,15.796920,1.002577,0.451173,-0.381629
150437014715159,15.806921,0.241394,0.719213,-1.059115
150437024716070,15.816922,-0.904035,0.651119,-1.380433
150437034717229,15.826923,-1.657481,0.57156,-1.363479
150437044718245,15.836924,-2.159361,0.371151,-0.956274
150437054719175,15.846925,-1.959741,0.269197,-0.327831
150437064720327,15.856926,-0.89977,0.255219,0.045807
150437074721338,15.866927,-0.174931,0.398333,-0.177654
150437084722476,15.876928,-0.349871,0.556205,-0.670637
150437094723476,15.886929,-0.585305,0.362155,-0.842472
150437104724630,15.896931,-0.966279,0.018653,-0.670261
150437114725558,15.906932,-1.138682,-0.239611,-0.165955
150437124726553,15.916933,-0.782678,-0.249868,0.188936
150437134727721,15.926934,-0.205248,-0.14696,0.206624
150437144728644,15.936935,0.147341,0.100912,-0.081049
150437154729644,15.946936,0.052925,0.169273,-0.387462
150437164730800,15.956937,-0.349323,0.109549,-0.468255
150437174731707,15.966938,-0.549826,0.171073,-0.435354
150437184732691,15.976939,-0.479601,0.168223,-0.207878
150437194733854,15.986940,-0.340562,0.193958,-0.100191
150437204734852,15.996941,-0.380115,0.462288,-0.306797
150437214736005,16.006942,-0.579077,0.425045,-0.537528
150437224736918,16.016943,-0.469258,0.36413,-0.716365
150437234737921,16.026944,-0.448545,0.427008,-1.037972
150437244739060,16.036945,-0.544647,0.478382,-1.21037
150437254740058,16.046946,-0.513047,0.471799,-1.261665
150437264741212,16.056947,-0.254592,0.703292,-1.27678
150437274742135,16.066948,-0.236023,0.632318,-1.246373
150437284743144,16.076949,0.217705,0.206989,-1.007061
150437294744080,16.086950,1.014583,-0.181376,-0.471091
150437304745308,16.096951,1.273038,-0.169858,-0.22346
150437314746218,16.106952,1.391578,0.047498,-0.350033
150437324747372,16.116953,1.333038,0.349916,-0.726683
150437334748389,16.126954,0.797181,0.642365,-1.079721
150437344749314,16.136955,-0.843886,0.631665,-1.116719
150437354750487,16.146956,-1.136217,0.395223,-0.87239
150437364751492,16.156957,-1.48421,0.106348,-0.325176
150437374752415,16.166958,-1.146894,0.182191,0.038643
150437384753554,16.176960,0.265084,0.132401,0.23219
150437394754554,16.186961,0.703341,0.263023,-0.102561
150437404755464,16.196961,0.231018,0.332271,-0.326553
150437414756613,16.206963,-0.631492,0.219557,-0.474594
150437424757599,16.216964,-1.518107,0.210414,-0.585141
150437434758751,16.226965,-2.093411,0.144077,-0.423104
150437444759674,16.236966,-2.113163,0.372231,-0.37746
150437454760907,16.246967,-1.424194,0.564716,-0.812146
150437464761823,16.256968,-1.508392,0.527559,-1.127542
150437474762825,16.266969,-1.197328,0.48716,-0.85788
150437484763748,16.276970,-0.797833,0.207859,-0.373994
150437494764991,16.286971,-0.218122,-0.029287,0.046422
150437504765921,16.296972,0.712446,-0.126616,0.207673
150437514767059,16.306973,1.163468,0.035953,-0.110056
150437524768059,16.316974,0.993835,0.173098,-0.602058
150437534768984,16.326975,0.822175,0.193356,-0.898142
150437544770131,16.336976,-0.159437,0.12927,-1.028671
150437554771059,16.346977,-1.074969,0.198525,-0.783282
150437564772289,16.356978,-1.023572,0.021216,-0.428263
150437574773212,16.366979,-0.366642,0.243746,-0.497938
150437584774205,16.376980,0.250876,0.501297,-0.991865
150437594775359,16.386981,-0.127232,0.449862,-1.347139
150437604776357,16.396982,-0.397001,0.338183,-1.367082
150437614777282,16.406983,-0.121785,0.064035,-1.002478
150437624778436,16.416984,0.28186,0.002104,-0.6849
150437634779357,16.426985,0.591373,0.307618,-0.755367
150437644780359,16.436986,0.762145,0.518127,-1.145107
150437654781513,16.446988,0.551407,0.461668,-1.55926
150437664782513,16.456989,0.342903,0.324545,-1.589619
150437674783660,16.466990,0.156613,0.017419,-1.076817
150437684784587,16.476991,0.474074,-0.137069,-0.561582
150437694785602,16.486992,1.232274,0.038784,-0.336819
150437704786741,16.496993,1.620046,0.324651,-0.6567
150437714787741,16.506994,0.979395,0.616025,-1.201915
150437724788666,16.516995,-0.221751,0.718588,-1.435444
150437734789815,16.526996,-0.756261,0.638551,-1.14292
150437744790736,16.536997,-0.84925,0.597383,-0.858585
150437754791753,16.546998,-0.550577,0.76933,-0.88782
150437764792921,16.556999,-0.481077,0.860529,-0.930962
150437774793947,16.567000,-0.411185,0.813533,-0.87517
150437784794872,16.577001,0.340099,0.760868,-0.822943
150437794796026,16.587002,0.573987,0.506483,-0.513271
150437804797024,16.597003,0.822101,0.319355,-0.197622
150437814798183,16.607004,1.171735,0.271811,-0.139676
150437824799183,16.617005,1.130806,0.420102,-0.237296
150437834800108,16.627006,1.051507,0.35969,-0.251432
150437844801260,16.637007,0.529922,0.318297,-0.22698
150437854802260,16.647008,-0.035628,0.288678,-0.209945
150437864803409,16.657009,-0.002954,0.200139,-0.189377
150437874804332,16.667010,-0.232578,0.544963,-0.590984
150437884805332,16.677011,-0.39788,0.522937,-0.814903
150437894806257,16.687012,-0.791947,0.427775,-0.660752
150437904807411,16.697013,-0.802051,0.236481,-0.409231
150437914808404,16.707014,-0.548534,0.230152,-0.24178
150437924809560,16.717016,-0.374856,0.313235,-0.263957
150437934810467,16.727016,-0.344328,0.370763,-0.400073
150437944811469,16.737017,-0.502359,0.290283,-0.590969
150437954812378,16.747018,-0.902484,0.23408,-0.731603
150437964813616,16.757020,-0.862434,0.170177,-0.713996
150437974814541,16.767021,-0.658857,0.006507,-0.583282
150437984815689,16.777022,-0.240426,0.087978,-0.507701
150437994816696,16.787023,-0.111483,0.225291,-0.694647
150438004817619,16.797024,-0.196629,0.118202,-0.844321
150438014818773,16.807025,-0.361722,0.04461,-0.893667
150438024819787,16.817026,-0.232956,0.039935,-0.986034
150438034820710,16.827027,-0.226956,0.023393,-1.088184
150438044821864,16.837028,-0.423867,0.122745,-1.262347
150438054822862,16.847029,-0.379862,0.09306,-1.237697
150438064824017,16.857030,-0.351682,-0.032022,-1.045665
150438074824953,16.867031,0.090239,-0.207996,-0.750299
150438084825955,16.877032,0.714119,-0.285726,-0.426897
150438094827106,16.887033,1.174177,-0.20784,-0.422392
150438104828121,16.897034,1.200495,-0.060214,-0.673455
150438114829061,16.907035,0.593636,-0.069499,-0.876346
150438124830214,16.917036,0.073236,-0.070493,-0.953934
150438134831188,16.927037,-0.398157,-0.04173,-0.861865
150438144832128,16.937038,-0.682697,-0.086057,-0.693412
150438154833294,16.947039,-0.519852,0.217992,-0.629484
150438164834293,16.957040,-0.38971,0.394523,-0.741745
150438174835219,16.967041,-0.24519,0.426237,-1.010343
150438184836358,16.977042,-0.179056,0.413332,-1.215596
150438194837356,16.987043,0.015196,0.149926,-1.060899
150438204838497,16.997044,0.461553,0.128609,-0.919329
150438214839413,17.007045,1.025687,0.220946,-0.877628
150438224840413,17.017046,1.171673,0.222403,-0.729338
150438234841567,17.027048,1.522844,0.027683,-0.459776
150438244842475,17.037048,1.771573,-0.149043,-0.165278
150438254843496,17.047049,1.518442,-0.197571,-0.091133
150438264844648,17.057051,1.758481,-0.158476,-0.014141
150438274845649,17.067052,1.590982,-0.037405,-0.078945
150438284846559,17.077053,1.315812,0.189013,-0.288011
150438294847711,17.087054,0.482786,0.338981,-0.606249
150438304848634,17.097055,-0.0423,0.36077,-0.811561
150438314849651,17.107056,-1.072778,0.60418,-1.166432
150438324850790,17.117057,-1.89035,0.782808,-1.369292
150438334851683,17.127058,-1.857733,0.975758,-1.450443
150438344852914,17.137059,-1.497722,0.83122,-1.164047
150438354853832,17.147060,-1.003631,0.384618,-0.689814
150438364854834,17.157061,-0.104717,-0.041595,-0.082871
150438374855772,17.167062,1.223088,-0.080965,0.276097
150438384856931,17.177063,2.260375,0.111872,0.289533
150438394857919,17.187064,2.466321,0.016552,0.219468
150438404859058,17.197065,2.453296,-0.075578,0.051348
150438414859981,17.207066,1.274797,0.02618,-0.305347
150438424860967,17.217067,0.501926,0.098361,-0.501919
150438434861873,17.227068,-0.254401,0.233538,-0.727443
150438444863027,17.237069,-1.185494,0.434132,-0.8054
150438454864010,17.247070,-0.914941,0.429564,-0.739833
150438464865161,17.257071,-0.360749,0.4779,-0.606926
150438474866068,17.267072,-0.35589,0.329496,-0.640335
150438484867070,17.277073,0.010019,0.391694,-0.483602
150438494868238,17.287074,0.147158,0.324871,-0.491347
150438504869145,17.297075,0.31986,0.304924,-0.478633
150438514870147,17.307076,0.26466,0.128978,-0.446194
150438524871313,17.317077,0.178008,0.093868,-0.560616
150438534872236,17.327078,-0.003517,0.110032,-0.554424
150438544873238,17.337079,0.105283,0.069217,-0.407484
150438554874378,17.347080,0.395082,-0.072484,-0.190488
150438564875279,17.357081,0.970212,-0.190936,-0.205738
150438574876280,17.367082,1.288963,-0.118475,-0.538214
150438584877444,17.377083,1.178299,0.071608,-0.786142
150438594878365,17.387084,0.614567,0.368114,-1.026104
150438604879596,17.397086,-0.25084,0.518734,-0.979037
150438614880548,17.407087,-0.824536,0.808765,-0.972839
150438624881550,17.417088,-0.718642,0.603338,-0.606376
150438634882487,17.427088,-1.053612,0.24122,-0.219298
150438644883641,17.437090,-0.191303,0.248714,2.76E-4
150438654884644,17.447091,0.781578,0.217858,-0.0182
150438664885798,17.457092,1.536239,0.140409,-0.290364
150438674886716,17.467093,1.308714,0.349111,-0.502756
150438684887701,17.477094,0.360447,0.226343,-0.70511
150438694888870,17.487095,-0.549009,0.252942,-0.780574
150438704889793,17.497096,-1.046278,0.319144,-0.740273
150438714890795,17.507097,-1.852329,0.157729,-0.473048
150438724891947,17.517098,-2.073266,0.064155,-0.236083
150438734892875,17.527099,-1.188529,-0.213951,0.202041
150438744893877,17.537100,0.296198,-0.487292,0.355585
150438754894815,17.547101,1.42377,-0.449532,0.262979
150438764896063,17.557102,1.409799,-0.631025,0.391993
150438774896993,17.567103,1.324729,-0.893054,0.345718
150438784897930,17.577104,0.627103,-0.984738,0.294211
150438794899084,17.587105,-0.183927,-1.097128,0.190069
150438804900073,17.597106,-0.529812,-1.07753,0.077838
150438814901232,17.607107,-0.987818,-0.976058,-0.092998
150438824902232,17.617108,-1.28536,-1.04163,-0.350994
150438834903142,17.627109,-1.140649,-1.084425,-0.57203
150438844904296,17.637110,-1.045309,-1.020443,-0.740527
150438854905315,17.647111,-1.118249,-0.787489,-1.046467
150438864906238,17.657112,-0.908135,-0.741482,-1.081667
150438874907386,17.667113,-1.456196,-0.624876,-1.239429
150438884908304,17.677114,-1.260039,-0.737965,-1.120414
150438894909306,17.687115,-0.421716,-0.764581,-0.810806
150438904910471,17.697116,-0.040133,-0.309485,-1.05517
150438914911473,17.707117,0.427473,-0.058945,-1.18039
150438924912396,17.717118,0.139945,0.066984,-1.367161
150438934913574,17.727120,0.343152,0.085954,-1.134546
150438944914481,17.737120,0.475571,-0.18258,-0.435174
150438954915707,17.747122,1.094987,-0.168993,0.181193
150438964916630,17.757123,1.849758,0.21152,0.509109
150438974917630,17.767124,2.059244,0.497876,0.139505
150438984918540,17.777125,1.627364,0.668503,-0.281469
150438994919689,17.787126,1.496862,0.528915,-0.485739
150439004920596,17.797127,0.764811,0.564121,-0.404486
150439014921588,17.807128,0.463231,0.608315,-0.006607
150439024922747,17.817129,0.675724,0.663944,0.146572
150439034923747,17.827130,1.136441,0.819573,0.182363
150439044924670,17.837131,1.504718,1.033958,-0.120983
150439054925824,17.847132,1.688939,1.051582,-0.447489
150439064926841,17.857133,1.581869,1.063269,-0.635763
150439074927785,17.867134,1.484136,0.781274,-0.369229
150439084928944,17.877135,1.661891,0.727464,0.128206
150439094929927,17.887136,2.157033,0.57192,0.677991
150439104930852,17.897137,2.54259,0.097331,1.198462
150439114932006,17.907138,3.252343,-0.215605,1.528914
150439124932985,17.917139,3.861405,-0.456908,1.844995
150439134933925,17.927140,4.106375,-0.580548,1.857837
150439144935079,17.937141,3.705458,-0.663347,1.651377
150439154936091,17.947142,2.699034,-0.75207,1.428224
150439164937245,17.957143,1.846451,-0.844653,1.266462
150439174938173,17.967144,0.637709,-1.017661,1.312555
150439184939189,17.977145,-0.147719,-1.256827,1.663814
150439194940351,17.987146,-0.284754,-1.354303,1.957245
150439204941283,17.997147,-0.25954,-1.332305,1.881109
150439214942285,18.007148,-0.035957,-1.472173,1.7624
150439224943437,18.017149,0.035334,-1.574365,1.627695
150439234944360,18.027150,-0.07867,-1.826963,1.789087
150439244945346,18.037151,-0.217561,-1.908181,1.946703
150439254946485,18.047152,0.120894,-1.993563,2.06402
150439264947404,18.057153,0.079408,-1.949762,1.769563
150439274948406,18.067154,-0.341013,-1.910409,1.284511
150439284949324,18.077155,-0.163839,-1.591918,0.828098
150439294950478,18.087156,-0.785285,-1.290317,0.397175
150439304951481,18.097157,-1.507806,-1.305249,0.199559
150439314952620,18.107159,-1.682468,-1.318908,0.411832
150439324953529,18.117160,-1.455241,-1.20779,0.757293
150439334954502,18.127161,-1.028117,-1.341976,1.296994
150439344955651,18.137162,-0.300018,-1.464557,1.671487
150439354956567,18.147163,0.598211,-1.605574,1.876992
150439364957495,18.157163,1.210192,-1.74206,1.938071
150439374958726,18.167165,1.925303,-1.866304,2.116137
150439384959635,18.177166,2.090548,-1.72384,2.249593
150439394960635,18.187167,1.767772,-1.473508,2.245575
150439404961760,18.197168,0.887627,-1.190938,1.925837
150439414962789,18.207169,-0.335877,-0.959797,1.385135
150439424963712,18.217170,-0.787121,-0.807477,0.898108
150439434964637,18.227171,-1.169671,-0.685932,0.5557
150439444965791,18.237172,-1.120489,-0.717549,0.475119
150439454966790,18.247173,-1.115327,-0.977254,0.727338
150439464967942,18.257174,-0.792436,-1.263382,1.104199
150439474968856,18.267175,-0.088864,-1.354766,1.306124
150439484969841,18.277176,0.687939,-1.504226,1.272013
150439494970782,18.287177,0.895401,-1.467429,0.891881
150439504971945,18.297178,0.549884,-1.497586,0.379255
150439514972962,18.307179,0.002775,-1.342372,-0.303308
150439524973902,18.317180,-0.748106,-1.172388,-0.804793
150439534975056,18.327181,-1.231138,-1.112053,-1.047722
150439544975962,18.337182,-1.2449,-1.06174,-1.096399
150439554976960,18.347183,-0.855454,-0.966654,-1.084956
150439564978128,18.357184,-0.211305,-0.89982,-1.002519
150439574979128,18.367185,0.490235,-0.675223,-0.91737
150439584980060,18.377186,1.24998,-0.488982,-0.522907
150439594981214,18.387187,1.805236,-0.556704,0.074536
150439604982123,18.397188,2.313917,-0.676353,0.94711
150439614983352,18.407189,2.701352,-0.537631,1.760266
150439624984275,18.417190,3.125414,-0.253827,2.252075
150439634985198,18.427191,3.262107,-0.040642,2.211497
150439644986200,18.437192,2.753221,0.139289,1.692653
150439654987366,18.447193,1.896021,0.498918,1.033351
150439664988366,18.457194,0.765361,0.8161,0.754846
150439674989291,18.467195,0.069512,0.947846,0.928166
150439684990450,18.477196,-0.188391,1.130468,1.127918
150439694991371,18.487197,-0.128776,1.283735,1.263409
150439704992593,18.497199,-0.039981,1.222684,1.216281
150439714993516,18.507200,0.507825,1.189512,1.178031
150439724994516,18.517201,1.103473,1.028398,1.390239
150439734995440,18.527201,1.696559,0.698002,1.713851
150439744996588,18.537203,2.300406,0.456382,1.958291
150439754997602,18.547204,2.535419,0.537051,1.901565
150439764998532,18.557205,1.773167,0.939512,1.184014
150439774999698,18.567206,0.335213,1.075911,0.193051
150439785000621,18.577207,-0.627709,0.726605,-0.42992
150439795001623,18.587208,-1.1001,0.166745,-0.561734
150439805002768,18.597209,-0.851126,-0.363153,-0.112252
150439815003684,18.607210,0.003305,-0.55043,0.635417
150439825004681,18.617211,0.881686,-0.752992,1.095023
150439835005604,18.627212,1.358701,-1.020389,1.157941
150439845006772,18.637213,1.044096,-1.018668,0.88713
150439855007772,18.647214,-0.050366,-1.100468,0.32284
150439865008685,18.657215,-1.096278,-1.239918,-0.089819
150439875009824,18.667216,-1.800097,-1.301325,-0.228
150439885010755,18.677217,-2.313643,-1.358681,-0.002344
150439895011757,18.687218,-2.309891,-1.250105,0.294285
150439905012925,18.697219,-2.058358,-1.16686,0.30151
150439915013933,18.707220,-1.514888,-1.123163,0.004173
150439925014858,18.717221,-1.055628,-1.287652,-0.151165
150439935015983,18.727222,-0.497582,-1.631093,0.365628
150439945016981,18.737223,0.062497,-1.925538,1.283134
150439955017882,18.747224,0.564958,-1.844331,1.94398
150439965019034,18.757225,0.708988,-1.514754,1.874254
150439975019957,18.767226,0.375867,-1.114491,1.033125
150439985020968,18.777227,-0.523159,-0.898865,-0.100546
150439995021882,18.787228,-1.327117,-0.702563,-0.792094
150440005023036,18.797229,-1.796144,-0.56817,-0.902875
150440015024055,18.807230,-1.855877,-0.655844,-0.484572
150440025025202,18.817231,-1.330214,-0.619928,0.143335
150440035026125,18.827232,-0.525582,-0.653551,0.769875
150440045027053,18.837233,0.234182,-0.590518,1.052931
150440055028298,18.847234,0.900441,-0.553527,1.038157
150440065029207,18.857235,0.856131,-0.562564,0.820495
150440075030202,18.867236,0.568923,-0.740346,0.785449
150440085031127,18.877237,0.4301,-0.789522,0.999813
150440095032031,18.887238,0.339655,-0.763128,1.142075
150440105033194,18.897239,0.236869,-0.78268,1.07271
150440115034194,18.907240,0.125458,-0.565047,0.594706
150440125035146,18.917241,0.014064,-0.495618,0.098666
150440135036300,18.927242,-0.083541,-0.486413,-0.035185
150440145037216,18.937243,-0.228122,-0.608615,0.31608
150440155038223,18.947244,-0.290946,-0.679234,0.872092
150440165039391,18.957245,-0.434158,-0.530643,1.108111
150440175040322,18.967246,-0.860954,-0.38527,0.873311
150440185041338,18.977247,-1.107464,-0.235648,0.392924
150440195042473,18.987248,-1.292419,-0.101235,-0.101488
150440205043476,18.997249,-1.180705,-0.093369,-0.282225
150440215044401,19.007250,-0.801573,-0.157337,-0.246725
150440225045324,19.017251,-0.338449,-0.417619,0.094128
150440235046478,19.027252,0.168885,-0.521763,0.517398
150440245047471,19.037253,0.484695,-0.377172,0.661485
150440255048386,19.047254,0.560008,-0.150092,0.452212
150440265049538,19.057256,0.315315,0.024453,0.121192
150440275050538,19.067257,-0.265256,0.146025,-0.105282
150440285051468,19.077257,-0.599121,0.2351,0.001053
150440295052603,19.087259,-0.644634,0.157346,0.351302
150440305053524,19.097260,-0.344403,0.112467,0.749884
150440315054540,19.107261,0.285975,-0.063271,1.143107
150440325055463,19.117261,0.927526,-0.281412,1.466104
150440335056607,19.127263,1.330044,-0.314466,1.640493
150440345057605,19.137264,1.390067,-0.378152,1.827185
150440355058516,19.147265,1.321372,-0.284715,1.725556
150440365059675,19.157266,0.900779,-0.191914,1.536975
150440375060658,19.167267,0.469496,-0.076248,1.332829
150440385061593,19.177268,0.028791,-0.076352,1.177683
150440395062730,19.187269,-0.654904,-0.03558,0.942756
150440405063659,19.197270,-0.757621,0.034468,0.567722
150440415064652,19.207271,-0.838455,0.256015,0.067635
150440425065804,19.217272,-0.651337,0.503641,-0.345213
150440435066727,19.227273,-0.475416,0.325396,-0.441348
150440445067743,19.237274,-0.147031,-0.1144,0.048403
150440455068652,19.247275,0.474151,-0.410891,0.916617
150440465069580,19.257276,1.356978,-0.535287,1.658595
150440475070808,19.267277,2.006393,-0.601856,2.033294
150440485071717,19.277278,2.725992,-0.44645,2.035984
150440495072643,19.287279,2.979342,-0.167589,1.548017
150440505073781,19.297280,2.341463,0.063278,1.051213
150440515074779,19.307281,1.455403,0.090849,0.972052
150440525075710,19.317282,0.849848,-0.098331,1.502288
150440535076863,19.327283,0.665091,-0.185188,2.161719
150440545077784,19.337284,0.848387,-0.099713,2.564037
150440555078785,19.347285,0.871307,0.091547,2.444662
150440565079940,19.357286,0.518961,0.34963,1.906849
150440575080852,19.367287,-0.122661,0.640705,1.271875
150440585081785,19.377288,-0.831369,0.89936,0.894672
150440595082802,19.387289,-1.599012,0.936387,0.81953
150440605083948,19.397290,-1.644516,0.456239,1.39954
150440615084876,19.407291,-0.558953,-0.072952,2.053489
150440625085886,19.417292,0.942201,-0.252219,2.314396
150440635086825,19.427293,1.94826,-0.362772,2.003223
150440645087979,19.437294,1.97801,-0.167878,1.079195
150440655088977,19.447295,1.200889,0.026168,0.195949
150440665089912,19.457296,0.288345,-0.019059,-0.133048
150440675091080,19.467297,-0.405522,-0.097819,-0.052478
150440685091987,19.477298,-0.504669,-0.451584,0.334559
150440695093003,19.487299,-0.121055,-0.541862,0.729339
150440705093926,19.497300,0.338965,-0.450289,0.751502
150440715095075,19.507301,0.499041,-0.273642,0.376151
150440725096070,19.517302,0.26954,-0.07346,-0.010409
150440735096989,19.527303,-0.362301,-5.5E-5,-0.189356
150440745097912,19.537304,-0.914867,-0.036407,0.10968
150440755099065,19.547305,-1.154214,-0.228382,0.833361
150440765100063,19.557306,-0.654188,-0.438443,1.655011
150440775101217,19.567307,0.229242,-0.585492,1.973333
150440785102111,19.577308,0.987319,-0.715739,1.857151
150440795103048,19.587309,1.296667,-0.634395,1.377641
150440805104065,19.597310,1.042147,-0.472952,0.830279
150440815104978,19.607311,0.222231,-0.393188,0.587925
150440825106132,19.617312,-0.557864,-0.187334,0.676477
150440835107048,19.627313,-0.913902,-0.139474,0.899245
150440845108045,19.637314,-1.100585,-0.147857,0.915866
150440855108973,19.647315,-1.018609,-0.11324,0.742899
150440865110117,19.657316,-0.537267,-0.235753,0.554843
150440875111146,19.667317,-0.064817,-0.347318,0.482095
150440885112055,19.677318,0.252871,-0.341839,0.647524
150440895113214,19.687319,0.49929,-0.452811,1.039521
150440905114134,19.697320,0.689395,-0.509819,1.47361
150440915115134,19.707321,0.670322,-0.557595,1.693303
150440925116286,19.717322,0.780973,-0.615533,1.786799
150440935117221,19.727323,0.916924,-0.458572,1.627513
150440945118149,19.737324,0.498131,-0.182234,1.11513
150440955119141,19.747325,-0.513694,0.033838,0.522367
150440965120069,19.757326,-1.407589,0.238027,0.124293
150440975121223,19.767327,-1.772068,0.347413,-0.034317
150440985122211,19.777328,-1.756573,0.302483,0.024073
150440995123146,19.787329,-1.180576,0.147822,0.334917
150441005124300,19.797330,-0.273642,0.153142,0.544723
150441015125221,19.807331,0.289827,0.212145,0.579043
150441025126144,19.817332,0.705603,0.17281,0.51183
150441035127380,19.827333,0.927262,0.099631,0.474568
150441045128312,19.837334,1.116733,0.130718,0.455558
150441055129221,19.847335,0.853844,0.063294,0.648919
150441065130223,19.857336,0.691273,0.065834,0.898201
150441075131131,19.867337,0.638961,0.230258,0.98612
150441085132055,19.877338,0.350379,0.40624,0.816554
150441095133232,19.887339,-0.065066,0.546209,0.504101
150441105134232,19.897340,-0.538587,0.627472,0.192264
150441115135147,19.907341,-0.740901,0.53425,0.23256
150441125136300,19.917342,-0.622139,0.302799,0.504382
150441135137309,19.927343,-0.013413,0.175152,0.839977
150441145138243,19.937344,0.554962,0.018664,1.252357
150441155139394,19.947345,0.977298,-0.029317,1.513831
150441165140318,19.957346,1.36513,-0.086553,1.419558
150441175141246,19.967347,1.335974,-0.018013,1.087791
150441185142253,19.977348,0.951951,0.041854,0.787628
150441195143414,19.987349,0.317013,-0.025698,0.728624
150441205144318,19.997350,-0.013107,-0.176529,0.722656
150441215145318,20.007351,0.104971,-0.383025,1.015344
150441225146239,20.017352,0.384307,-0.381557,1.269508
150441235147386,20.027353,0.533028,-0.540071,1.378794
150441245148309,20.037354,0.593379,-0.596045,1.342854
150441255149309,20.047355,0.596383,-0.548084,1.170216
150441265150234,20.057356,0.456355,-0.452507,1.005121
150441275151162,20.067357,0.294105,-0.426207,1.07079
150441285152311,20.077358,0.020331,-0.524488,1.124286
150441295153316,20.087359,-0.302075,-0.361344,1.073479
150441305154239,20.097360,-0.08334,0.252489,1.054713
150441315155391,20.107361,-0.679845,0.161684,1.096907
150441325156298,20.117362,-0.7208,0.339003,0.654337
150441335157298,20.127363,-0.827771,0.53002,0.403755
150441345158204,20.137364,-0.99792,0.557467,0.256336
150441355159332,20.147365,-0.904744,0.556646,0.325924
150441365160265,20.157366,-0.369021,0.286545,0.572649
150441375161267,20.167367,0.161712,0.083635,0.911744
150441385162170,20.177368,0.699836,0.012797,1.27756
150441395163093,20.187369,1.261675,-0.168951,1.710969
150441405164252,20.197370,1.645814,-0.295543,1.969111
150441415165257,20.207371,2.085237,-0.242685,1.8585
150441425166180,20.217372,2.049878,-0.007424,1.437327
150441435167341,20.227373,1.338698,0.153783,0.931346
150441445168264,20.237374,0.393827,0.16942,0.497282
150441455169158,20.247375,-0.445711,0.104104,0.416925
150441465170149,20.257376,-1.116463,0.052907,0.515624
150441475171303,20.267377,-1.536305,0.152603,0.708444
150441485172221,20.277378,-1.362745,0.127657,0.899792
150441495173226,20.287379,-0.666016,-0.069793,0.868976
150441505174176,20.297380,-0.234417,-0.195697,0.619852
150441515175315,20.307381,-0.227617,-0.248929,0.248327
150441525176246,20.317382,-0.447132,-0.266218,0.082823
150441535177174,20.327383,-0.985049,-0.196815,-0.188126
150441545178174,20.337384,-1.622959,-0.182313,-0.339751
150441555179318,20.347385,-2.044337,-0.147108,-0.4861
150441565180250,20.357386,-2.137588,-0.181514,-0.593858
150441575181265,20.367387,-1.820433,-0.439644,-0.415232
150441585182200,20.377388,-0.92766,-0.856675,0.202516
150441595183133,20.387389,0.170474,-1.003972,0.709618
150441605184056,20.397390,1.170493,-1.063307,1.178855
150441615185290,20.407391,1.678906,-1.108951,1.495809
150441625186224,20.417392,1.688769,-1.151718,1.425881
150441635187171,20.427393,0.997251,-1.014913,1.135538
150441645188325,20.437394,0.268506,-0.89915,0.875858
150441655189242,20.447395,-0.320092,-0.860505,0.797761
150441665190242,20.457396,-0.486935,-0.791952,0.824178
150441675191167,20.467397,-0.517025,-0.680476,0.750082
150441685192293,20.477398,-0.644922,-0.563459,0.626376
150441695193231,20.487399,-0.942218,-0.399536,0.210489
150441705194149,20.497400,-1.461518,-0.360224,-0.157062
150441715195151,20.507401,-1.85032,-0.21263,-0.45115
150441725196079,20.517402,-1.971542,-0.153251,-0.58309
150441735197228,20.527403,-1.879984,-0.24534,-0.536895
150441745198154,20.537404,-1.497774,-0.353568,-0.463165
150441755199151,20.547405,-0.850918,-0.294281,-0.44568
150441765200305,20.557406,-0.26737,-0.232469,-0.522421
150441775201211,20.567407,0.218882,-0.366962,-0.532162
150441785202120,20.577408,0.527988,-0.477749,-0.431386
150441795203122,20.587409,0.840049,-0.437277,-0.264414
150441805204054,20.597410,0.999644,-0.4646,-0.061834
150441815205206,20.607411,1.184928,-0.466782,0.1249
150441825206115,20.617412,1.250758,-0.361699,0.237884
150441835207024,20.627413,1.252404,-0.321308,0.383614
150441845208054,20.637414,1.092593,-0.401828,0.509395
150441855208977,20.647415,1.027896,-0.30666,0.508323
150441865210115,20.657416,0.880697,0.041463,0.429216
150441875211047,20.667417,0.481616,0.237808,0.433918
150441885212035,20.677418,-0.189659,0.356202,0.526102
150441895212959,20.687419,-0.887431,0.557818,0.544555
150441905214115,20.697420,-1.301732,0.67028,0.642147
150441915215110,20.707421,-1.267712,0.533591,0.754282
150441925216039,20.717422,-1.061441,0.484782,0.872604
150441935216964,20.727423,-0.544837,0.477072,0.891392
150441945218116,20.737424,-0.147279,0.380179,0.789657
150441955219044,20.747425,0.123257,0.433342,0.471768
150441965219967,20.757426,-0.118878,0.455124,-0.097535
150441975220967,20.767427,-0.672883,0.59816,-0.620665
150441985221887,20.777428,-1.174172,0.677498,-0.93281
150441995223017,20.787429,-1.388297,0.572503,-0.973009
150442005223928,20.797430,-1.275191,0.496278,-0.787362
150442015224851,20.807431,-0.917868,0.461232,-0.411019
150442025225835,20.817432,-0.199224,0.308331,0.165606
150442035226758,20.827433,0.480111,0.063879,0.594202
150442045227912,20.837434,0.901066,-0.051132,1.024585
150442055228842,20.847435,1.27755,-0.011356,1.399804
150442065229770,20.857436,1.412166,-0.015206,1.552024
150442075230782,20.867437,1.167759,0.059796,1.601899
150442085231710,20.877438,0.302871,0.159211,1.459618
150442095232852,20.887439,-0.577729,0.261856,1.084119
150442105233770,20.897440,-1.075757,0.334277,0.754153
150442115234770,20.907441,-1.261253,0.377093,0.48717
150442125235695,20.917442,-1.395763,0.423542,0.287188
150442135236623,20.927443,-1.500995,0.427034,0.083062
150442145237777,20.937444,-1.69473,0.334677,-0.064777
150442155238765,20.947445,-1.743087,0.234748,-0.248506
150442165239688,20.957446,-1.511217,0.055971,-0.33468
150442175240619,20.967447,-0.999418,-0.180246,-0.27033
150442185241556,20.977448,-0.411168,-0.324743,-0.065744
150442195242710,20.987449,0.220443,-0.390715,0.284468
150442205243636,20.997450,0.518138,-0.481518,0.586565
150442215244641,21.007451,0.542413,-0.420947,0.699546
150442225245551,21.017452,0.473858,-0.061231,0.533119
150442235246479,21.027452,0.063134,0.172051,0.179142
150442245247633,21.037454,-0.751578,0.24057,-0.164417
150442255248650,21.047455,-1.271907,0.344271,-0.270712
150442265249590,21.057456,-1.334014,0.362763,-0.120161
150442275250513,21.067457,-0.864654,0.321797,0.267329
150442285251665,21.077458,-0.003761,0.228982,0.636934
150442295252592,21.087459,0.613063,0.230524,0.870512
150442305253592,21.097460,0.948855,0.367732,0.847252
150442315254517,21.107461,1.196434,0.306504,0.843358
150442325255435,21.117461,1.181413,0.258035,0.827987
150442335256363,21.127462,0.812972,0.439502,0.66124
150442345257281,21.137463,7.43E-4,0.589868,0.359992
150442355258448,21.147464,-0.565561,0.694544,0.19614
150442365259459,21.157465,-0.805365,0.632812,0.237238
150442375260382,21.167466,-0.592043,0.659337,0.330576
150442385261305,21.177467,-0.204534,0.786572,0.357769
150442395262473,21.187468,0.167464,0.679696,0.402944
150442405263390,21.197469,0.447903,0.507537,0.446435
150442415264392,21.207470,0.545434,0.437165,0.499691
150442425265302,21.217471,0.512506,0.443354,0.507698
150442435266225,21.227472,0.218871,0.547353,0.300747
150442445267361,21.237473,-0.251246,0.62249,0.019276
150442455268295,21.247474,-0.788404,0.747412,-0.349891
150442465269218,21.257475,-1.122181,0.85553,-0.570223
150442475270234,21.267476,-1.010701,0.673847,-0.499834
150442485271152,21.277477,-0.425681,0.387156,-0.116186
150442495272066,21.287478,0.501679,0.174057,0.450031
150442505272993,21.297479,1.362804,-0.027808,0.826289
150442515274143,21.307480,2.063746,-0.158457,1.045219
150442525275126,21.317481,2.505858,-0.108873,1.047585
150442535276056,21.327482,2.32368,-0.13375,0.879372
150442545276979,21.337483,1.558017,-0.102925,0.709765
150442555277873,21.347484,0.58681,-0.205772,0.637807
150442565279025,21.357485,-0.132837,-0.209887,0.595017
150442575279953,21.367486,-0.431411,-0.023495,0.508916
150442585280883,21.377487,-0.629959,0.117778,0.215137
150442595281887,21.387488,-0.88046,0.183443,-0.171269
150442605282825,21.397489,-1.24631,0.271193,-0.482437
150442615283979,21.407490,-1.5984,0.331283,-0.69333
150442625284909,21.417491,-1.837728,0.279176,-0.772505
150442635285832,21.427492,-1.785191,-0.009322,-0.52908
150442645286756,21.437493,-1.29105,-0.184054,-0.08568
150442655287730,21.447494,-0.342511,-0.335257,0.346233
150442665288672,21.457495,0.568363,-0.427692,0.723279
150442675289840,21.467496,1.35148,-0.383972,0.821863
150442685290761,21.477497,1.489944,-0.234075,0.50667
150442695291699,21.487498,1.065376,-0.106891,0.00326
150442705292622,21.497499,0.167656,-0.027518,-0.368173
150442715293638,21.507500,-0.618774,-0.029441,-0.499142
150442725294804,21.517501,-0.942203,0.008182,-0.461371
150442735295742,21.527502,-0.711355,0.11292,-0.227874
150442745296665,21.537503,-0.142787,0.10156,-0.103566
150442755297583,21.547504,0.284442,0.027119,-0.08042
150442765298500,21.557505,0.699055,0.003326,-0.169315
150442775299488,21.567505,0.602757,0.046015,-0.423468
150442785300411,21.577506,0.268207,0.032975,-0.522736
150442795301329,21.587507,-0.009771,-0.085699,-0.433954
150442805302476,21.597508,-0.246722,-0.034926,-0.458024
150442815303404,21.607509,-0.502147,-0.020615,-0.536329
150442825304420,21.617510,-0.524404,-0.041646,-0.64628
150442835305312,21.627511,-0.410714,0.035869,-0.745368
150442845306225,21.637512,-0.295501,0.173574,-0.834227
150442855307152,21.647513,-0.549326,0.319544,-0.972964
150442865308299,21.657514,-0.845264,0.390389,-1.134419
150442875309208,21.667515,-1.072339,0.275556,-1.267458
150442885310117,21.677516,-0.980935,0.107574,-1.324184
150442895311025,21.687517,-0.33152,0.001577,-1.236199
150442905312027,21.697518,0.439348,-0.059132,-0.97766
150442915312936,21.707519,0.986553,-0.0128,-0.693529
150442925313844,21.717520,1.12473,-5.5E-4,-0.511474
150442935314996,21.727521,1.045241,-0.018772,-0.331607
150442945315919,21.737522,0.775706,-0.122047,-0.170201
150442955316842,21.747523,0.470437,-0.284588,-0.016989
150442965317765,21.757524,0.379035,-0.273177,0.06883
150442975318683,21.767525,0.211892,-0.099513,0.015874
150442985319681,21.777526,-0.13382,0.123614,-0.207143
150442995320828,21.787527,-0.83704,0.304854,-0.484513
150443005321780,21.797528,-1.504774,0.441139,-0.666673
150443015322717,21.807529,-1.922202,0.408052,-0.614169
150443025323714,21.817530,-1.923713,0.279461,-0.355455
150443035324636,21.827531,-1.274378,0.094905,0.087391
150443045325561,21.837532,-0.309806,-0.131852,0.544631
150443055326484,21.847532,0.511991,-0.288894,0.925498
150443065327421,21.857533,1.054838,-0.403655,1.112487
150443075328344,21.867534,1.095354,-0.353096,1.044145
150443085329513,21.877536,0.671361,-0.217191,0.738613
150443095330443,21.887536,-0.177137,-0.050687,0.248174
150443105331352,21.897537,-1.147493,0.004124,-0.183258
150443115332277,21.907538,-1.762364,0.018762,-0.369726
150443125333263,21.917539,-1.855237,-0.075214,-0.28144
150443135334410,21.927540,-1.396888,-0.253313,-0.159099
150443145335099,21.937541,-0.592992,-0.289636,-0.017572
150443155336251,21.947542,0.299838,-0.353825,0.119557
150443165337178,21.957543,0.754072,-0.410134,0.227547
150443175338087,21.967544,0.744153,-0.431528,0.224641
150443185339011,21.977545,0.225436,-0.385657,0.126686
150443195339948,21.987546,-0.171113,-0.312254,0.146864
150443205340955,21.997547,-0.589342,-0.290252,0.235458
150443215341878,22.007548,-0.659455,-0.283098,0.393483
150443225342815,22.017549,-0.427187,-0.339552,0.51991
150443235343963,22.027550,0.098259,-0.411356,0.554033
150443245344886,22.037551,0.576473,-0.45308,0.548345
150443255345794,22.047552,0.903666,-0.415256,0.577172
150443265346736,22.057553,0.949412,-0.429928,0.599683
150443275347757,22.067554,0.786018,-0.459428,0.69431
150443285348603,22.077555,0.565285,-0.45686,0.767966
150443295349618,22.087556,0.176377,-0.396321,0.692881
150443305350541,22.097557,-0.246391,-0.255763,0.557773
150443315351699,22.107558,-0.476037,-0.321773,0.539524
150443325352392,22.117558,-0.354162,-0.506809,0.668725
150443335353557,22.127560,-0.075307,-0.615829,0.91884
150443345354476,22.137560,0.572855,-0.675217,1.270187
150443355355399,22.147561,1.059456,-0.81044,1.484206
150443365356304,22.157562,1.232627,-0.971339,1.680936
150443375357311,22.167563,1.335516,-1.071635,1.791723
150443385358234,22.177564,1.055203,-1.00328,1.64155
150443395359381,22.187565,0.498244,-0.931021,1.167416
150443405360322,22.197566,-0.32393,-0.853095,0.567692
150443415361245,22.207567,-0.985962,-0.801738,0.15229
150443425362183,22.217568,-1.463562,-0.819611,-0.122548
150443435363106,22.227569,-1.518193,-0.823705,-0.179103
150443445364014,22.237570,-1.2361,-0.841784,-0.099071
150443455364919,22.247571,-0.751748,-0.910288,0.061474
150443465365915,22.257572,-0.277368,-0.976124,0.202054
150443475366824,22.267573,0.00269,-0.988848,0.217168
150443485367747,22.277574,0.140166,-0.928148,0.121941
150443495368670,22.287575,0.186731,-0.842629,0.004139
150443505369803,22.297576,0.019993,-0.880988,0.101065
150443515370731,22.307577,0.144514,-1.026468,0.445142
150443525371654,22.317578,0.520948,-1.197216,0.845692
150443535372572,22.327579,1.181616,-1.265924,1.18948
150443545373495,22.337579,1.882594,-1.129308,1.226566
150443555374399,22.347580,2.367769,-0.999423,0.986136
150443565375410,22.357581,2.284286,-0.893083,0.547726
150443575376333,22.367582,1.543225,-0.73004,0.304172
150443585377229,22.377583,0.534098,-0.512824,0.305548
150443595378147,22.387584,-0.362884,-0.290196,0.383795
150443605379070,22.397585,-0.924646,-0.132363,0.494774
150443615379989,22.407586,-1.089275,-9.81E-4,0.51399
150443625381142,22.417587,-1.063602,0.116165,0.325596
150443635382069,22.427588,-0.840942,0.211319,0.036811
150443645383006,22.437589,-0.520506,0.235049,-0.106008
