time,seconds_elapsed,z,y,x
150421328016514,0.120223,-0.1082125,0.0609125,0.0391875
150421338017745,0.130224,-0.168025,0.1892,0.0746625
150421348018951,0.140225,-0.2072125,0.2759625,0.117425
150421358020163,0.150226,-0.2327875,0.318725,0.156475
150421368021369,0.160227,-0.24255,0.3333,0.187
150421378022510,0.170229,-0.2352625,0.307725,0.2017125
150421388023744,0.180230,-0.20845,0.214775,0.1956625
150421398024975,0.190231,-0.1632125,0.0719125,0.16499999
150421408026201,0.200232,-0.117975,-0.0881375,0.10395
150421418027436,0.210233,-0.0935,-0.20185,0.051425
150421428028681,0.220235,-0.08745,-0.2336125,0.0331375
150421438029927,0.230236,-0.1021625,-0.19195,0.0367125
150421448030924,0.240237,-0.1216875,-0.100375,0.0611875
150421458032153,0.250238,-0.1387375,-0.001375,0.1076625
150421468033389,0.260239,-0.1387375,0.0669625,0.1271875
150421478034619,0.270241,-0.1155,0.0999625,0.0991375
150421488035850,0.280242,-0.0862125,0.092675,0.018424999
150421498037077,0.290243,-0.043449998,0.0889625,-0.0939125
150421508038308,0.300244,0.004125,0.1379125,-0.1843875
150421518039519,0.310246,0.0078375,0.2343,-0.2259125
150421528040674,0.320247,0.004125,0.363825,-0.21615
150421538041980,0.330248,-0.0031625,0.4873,-0.1684375
150421548043218,0.340249,0.0176,0.5641625,-0.10615
150421558044358,0.350250,0.11165,0.55935,-0.091437496
150421568045572,0.360252,0.1654125,0.534875,-0.0853875
150421578046773,0.370253,0.219175,0.451825,-0.0853875
150421588048004,0.380254,0.24365,0.3040125,-0.1013375
150421598049226,0.390255,0.246125,0.0584375,-0.1403875
150421608050457,0.400256,0.2338875,-0.0820875,-0.1769625
150421618051693,0.410258,0.373175,-0.2849,-0.1551
150421628052924,0.420259,0.428175,-0.4802875,-0.136675
150421638054155,0.430260,0.4904625,-0.7161,-0.0768625
150421648055375,0.440261,0.5075125,-0.6257625,-0.0011
150421658056376,0.450262,0.5490375,-0.619575,0.0771375
150421668057619,0.460264,0.5245625,-0.7063375,0.067375
150421678058836,0.470265,0.451275,-0.71005,-0.0243375
150421688060085,0.480266,0.4037,-0.65505,-0.11715
150421698061316,0.490267,0.390225,-0.508475,-0.21367499
150421708062547,0.500269,0.3975125,-0.1749,-0.3102
150421718063778,0.510270,0.3999875,-0.0331375,-0.3834875
150421728064934,0.520271,0.335225,0.2099625,-0.456775
150421738066239,0.530272,0.2057,0.3773,-0.4750625
150421748067409,0.540273,0.1276,0.4090625,-0.4079625
150421758068653,0.550275,0.0908875,0.2539625,-0.285725
150421768069879,0.560276,0.075075,0.0572,-0.1233375
150421778071124,0.570277,0.0506,-0.105325,0.062425
150421788072364,0.580278,-0.0166375,-0.2567125,0.217525
150421798073595,0.590280,-0.1692625,-0.506,0.319
150421808074826,0.600281,-0.106975,-0.8053375,0.4521
150421818076062,0.610282,-0.0801625,-0.8151,0.3862375
150421828077297,0.620283,-0.043449998,-0.605,0.28105
150421838078528,0.630285,-0.034925,-0.4877125,0.1186625
150421848079505,0.640286,-0.139975,-0.304425,0.0466125
150421858080749,0.650287,-0.1546875,-0.1186625,0.05995
150421868081965,0.660288,-0.1546875,-0.0246125,0.0111375
150421878083196,0.670289,-0.1265,0.0303875,-0.042625
150421888084431,0.680290,-0.0837375,0.065725,-0.108625
150421898085662,0.690292,-0.045925,0.124437496,-0.219725
150421908086893,0.700293,-0.014162499,0.236775,-0.3542
150421918088124,0.710294,0.020075,0.2673,-0.47025
150421928089326,0.720295,-0.028875,0.2905375,-0.5594875
150421938090548,0.730297,-0.0374,0.451825,-0.495825
150421948091779,0.740298,0.015125,0.451825,-0.3664375
150421958092991,0.750299,0.120175,0.38334998,-0.163625
150421968094222,0.760300,0.0884125,0.2490125,0.0551375
150421978095372,0.770301,0.07865,0.102437496,0.283525
150421988096600,0.780303,0.034649998,-0.072325,0.3788125
150421998097826,0.790304,-0.0092124995,-0.2299,0.32999998
150422008099072,0.800305,-0.067925,-0.3361875,0.2041875
150422018100303,0.810306,-0.095975,-0.43147498,0.045375
150422028101534,0.820308,-0.0716375,-0.5267625,-0.1013375
150422038102774,0.830309,-0.0251625,-0.5352875,-0.2063875
150422048104010,0.840310,0.004125,-0.37895,-0.257675
150422058105241,0.850311,0.0127875,-0.13585,-0.329725
150422068106458,0.860312,-0.0154,0.20019999,-0.4433
150422078107684,0.870314,-0.054449998,0.4420625,-0.5105375
150422088108915,0.880315,-0.106975,0.63635,-0.6645375
150422098109934,0.890316,-0.1705,0.721875,-0.81235
150422108111394,0.900317,-0.2242625,0.74387497,-0.8941625
150422118112642,0.910319,-0.3403125,0.9477875,-0.94545
150422128113882,0.920320,-0.59688747,1.2337875,-1.0054
150422138114882,0.930321,-0.8107,1.3338875,-1.0236875
150422148116110,0.940322,-0.87175,1.478125,-0.9284
150422158117336,0.950323,-0.780175,1.4524125,-0.7231125
150422168118567,0.960325,-0.6518875,1.225125,-0.45925
150422178119798,0.970326,-0.581075,0.90145,-0.208725
150422188121009,0.980327,-0.5566,0.4873,0.00385
150422198122239,0.990328,-0.55165,0.0572,0.1442375
150422208123470,1.000329,-0.5663625,-0.2959,0.19195
150422218124687,1.010331,-0.593175,-0.506,0.1687125
150422228125913,1.020332,-0.614075,-0.5267625,0.1076625
150422238127149,1.030333,-0.620125,-0.415525,0.0319
150422248128380,1.040334,-0.587125,-0.23595,-0.036575
150422258129611,1.050336,-0.51507497,-0.036849998,-0.0658625
150422268130856,1.060337,-0.42955,0.0864875,-0.06215
150422278132077,1.070338,-0.36355,0.0754875,-0.0268125
150422288133289,1.080339,-0.33055,-0.028324999,0.01595
150422298134525,1.090341,-0.306075,-0.2237125,0.040425
150422308135756,1.100342,-0.2817375,-0.404525,0.0526625
150422318136987,1.110343,-0.2682625,-0.451,0.0966625
150422328138218,1.120344,-0.26345,-0.3691875,0.1821875
150422338139448,1.130345,-0.249975,-0.2336125,0.29205
150422348140678,1.140347,-0.227975,-0.0991375,0.4008125
150422358141903,1.150348,-0.2035,-0.0198,0.4741
150422368143129,1.160349,-0.1802625,-0.0210375,0.49005
150422378144360,1.170350,-0.1546875,-0.0539,0.4533375
150422388145501,1.180352,-0.12045,-0.0820875,0.40205
150422398146816,1.190353,-0.0947375,-0.1040875,0.3458125
150422408148049,1.200354,-0.067925,-0.111375,0.283525
150422418149266,1.210355,-0.0422125,-0.1150875,0.2041875
150422428150477,1.220356,-0.029975,-0.138325,0.101475
150422438151703,1.230358,-0.045925,-0.1711875,-0.0023375
150422448152853,1.240359,-0.056925,-0.2677125,-0.1208625
150422458154172,1.250360,-0.0532125,-0.3179,-0.2014375
150422468155328,1.260361,-0.0496375,-0.2982375,-0.2369125
150422478156630,1.270363,-0.051975,-0.2457125,-0.251625
150422488157862,1.280364,-0.0471625,-0.1639,-0.2283875
150422498159088,1.290365,-0.032449998,-0.0759,-0.1623875
150422508160319,1.300366,-0.0264,-0.034375,-0.078099996
150422518161536,1.310368,-0.0264,-0.0820875,0.0209
150422528162767,1.320369,-0.043449998,-0.3227125,0.0501875
150422538163987,1.330370,-0.0642125,-0.4802875,0.0759
150422548165217,1.340371,-0.0336875,-0.5097125,0.117425
150422558166467,1.350372,-0.0801625,-0.414425,0.1552375
150422568167627,1.360374,-0.1632125,-0.276375,0.1491875
150422578168856,1.370375,-0.194975,-0.1076625,0.1296625
150422588170086,1.380376,-0.166925,0.020624999,0.0991375
150422598171413,1.390377,-0.1362625,0.043725,0.0759
150422608172646,1.400379,-0.12773749,0.0119624995,0.0746625
150422618173805,1.410380,-0.1326875,-0.050325,0.0856625
150422628175110,1.420381,-0.1485,-0.122375,0.09295
150422638176352,1.430382,-0.168025,-0.1601875,0.0917125
150422648177583,1.440384,-0.177925,-0.150425,0.0979
150422658178829,1.450385,-0.1827375,-0.116325,0.1442375
150422668180069,1.460386,-0.190025,-0.058849998,0.2127125
150422678181285,1.470387,-0.1962125,-0.0050875,0.2737625
150422688182516,1.480389,-0.1986875,0.037675,0.3117125
150422698183761,1.490390,-0.1912625,0.0669625,0.3287625
150422708185020,1.500391,-0.1692625,0.0584375,0.3067625
150422718186237,1.510392,-0.117975,0.009625,0.2432375
150422728187467,1.520393,-0.0496375,-0.056375,0.1601875
150422738188669,1.530395,-0.001925,-0.078375,0.073425
150422748189893,1.540396,0.0127875,-0.0515625,-0.020624999
150422758191134,1.550397,0.0127875,0.004675,-0.1098625
150422768192350,1.560398,0.0127875,0.0804375,-0.1782
150422778193581,1.570400,0.004125,0.1170125,-0.21367499
150422788194802,1.580401,-0.0154,0.09515,-0.229625
150422798196053,1.590402,-0.023924999,0.0523875,-0.2222
150422808197284,1.600403,-0.0276375,-0.012375,-0.2283875
150422818198715,1.610405,-0.0276375,-0.089375,-0.27115
150422828199717,1.620406,-0.02145,-0.1431375,-0.34925
150422838200927,1.630407,-0.0154,-0.1516625,-0.43353748
150422848202158,1.640408,-0.0044,-0.0748,-0.4653
150422858203633,1.650410,0.01155,0.0804375,-0.43353748
150422868204636,1.660411,0.034649998,0.2050125,-0.356675
150422878206095,1.670412,0.0543125,0.2222,-0.24915
150422888207342,1.680413,0.0653125,0.159775,-0.125675
150422898208318,1.690414,0.0603625,0.0279125,-0.0011
150422908209547,1.700416,0.0298375,-0.12485,0.0917125
150422918211008,1.710417,-0.0166375,-0.2409,0.123475
150422928212309,1.720418,-0.054449998,-0.2921875,0.0661375
150422938213237,1.730419,-0.0617375,-0.2531375,-0.0413875
150422948214701,1.740421,-0.0496375,-0.1296625,-0.125675
150422958215919,1.750422,-0.040975,0.02915,-0.147675
150422968217150,1.760423,-0.054449998,0.1854875,-0.103675
150422978218461,1.770424,-0.089925,0.27225,-0.014575
150422988219694,1.780426,-0.1302125,0.25025,0.10395
150422998220934,1.790427,-0.161975,0.1219625,0.22247499
150423008221872,1.800428,-0.1912625,-0.0638,0.3227125
150423018223413,1.810429,-0.21945,-0.2189,0.3837625
150423028224641,1.820431,-0.24145,-0.2946625,0.374
150423038225872,1.830432,-0.2487375,-0.2787125,0.283525
150423048227102,1.840433,-0.245025,-0.194425,0.145475
150423058228318,1.850434,-0.2327875,-0.0906125,0.0037125
150423068229530,1.860436,-0.21945,-0.0198,-0.147675
150423078230756,1.870437,-0.2072125,0.0169125,-0.2919125
150423088232002,1.880438,-0.1925,0.0559625,-0.384725
150423098233232,1.890439,-0.177925,0.07425,-0.417725
150423108234471,1.900440,-0.1705,0.043725,-0.389675
150423118235701,1.910442,-0.1607375,-0.0331375,-0.31515
150423128236947,1.920443,-0.1571625,-0.1065625,-0.2259125
150423138238182,1.930444,-0.1607375,-0.1529,-0.147675
150423148239428,1.940445,-0.1485,-0.1480875,-0.0891
150423158240659,1.950447,-0.1144,-0.10285,-0.053625
150423168241885,1.960448,-0.0814,-0.0528,-0.0523875
150423178243116,1.970449,-0.0606375,0.00715,-0.1013375
150423188244337,1.980450,-0.039875,0.0644875,-0.1879625
150423198245797,1.990452,-0.0202125,0.0829125,-0.274725
150423208246799,2.000453,-0.014162499,0.0534875,-0.33467498
150423218248038,2.010454,-0.012925,0.0132,-0.3529625
150423228249269,2.020455,-0.0081124995,-0.0026125,-0.3359125
150423238250514,2.030457,0.004125,0.015675,-0.296725
150423248251980,2.040458,0.03355,0.0792,-0.2332
150423258253213,2.050459,0.0688875,0.16225,-0.1464375
150423268254241,2.060460,0.10065,0.2160125,-0.042625
150423278255470,2.070461,0.1104125,0.2270125,0.0539
150423288256701,2.080463,0.0933625,0.1659625,0.106425
150423298257936,2.090464,0.0578875,0.032725,0.090475
150423308259384,2.100465,0.02255,-0.127325,-0.0083875
150423318260622,2.110467,0.0286,-0.2567125,-0.158675
150423328261866,2.120468,0.0713625,-0.249425,-0.2979625
150423338263097,2.130469,0.1128875,-0.133375,-0.3859625
150423348264328,2.140470,0.1434125,0.054725,-0.390775
150423358265559,2.150472,0.164175,0.258775,-0.312675
150423368266804,2.160473,0.164175,0.379775,-0.169675
150423378268039,2.170474,0.1508375,0.3515875,0.0111375
150423388269269,2.180475,0.1373625,0.20253749,0.19195
150423398270494,2.190476,0.1128875,0.015675,0.3422375
150423408271725,2.200478,0.0738375,-0.1260875,0.4313375
150423418272951,2.210479,0.03355,-0.1676125,0.4631
150423428274168,2.220480,0.0078375,-0.1150875,0.4497625
150423438275155,2.230481,5.5E-4,-0.0270875,0.407
150423448276615,2.240483,5.5E-4,0.0413875,0.3312375
150423458277862,2.250484,0.0017875,0.0669625,0.217525
150423468279093,2.260485,-0.0056375,0.054725,0.095425
150423478280308,2.270486,-0.029975,0.0364375,-0.0048125
150423488281539,2.280488,-0.073975,9.625E-4,-0.069575
150423498282756,2.290489,-0.12045,-0.0539,-0.10615
150423508283987,2.300490,-0.150975,-0.0991375,-0.124437496
150423518285218,2.310491,-0.150975,-0.1211375,-0.1343375
150423528286218,2.320492,-0.133925,-0.105325,-0.1318625
150423538287436,2.330493,-0.10945,-0.061325,-0.1098625
150423548288879,2.340495,-0.0837375,-0.02585,-0.0719125
150423558290126,2.350496,-0.0606375,-0.047849998,-0.036575
150423568291126,2.360497,-0.0374,-0.089375,1.375E-4
150423578292355,2.370498,-0.0092124995,-0.064899996,0.0636625
150423588293816,2.380500,0.0127875,0.0352,0.1662375
150423598295049,2.390501,0.0127875,0.16225,0.3092375
150423608296054,2.400502,-0.0044,0.247775,0.4533375
150423618297499,2.410503,-0.018975,0.252725,0.56581247
150423628298732,2.420505,-0.0422125,0.1634875,0.619575
150423638299977,2.430506,-0.0666875,0.0389125,0.6061
150423648300997,2.440507,-0.095975,-0.064899996,0.53405
150423658302212,2.450508,-0.1326875,-0.122375,0.4081
150423668303443,2.460509,-0.1766875,-0.127325,0.2322375
150423678304687,2.470511,-0.2107875,-0.116325,0.0441375
150423688305913,2.480512,-0.2352625,-0.128425,-0.1354375
150423698307135,2.490513,-0.238975,-0.1859,-0.2894375
150423708308366,2.500514,-0.21945,-0.24695,-0.3884375
150423718309822,2.510516,-0.1986875,-0.238425,-0.4164875
150423728310833,2.520517,-0.190025,-0.15413749,-0.3639625
150423738312062,2.530518,-0.2072125,-0.0576125,-0.2393875
150423748313274,2.540519,-0.2352625,-0.023375,-0.0829125
150423758314505,2.550521,-0.2365,-0.0930875,0.0441375
150423768315722,2.560522,-0.19745,-0.1931875,0.1051875
150423778316961,2.570523,-0.122925,-0.2189,0.132
150423788318187,2.580524,-0.039875,-0.1431375,0.14795
150423798319418,2.590525,0.0323125,-0.0356125,0.1419
150423808320644,2.600527,0.0823625,0.037675,0.10395
150423818321846,2.610528,0.103125,0.0523875,0.03795
150423828323077,2.620529,0.0908875,0.048675,-0.0499125
150423838324304,2.630530,0.0664125,0.05115,-0.12815
150423848325549,2.640532,0.0433125,0.0474375,-0.1758625
150423858326766,2.650533,0.0237875,0.0523875,-0.1892
150423868327987,2.660534,0.0103124995,0.0999625,-0.158675
150423878329227,2.670535,0.0028875,0.1964875,-0.078099996
150423888330381,2.680536,0.0017875,0.285725,0.0429
150423898331596,2.690538,5.5E-4,0.3040125,0.1821875
150423908332827,2.700539,0.0028875,0.2429625,0.3128125
150423918334067,2.710540,0.015125,0.136675,0.3972375
150423928335288,2.720541,0.026124999,0.031625,0.432575
150423938336519,2.730543,0.0237875,-0.0320375,0.41799998
150423948337779,2.740544,5.5E-4,-0.0356125,0.365475
150423958339005,2.750545,-0.0361625,0.0119624995,0.30305
150423968340236,2.760546,-0.0826375,0.103675,0.28105
150423978341481,2.770547,-0.1387375,0.22453749,0.3397625
150423988342712,2.780549,-0.201025,0.3210625,0.4778125
150423998343948,2.790550,-0.278025,0.3370125,0.6598625
150424008345193,2.800551,-0.36107498,0.2222,0.8064375
150424018346194,2.810552,-0.438075,-0.0356125,0.8199125
150424028347422,2.820553,-0.455125,-0.3312375,0.6831
150424038348663,2.830555,-0.4038375,-0.605,0.415525
150424048349889,2.840556,-0.306075,-0.7833375,0.040425
150424058351125,2.850557,-0.1802625,-0.7821,-0.406725
150424068352341,2.860558,-0.0594,-0.630575,-0.8465875
150424078353571,2.870560,0.0323125,-0.3752375,-1.21055
150424088354817,2.880561,0.098175,-0.050325,-1.4586
150424098356038,2.890562,0.13859999,0.2673,-1.5563625
150424108357269,2.900563,0.14093749,0.4615875,-1.4988875
150424118358486,2.910564,0.103125,0.48235,-1.2887875
150424128359698,2.920566,0.0506,0.3284875,-0.964975
150424138360853,2.930567,-6.875E-4,0.0193875,-0.6303
150424148362077,2.940568,-0.045925,-0.3361875,-0.329725
150424158363327,2.950569,-0.1034,-0.6367625,-0.0853875
150424168364558,2.960571,-0.17545,-0.83709997,0.0356125
150424178365783,2.970572,-0.2292125,-0.878625,-0.0158125
150424188367004,2.980573,-0.24145,-0.7601,-0.23567499
150424198368220,2.990574,-0.2132625,-0.5328125,-0.5435375
150424208369451,3.000575,-0.150975,-0.276375,-0.8306375
150424218370682,3.010577,-0.0814,-0.086899996,-1.013925
150424228371674,3.020578,-0.0116875,-0.0075625,-1.0542125
150424238372902,3.030579,0.0543125,-0.017324999,-0.97473747
150424248374133,3.040580,0.1043625,-0.061325,-0.8171625
150424258375374,3.050581,0.12265,-0.1016125,-0.63635
150424268376600,3.060583,0.109175,-0.14685,-0.49101248
150424278377831,3.070584,0.0823625,-0.1969,-0.3920125
150424288379075,3.080585,0.0653125,-0.265375,-0.323675
150424298380246,3.090586,0.0688875,-0.321475,-0.27115
150424308381561,3.100588,0.1018875,-0.310475,-0.2173875
150424318382732,3.110589,0.1519375,-0.2629,-0.1868625
150424328383951,3.120590,0.2314125,-0.1639,-0.1843875
150424338385181,3.130591,0.32793748,-0.0185625,-0.17215
150424348386412,3.140592,0.4037,0.125675,-0.125675
150424358387648,3.150594,0.44027498,0.22453749,-0.053625
150424368388903,3.160595,0.4415125,0.2600125,0.040425
150424378389910,3.170596,0.41593748,0.2490125,0.1529
150424388391139,3.180597,0.37675,0.1989625,0.2481875
150424398392397,3.190598,0.3364625,0.0939125,0.3007125
150424408393619,3.200600,0.302225,-0.023375,0.3227125
150424418394850,3.210601,0.252175,-0.0771375,0.3312375
150424428396066,3.220602,0.197175,-0.058849998,0.352
150424438397242,3.230603,0.1324125,-0.00385,0.4008125
150424448398551,3.240605,0.056649998,0.0609125,0.4717625
150424458399707,3.250606,-0.014162499,0.1170125,0.5608625
150424468400951,3.260607,-0.0814,0.1524875,0.669625
150424478402187,3.270608,-0.144925,0.158675,0.7893875
150424488403418,3.280609,-0.1925,0.1304875,0.90543747
150424498404628,3.290611,-0.2242625,0.065725,0.9860125
150424508405621,3.300612,-0.2437875,-0.0160875,1.0214875
150424518406854,3.310613,-0.256025,-0.0771375,1.0349625
150424528408071,3.320614,-0.2633125,-0.0979,1.0300125
150424538409302,3.330615,-0.260975,-0.10285,1.0032
150424548410533,3.340617,-0.2475,-0.0796125,0.95425
150424558411744,3.350618,-0.23155,-0.0320375,0.8724375
150424568412910,3.360619,-0.2182125,0.032725,0.7673875
150424578414139,3.370620,-0.1997875,0.131725,0.6733375
150424588415370,3.380621,-0.1827375,0.22825,0.597575
150424598416582,3.390623,-0.1876875,0.296725,0.515625
150424608417826,3.400624,-0.20845,0.3565375,0.42405
150424618419067,3.410625,-0.234025,0.3553,0.355575
150424628420050,3.420626,-0.2633125,0.3113,0.319
150424638421274,3.430627,-0.271975,0.28325,0.2932875
150424648422505,3.440629,-0.2633125,0.2759625,0.2627625
150424658423651,3.450630,-0.2695,0.274725,0.22495
150424668424866,3.460631,-0.306075,0.208725,0.1577125
150424678426091,3.470632,-0.3135,0.0584375,0.0367125
150424688427322,3.480633,-0.2963125,-0.0856625,-0.10615
150424698428538,3.490635,-0.2206875,-0.22013749,-0.30415
150424708429536,3.500636,-0.0996875,-0.3399,-0.59235
150424718430774,3.510637,-0.0251625,-0.495,-1.013925
150424728432005,3.520638,-0.001925,-0.5927625,-1.528175
150424738433235,3.530639,0.0103124995,-0.580525,-1.9960874
150424748434391,3.540640,0.0273625,-0.462,-2.3051875
150424758435620,3.550642,0.0713625,-0.2151875,-2.4151876
150424768436851,3.560643,0.1483625,0.0694375,-2.317425
150424778438077,3.570644,0.22893749,0.31501248,-1.9888
150424788439298,3.580645,0.2827,0.4763,-1.445125
150424798440300,3.590646,0.2924625,0.4786375,-0.7744
150424808441529,3.600648,0.23265,0.4090625,-0.1331
150424818442685,3.610649,0.208175,0.20019999,0.421575
150424828443991,3.620650,0.16293749,-0.0881375,0.857725
150424838445137,3.630651,0.053075,-0.32395,1.1290125
150424848446365,3.640652,-0.08745,-0.49995,1.249875
150424858447596,3.650654,-0.2242625,-0.627,1.2145375
150424868448822,3.660655,-0.3355,-0.6782875,1.0373
150424878449819,3.670656,-0.3892625,-0.624525,0.774675
150424888451048,3.680657,-0.3892625,-0.492525,0.503525
150424898452219,3.690658,-0.3513125,-0.3337125,0.272525
150424908453452,3.700659,-0.30855,-0.1896125,0.1027125
150424918454682,3.710661,-0.29273748,-0.0160875,0.0061875
150424928455913,3.720662,-0.289025,0.1892,-0.0341
150424938456901,3.730663,-0.2682625,0.319825,-0.0059125
150424948458130,3.740664,-0.2523125,0.3614875,0.086899996
150424958459350,3.750665,-0.2267375,0.324775,0.227425
150424968460576,3.760667,-0.17173749,0.20253749,0.3568125
150424978461731,3.770668,-0.0801625,-0.023375,0.4362875
150424988462955,3.780669,0.0213125,-0.2849,0.4497625
150424998463953,3.790670,0.1104125,-0.464475,0.41181248
150425008465182,3.800671,0.1923625,-0.508475,0.3262875
150425018466417,3.810672,0.268125,-0.41799998,0.2151875
150425028467663,3.820674,0.329175,-0.243375,0.111237496
150425038468818,3.830675,0.35475,-0.0270875,0.02695
150425048470052,3.840676,0.3449875,0.1915375,-0.04015
150425058471283,3.850677,0.3267,0.30525,-0.075625
150425068472294,3.860678,0.268125,0.3284875,-0.0903375
150425078473523,3.870680,0.180125,0.2954875,-0.092675
150425088474674,3.880681,0.097075,0.247775,-0.0804375
150425098475889,3.890682,0.05555,0.19525,-0.0463375
150425108477124,3.900683,0.0543125,0.120725,0.0111375
150425118478369,3.910684,0.0738375,0.070675,0.073425
150425128479376,3.920685,0.0884125,0.0572,0.117425
150425138480605,3.930687,0.0738375,0.0902,0.106425
150425148481772,3.940688,0.05555,0.153725,0.0611875
150425158483010,3.950689,0.048125,0.208725,0.0196625
150425168484255,3.960690,0.0433125,0.236775,-0.0011
150425178485247,3.970691,0.0408375,0.2355375,0.0026125
150425188486476,3.980692,0.0017875,0.1904375,-0.0011
150425198487692,3.990694,-0.0056375,0.197725,-0.0083875
150425208488848,4.000695,-0.0031625,0.208725,-0.01815
150425218490073,4.010696,-0.0264,0.1304875,-0.020624999
150425228491075,4.020697,-0.0581625,0.0389125,0.0099
150425238492293,4.030698,-0.0886875,-0.0906125,0.0221375
150425248493449,4.040699,-0.089925,-0.205425,-0.009625
150425258494678,4.050701,-0.062975,-0.2861375,-0.091437496
150425268495919,4.060702,-0.034925,-0.304425,-0.197725
150425278496921,4.070703,-0.0154,-0.22495,-0.2869625
150425288498149,4.080704,-0.014162499,-0.0906125,-0.3432
150425298499305,4.090705,-0.0422125,0.091437496,-0.362725
150425308500533,4.100707,-0.0886875,0.2649625,-0.345675
150425318501760,4.110708,-0.1351625,0.363825,-0.2844875
150425328502747,4.120709,-0.1582625,0.38225,-0.1672
150425338503986,4.130710,-0.155925,0.32725,-0.014575
150425348505142,4.140711,-0.1375,0.2539625,0.13213749
150425358506375,4.150712,-0.106975,0.186725,0.261525
150425368507615,4.160714,-0.08745,0.11715,0.3557125
150425378508626,4.170715,-0.0801625,0.0609125,0.41181248
150425388509787,4.180716,-0.084975,0.0144375,0.4313375
150425398511018,4.190717,-0.1106875,-0.0100375,0.410575
150425408512030,4.200718,-0.1485,0.0034375,0.35805
150425418513268,4.210719,-0.1962125,0.021724999,0.2957625
150425428514499,4.220720,-0.2437875,0.031625,0.24695
150425438515636,4.230722,-0.26455,0.043725,0.2322375
150425448516869,4.240723,-0.2572625,0.06215,0.2567125
150425458518105,4.250724,-0.24255,0.0829125,0.3031875
150425468519121,4.260725,-0.2267375,0.1049125,0.3482875
150425478520259,4.270726,-0.21573749,0.0889625,0.3702875
150425488521494,4.280727,-0.216975,0.0279125,0.3458125
150425498522725,4.290729,-0.21573749,-0.0441375,0.2847625
150425508523733,4.300730,-0.205975,-0.0966625,0.2077625
150425518524866,4.310731,-0.190025,-0.0955625,0.1406625
150425528526096,4.320732,-0.1766875,-0.0331375,0.086899996
150425538527317,4.330733,-0.1705,0.037675,0.0441375
150425548528334,4.340734,-0.1766875,0.0499125,0.0086624995
150425558529553,4.350736,-0.1887875,0.009625,-0.0328625
150425568530709,4.360737,-0.1962125,-0.064899996,-0.0804375
150425578531637,4.370738,-0.194975,-0.1431375,-0.1269125
150425588532943,4.380739,-0.172975,-0.19813749,-0.1464375
150425598534098,4.390740,-0.1412125,-0.1846625,-0.1183875
150425608535098,4.400741,-0.1216875,-0.09185,-0.06215
150425618536336,4.410742,-0.12045,0.0352,1.375E-4
150425628537557,4.420744,-0.1326875,0.147675,0.051425
150425638538709,4.430745,-0.1472625,0.1830125,0.084425
150425648539694,4.440746,-0.15345,0.1194875,0.0831875
150425658540923,4.450747,-0.155925,-0.001375,0.0539
150425668542140,4.460748,-0.161975,-0.1186625,0.0306625
150425678543300,4.470749,-0.17173749,-0.1846625,0.034375
150425688544543,4.480751,-0.1766875,-0.2041875,0.0539
150425698545545,4.490752,-0.1766875,-0.1786125,0.0881375
150425708546468,4.500752,-0.1887875,-0.0991375,0.1161875
150425718547702,4.510754,-0.1962125,-0.0160875,0.123475
150425728548923,4.520755,-0.19373749,0.015675,0.1247125
150425738549848,4.530756,-0.179025,-0.0210375,0.1247125
150425748551082,4.540757,-0.1595,-0.127325,0.12595
150425758552308,4.550758,-0.1326875,-0.2299,0.1309
150425768553464,4.560759,-0.0935,-0.2457125,0.14795
150425778554692,4.570761,-0.0617375,-0.2006125,0.1772375
150425788555699,4.580762,-0.0507375,-0.1406625,0.205425
150425798556855,4.590763,-0.0605,-0.1016125,0.227425
150425808558096,4.600764,-0.0727375,-0.0710875,0.2517625
150425818559337,4.610765,-0.0776875,-0.0441375,0.283525
150425828560334,4.620766,-0.08745,-0.0295625,0.316525
150425838561500,4.630768,-0.1057375,-0.0466125,0.332475
150425848562531,4.640769,-0.1155,-0.0906125,0.3422375
150425858563678,4.650770,-0.1265,-0.1381875,0.349525
150425868564878,4.660771,-0.1387375,-0.16885,0.32999998
150425878565880,4.670772,-0.144925,-0.1516625,0.271425
150425888567109,4.680773,-0.150975,-0.117425,0.1907125
150425898568260,4.690774,-0.1557875,-0.056375,0.1101375
150425908569475,4.700775,-0.1485,0.032725,0.0576125
150425918570482,4.710776,-0.13145,0.147675,0.0636625
150425928571701,4.720778,-0.1155,0.22825,0.133375
150425938572857,4.730779,-0.1155,0.2770625,0.242
150425948573862,4.740780,-0.13145,0.2649625,0.3507625
150425958574994,4.750781,-0.1412125,0.153725,0.4167625
150425968576225,4.760782,-0.128975,-0.02585,0.44605
150425978577212,4.770783,-0.1032625,-0.2261875,0.426525
150425988578359,4.780784,-0.0715,-0.4021875,0.3752375
150425998579586,4.790786,-0.0605,-0.4852375,0.305525
150426008580602,4.800787,-0.0837375,-0.4302375,0.2102375
150426018581739,4.810788,-0.12045,-0.232375,0.1137125
150426028582956,4.820789,-0.1557875,0.0144375,0.0501875
150426038583968,4.830790,-0.1766875,0.18425,0.0356125
150426048585206,4.840791,-0.1692625,0.202675,0.0576125
150426058586362,4.850792,-0.1522125,0.0889625,0.08195
150426068587353,4.860793,-0.1375,-0.0881375,0.08085
150426078588505,4.870795,-0.124025,-0.232375,0.0380875
150426088589521,4.880796,-0.1106875,-0.293425,-0.0389125
150426098590668,4.890797,-0.1032625,-0.233475,-0.1109625
150426108591899,4.900798,-0.1021625,-0.09185,-0.15015
150426118592901,4.910799,-0.0972125,0.0572,-0.1464375
150426128594053,4.920800,-0.1057375,0.181775,-0.1049125
150426138595313,4.930801,-0.1167375,0.2074875,-0.0499125
150426148596328,4.940802,-0.1192125,0.10725,-0.0133375
150426158597484,4.950803,-0.12045,-0.0636625,0.001375
150426168598715,4.960805,-0.1252625,-0.1871375,0.0026125
150426178599722,4.970806,-0.124025,-0.2226125,-0.009625
150426188600951,4.980807,-0.12045,-0.1846625,-0.015675
150426198602107,4.990808,-0.1155,-0.0966625,-0.0023375
150426208603116,5.000809,-0.1155,-0.006325,0.0466125
150426218604273,5.010810,-0.135025,0.0644875,0.1296625
150426228605266,5.020811,-0.1742125,0.0389125,0.1969
150426238606437,5.030812,-0.2132625,-0.0600875,0.20899999
150426248607668,5.040814,-0.2327875,-0.2066625,0.1529
150426258608670,5.050815,-0.2217875,-0.3727625,0.0380875
150426268609830,5.060816,-0.1777875,-0.4582875,-0.1073875
150426278610852,5.070817,-0.113025,-0.4131875,-0.2514875
150426288612004,5.080818,-0.056925,-0.2481875,-0.3504875
150426298613235,5.090819,-0.0264,-0.0405625,-0.37125
150426308614237,5.100820,-0.0312125,0.124437496,-0.3040125
150426318615360,5.110821,-0.051975,0.1904375,-0.1794375
150426328616376,5.120822,-0.06545,0.113437496,-0.0328625
150426338617542,5.130824,-0.0776875,-0.09185,0.09185
150426348618540,5.140825,-0.082499996,-0.2897125,0.1639
150426358619773,5.150826,-0.07645,-0.3716625,0.16995
150426393623698,5.185830,-0.117975,0.06215,-0.0059125
150426403624698,5.195831,-0.1387375,0.0939125,0.0050875
150426413625847,5.205832,-0.172975,0.037675,0.0050875
150426423626862,5.215833,-0.194975,-0.0686125,-0.0463375
150426433628011,5.225834,-0.17173749,-0.233475,-0.0999625
150426443629011,5.235835,-0.14973749,-0.308,-0.1659625
150426453630223,5.245836,-0.100925,-0.282425,-0.21725
150426463631366,5.255837,-0.0556875,-0.17613749,-0.2234375
150426473632366,5.265838,-0.0397375,-0.0319,-0.152625
150426483633520,5.275840,-0.0752125,0.10725,-0.0279125
150426493634491,5.285840,-0.1375,0.1794375,0.1431375
150426503635645,5.295842,-0.2047375,0.1524875,0.3227125
150426513636862,5.305843,-0.256025,0.0303875,0.4497625
150426523637867,5.315844,-0.300025,-0.0746625,0.4632375
150426533639021,5.325845,-0.227975,-0.2176625,0.4362875
150426543640035,5.335846,-0.19373749,-0.29095,0.376475
150426553641160,5.345847,-0.1595,-0.277475,0.3031875
150426563642160,5.355848,-0.14245,-0.205425,0.2079
150426573643314,5.365849,-0.1472625,-0.11385,0.1211375
150426583644300,5.375850,-0.1705,-0.01485,0.0796125
150426593645453,5.385851,-0.2035,0.02915,0.0721875
150426603646688,5.395853,-0.2365,-0.0270875,0.084425
150426613647688,5.405854,-0.26455,-0.1101375,0.0856625
150426623648842,5.415855,-0.251075,-0.1736625,0.0416625
150426633649861,5.425856,-0.2022625,-0.238425,-0.003575
150426643651025,5.435857,-0.161975,-0.2017125,-0.0584375
150426653652025,5.445858,-0.1106875,-0.122375,-0.0963875
150426663653184,5.455859,-0.0935,-0.0270875,-0.0829125
150426673654198,5.465860,-0.100925,0.091437496,-0.0144375
150426683655338,5.475861,-0.1142625,0.1599125,0.09295
150426693656343,5.485862,-0.128975,0.1500125,0.2017125
150426703657557,5.495864,-0.1375,0.070675,0.2627625
150426713658491,5.505864,-0.1705,-1.375E-4,0.253
150426723659655,5.515866,-0.1192125,-0.100375,0.2079
150426733660655,5.525867,-0.0935,-0.1419,0.1491875
150426743661807,5.535868,-0.0617375,-0.1016125,0.1101375
150426753663064,5.545869,-0.0446875,-0.028324999,0.0881375
150426763663997,5.555870,-0.06545,0.037675,0.064899996
150426773664988,5.565871,-0.106975,0.042625,0.036849998
150426783666141,5.575872,-0.146025,0.00715,-0.0121
150426793667146,5.585873,-0.157025,-0.050325,-0.0804375
150426803668362,5.595874,-0.1387375,-0.1260875,-0.1599125
150426813669290,5.605875,-0.095975,-0.150425,-0.197725
150426823670536,5.615877,-0.0484,-0.0979,-0.18315
150426833671468,5.625877,-0.0226875,-1.375E-4,-0.1012
150426843672608,5.635879,-0.0336875,0.1219625,0.02585
150426853673622,5.645880,-0.0691625,0.18425,0.1651375
150426863674760,5.655881,-0.0996875,0.125675,0.2701875
150426873675771,5.665882,-0.100925,-0.01485,0.297
150426883676906,5.675883,-0.062975,-0.177375,0.2371875
150426893678127,5.685884,-0.0031625,-0.2959,0.1101375
150426903679050,5.695885,0.047025,-0.2787125,-0.04015
150426913680050,5.705886,0.0653125,-0.13585,-0.1513875
150426923681179,5.715887,0.0383625,0.065725,-0.169675
150426933682170,5.725888,-0.0312125,0.26125,-0.103675
150426943683393,5.735889,-0.111925,0.318725,0.013612499
150426953684319,5.745890,-0.1815,0.2099625,0.1357125
150426963685482,5.755891,-0.2217875,-0.00385,0.20047499
150426973686467,5.765892,-0.21573749,-0.2519,0.1931875
150426983687611,5.775894,-0.16555,-0.4032875,0.13213749
150426993688597,5.785895,-0.0947375,-0.37895,0.0636625
150427003689520,5.795896,-0.0471625,-0.1907125,0.017324999
150427013690780,5.805897,-0.0592625,0.0559625,-0.0023375
150427023691929,5.815898,-0.1155,0.225775,0.0026125
150427033692929,5.825899,-0.1742125,0.2294875,-0.0011
150427043694088,5.835900,-0.223025,0.091437496,-0.0242
150427053695078,5.845901,-0.24255,-0.058849998,-0.098725
150427063696232,5.855902,-0.1595,-0.3007125,-0.164725
150427073697170,5.865903,-0.0862125,-0.3862375,-0.263725
150427083698174,5.875904,0.01155,-0.308,-0.3322
150427093699336,5.885905,0.0738375,-0.1040875,-0.3345375
150427103700348,5.895906,0.059125,0.1549625,-0.263725
150427113701502,5.905908,-0.014162499,0.3223,-0.131725
150427123702487,5.915908,-0.1106875,0.3064875,0.01485
150427133703627,5.925910,-0.1925,0.1269125,0.11495
150427143704550,5.935911,-0.24255,-0.1381875,0.1296625
150427153705779,5.945912,-0.24007499,-0.3642375,0.0576125
150427163706700,5.955913,-0.1997875,-0.396,-0.0584375
150427173707695,5.965914,-0.1522125,-0.2176625,-0.16115
150427183708832,5.975915,-0.1362625,0.0682,-0.202675
150427193709834,5.985916,-0.1692625,0.2990625,-0.17215
150427203710987,5.995917,-0.22055,0.362725,-0.0719125
150427213711907,6.005918,-0.267025,0.21367499,0.0759
150427223713151,6.015919,-0.3025,-0.0416625,0.216425
150427233714074,6.025920,-0.3245,-0.3069,0.275
150427243715083,6.035921,-0.3293125,-0.459525,0.260425
150427253716233,6.045922,-0.322025,-0.4057625,0.233475
150427263717237,6.055923,-0.3135,-0.2041875,0.277475
150427273718160,6.065924,-0.3146,0.15125,0.3581875
150427283719319,6.075925,-0.350075,0.2429625,0.3031875
150427293720319,6.085926,-0.4318875,0.1489125,0.155375
150427303721487,6.095927,-0.44907498,0.09515,0.0820875
150427313722492,6.105928,-0.4136,-0.0221375,0.028324999
150427323723661,6.115930,-0.4197875,-0.304425,-0.0559625
150427333724603,6.125931,-0.36355,-0.2787125,-0.12815
150427343725608,6.135932,-0.35255,-0.15413749,-0.1892
150427353726783,6.145933,-0.383075,0.0499125,-0.247775
150427363727771,6.155934,-0.4246,0.1964875,-0.3614875
150427373728925,6.165935,-0.422125,0.1610125,-0.511775
150427383729852,6.175936,-0.44288749,0.0352,-0.550825
150427393731088,6.185937,-0.4673625,-0.111375,-0.4665375
150427403732011,6.195938,-0.4538875,-0.2959,-0.38225
150427413733025,6.205939,-0.39655,-0.3887125,-0.3212
150427423734169,6.215940,-0.3293125,-0.3202375,-0.241725
150427433735092,6.225941,-0.2695,-0.166375,-0.103675
150427443736323,6.235942,-0.227975,0.004675,0.089375
150427453737264,6.245943,-0.2437875,0.1084875,0.2762375
150427463738266,6.255944,-0.30855,0.08415,0.3911875
150427473739419,6.265945,-0.38555,-0.0416625,0.38747498
150427483740342,6.275946,-0.42955,-0.2591875,0.2591875
150427493741342,6.285947,-0.416075,-0.4767125,0.047849998
150427503742492,6.295948,-0.36107498,-0.5633375,-0.1439625
150427513743400,6.305949,-0.2853125,-0.4412375,-0.2539625
150427523744387,6.315950,-0.2132625,-0.1846625,-0.291775
150427533745524,6.325952,-0.1802625,0.1159125,-0.2514875
150427543746526,6.335953,-0.19855,0.3944875,-0.1403875
150427553747680,6.345954,-0.2707375,0.5105375,0.0246125
150427563748603,6.355955,-0.3573625,0.3320625,0.205425
150427573749603,6.365956,-0.4307875,-0.0490875,0.304425
150427583750526,6.375957,-0.4466,-0.503525,0.282425
150427593751685,6.385958,-0.38555,-0.81014997,0.1601875
150427603752680,6.395959,-0.2938375,-0.8724375,-0.00715
150427613753826,6.405960,-0.2047375,-0.702625,-0.1414875
150427623754814,6.415961,-0.1522125,-0.360525,-0.208725
150427633755732,6.425962,-0.1607375,0.0352,-0.21725
150427643756879,6.435963,-0.2267375,0.318725,-0.169675
150427653757876,6.445964,-0.3245,0.36025,-0.131725
150427663759030,6.455965,-0.3977875,0.1464375,-0.124437496
150427673759953,6.465966,-0.416075,-0.172425,-0.125675
150427683760886,6.475967,-0.4038375,-0.44,-0.1073875
150427693762136,6.485968,-0.3928375,-0.448525,-0.0584375
150427703763057,6.495969,-0.40507498,-0.282425,-0.0242
150427713764073,6.505970,-0.45155,-0.064899996,-0.026675
150427723765225,6.515971,-0.5223625,0.1012,-0.0584375
150427733766150,6.525972,-0.5919375,0.0719125,-0.1414875
150427743767148,6.535973,-0.6274125,-0.1076625,-0.2222
150427753768299,6.545974,-0.6213625,-0.25547498,-0.2564375
150427763769230,6.555975,-0.60665,-0.2762375,-0.2160125
150427773770237,6.565976,-0.604175,-0.2481875,-0.1684375
150427783771180,6.575977,-0.604175,-0.1736625,-0.1549625
150427793772334,6.585978,-0.593175,-0.117425,-0.1599125
150427803773339,6.595979,-0.560175,-0.1639,-0.1854875
150427813774498,6.605980,-0.49665,-0.2616625,-0.2270125
150427823775426,6.615981,-0.4258375,-0.319,-0.2759625
150427833776426,6.625982,-0.377025,-0.29095,-0.2941125
150427843777348,6.635983,-0.3647875,-0.22495,-0.270875
150427853778502,6.645985,-0.3685,-0.211475,-0.2244
150427863779472,6.655985,-0.3647875,-0.2726625,-0.1926375
150427873780397,6.665986,-0.355025,-0.437525,-0.2281125
150427883781549,6.675988,-0.2952125,-0.65505,-0.314875
150427893782474,6.685988,-0.1106875,-0.807675,-0.39545
150427903783488,6.695989,-0.0031625,-0.7173375,-0.41387498
150427913784647,6.705991,0.054175,-0.420475,-0.3491125
150427923785649,6.715992,0.0078375,0.0548625,-0.18053749
150427933786560,6.725993,-0.1302125,0.522775,0.0369875
150427943787712,6.735994,-0.2902625,0.7156875,0.2556125
150427953788637,6.745995,-0.4503125,0.5203,0.364375
150427963789637,6.755996,-0.5663625,0.08415,0.3265625
150427973790555,6.765997,-0.587125,-0.459525,0.1445125
150427983791712,6.775998,-0.537075,-0.8724375,-0.1060125
150427993792642,6.785999,-0.4357375,-0.96415,-0.36245
150428003793627,6.796000,-0.3317875,-0.7381,-0.573925
150428013794781,6.806001,-0.2487375,-0.1907125,-0.722975
150428023795707,6.816002,-0.227975,0.5495875,-0.817025
150428033796709,6.826003,-0.2817375,1.1385,-0.86955
150428043797875,6.836004,-0.37345,1.5159374,-0.9158875
150428053798800,6.846005,-0.4797375,1.545225,-1.021075
150428063799798,6.856006,-0.5786,1.280125,-1.17865
150428073800709,6.866007,-0.6593125,0.91368747,-1.3765125
150428083801856,6.876008,-0.7033125,0.5423,-1.54275
150428093802781,6.886009,-0.724075,0.113437496,-1.6355625
150428103803781,6.896010,-0.6923125,-0.1969,-1.6698
150428113804933,6.906011,-0.598125,-0.31295,-1.5756125
150428123805842,6.916012,-0.4797375,-0.2311375,-1.4265625
150428133806857,6.926013,-0.3612125,0.0389125,-1.27875
150428143808011,6.936014,-0.2902625,0.30525,-1.1834625
150428153808944,6.946015,-0.1986875,0.3040125,-1.2128875
150428163809860,6.956016,-0.150975,0.27225,-1.2824625
150428173810857,6.966017,-0.1816375,0.0792,-1.298275
150428183812019,6.976018,-0.3232625,-0.1846625,-1.209175
150428193812943,6.986019,-0.5493125,-0.5303375,-1.0649375
150428203813956,6.996020,-0.725175,-0.87119997,-0.883025
150428213814881,7.006021,-0.7643625,-1.005675,-0.6862625
150428223816038,7.016022,-0.6776,-0.8699625,-0.5225
150428233816948,7.026023,-0.5102625,-0.58905,-0.3894
150428243817963,7.036024,-0.3355,-0.2311375,-0.3196875
150428253819102,7.046025,-0.056925,0.04015,-0.4041125
150428263820009,7.056026,0.2424125,-0.050325,-0.5445
150428273820934,7.066027,0.3535125,-0.2176625,-0.5555
150428283822177,7.076028,0.1678875,-0.1406625,-0.53473747
150428293822871,7.086029,-0.0666875,-0.1236125,-0.496925
150428303824029,7.096030,-0.2292125,-0.1639,-0.375925
150428313825016,7.106031,-0.3575,-0.2299,-0.1621125
150428323825949,7.116032,-0.35145,-0.44,0.0895125
150428333826872,7.126033,-0.232925,-0.867625,0.3240875
150428343828024,7.136034,-0.1436875,-1.2645875,0.5781875
150428353829031,7.146035,-0.19373749,-1.397825,0.755425
150428363829954,7.156036,-0.2121625,-1.3025374,0.7847125
150428373831088,7.166037,-0.1852125,-1.0582,0.789525
150428383831995,7.176038,-0.1986875,-0.8053375,0.76147497
150428393832997,7.186039,-0.2365,-0.630575,0.6771875
150428403834158,7.196040,-0.2536875,-0.5157625,0.60995
150428413835081,7.206041,-0.3782625,-0.5462875,0.52085
150428423836004,7.216042,-0.5346,-0.73315,0.45113748
150428433837026,7.226043,-0.575025,-0.8993875,0.42185
150428443837964,7.236044,-0.5212625,-1.033725,0.4096125
150428453839103,7.246045,-0.4857875,-0.956725,0.446325
150428463840025,7.256046,-0.56155,-0.65505,0.529375
150428473841021,7.266047,-0.6776,-0.385,0.67347497
150428483841944,7.276048,-0.6213625,-0.45581248,0.8042375
150428493843084,7.286049,-0.5115,-0.4338125,0.976525
150428503844005,7.296050,-0.36355,-0.5303375,1.0888625
150428513844993,7.306051,-0.1436875,-0.55,1.0583375
150428523845916,7.316052,-0.1486375,-0.3557125,0.9862875
150428533847070,7.326053,-0.2682625,-0.1931875,0.9838125
150428543847996,7.336054,-0.403975,-0.1797125,1.0131
150428553849025,7.346055,-0.4442625,-0.2897125,0.9887625
150428563849944,7.356056,-0.3086875,-0.503525,0.8262375
150428573851098,7.366057,-0.160875,-0.47547498,0.7847125
150428583852019,7.376058,-0.1131625,-0.3166625,0.87023747
150428593852944,7.386059,-0.1216875,-0.21395,1.0107625
150428603853925,7.396060,-0.1254,-0.49005,1.0901
150428613855079,7.406061,-0.122925,-0.542575,1.1108625
150428623856000,7.416062,-0.2047375,-0.2629,1.020525
150428633856925,7.426063,-0.2024,-0.14795,0.7541875
150428643857925,7.436064,-0.0851125,-0.308,0.45113748
150428653859079,7.446065,-0.0251625,-0.5292375,0.3168
150428663860014,7.456066,-0.0325875,-0.6037625,0.275275
150428673860939,7.466067,0.0286,-0.757625,0.10175
150428683861967,7.476068,0.136125,-0.724625,-0.0290125
150428693862890,7.486069,0.2239875,-0.5902875,-0.0363
150428703864042,7.496070,0.241175,-0.484,0.0419375
150428713864967,7.506071,0.280225,-0.409475,0.1029875
150428723865967,7.516072,0.192225,-0.1956625,0.1995125
150428733867107,7.526073,0.1287,-0.1016125,0.2325125
150428743868033,7.536074,0.0688875,-0.108899996,0.18727499
150428753869054,7.546075,-8.25E-4,-0.12485,0.126225
150428763869962,7.556076,-0.006875,-0.20047499,0.0235125
150428773870900,7.566077,0.0066,-0.2591875,-0.0460625
150428783872047,7.576078,-0.014162499,-0.227425,-0.0215875
150428793872967,7.586079,-0.0961125,-0.0991375,0.0809875
150428803873965,7.596080,-0.216975,0.0034375,0.2068
150428813874891,7.606081,-0.3427875,-0.0356125,0.28985
150428823876042,7.616082,-0.421025,-0.1749,0.29479998
150428833876953,7.626083,-0.438075,-0.41305,0.2190375
150428843877951,7.636084,-0.4162125,-0.613525,0.1029875
150428853878848,7.646085,-0.3917375,-0.64033747,-0.0350625
150428863880004,7.656086,-0.3452625,-0.4252875,-0.159775
150428873880944,7.666087,-0.31845,-0.14795,-0.2561625
150428883881937,7.676088,-0.3012625,0.092675,-0.3454
150428893882862,7.686089,-0.26345,0.27719998,-0.40645
150428903884011,7.696090,-0.19745,0.3773,-0.48221248
150428913884916,7.706091,-0.122925,0.49101248,-0.568975
150428923885837,7.716092,-0.0521125,0.5105375,-0.5812125
150428933886839,7.726093,-0.0191125,0.4225375,-0.39545
150428943887762,7.736094,-0.05335,0.285725,-0.1230625
150428953888690,7.746095,-0.061875,0.0804375,0.0858
150428963889832,7.756096,-0.050875,-0.0185625,0.2360875
150428973890834,7.766097,-0.04235,-0.045375,0.33385
150428983891757,7.776098,-0.078925,0.031625,0.413325
150428993892680,7.786099,-0.0996875,-0.023375,0.4181375
150429003893846,7.796100,-0.1596375,-0.13585,0.4169
150429013894834,7.806101,-0.21945,-0.27995,0.4169
150429023895771,7.816102,-0.21573749,-0.4448125,0.36313748
150429033896689,7.826103,-0.1656875,-0.536525,0.2618
150429043897832,7.836104,-0.1291125,-0.448525,0.2030875
150429053898757,7.846105,-0.1181125,-0.3056625,0.21285
150429063899760,7.856106,-0.138875,-0.1871375,0.26785
150429073900684,7.866107,-0.1546875,-0.13213749,0.3301375
150429083901850,7.876108,-0.1706375,-0.1651375,0.386375
150429093902766,7.886109,-0.1926375,-0.2261875,0.4096125
150429103903764,7.896110,-0.1791625,-0.3117125,0.3521375
150429113904689,7.906111,-0.1351625,-0.4107125,0.2630375
150429123905848,7.916112,-0.083875,-0.6037625,0.2250875
150429133906799,7.926113,-0.150975,-0.4582875,0.18975
150429143907802,7.936114,-0.2047375,-0.332475,0.1810875
150429153908727,7.946115,-0.2671625,-0.3117125,0.1700875
150429163909874,7.956116,-0.2792625,-0.2591875,0.121275
150429173910554,7.966117,-0.2365,-0.144375,0.1029875
150429183911721,7.976118,-0.1816375,-0.1431375,0.121275
150429193912727,7.986119,-0.1522125,-0.0906125,0.2105125
150429203913650,7.996120,-0.1706375,-0.01485,0.4291375
150429213914804,8.006121,-0.23045,-0.0796125,0.651475
150429223915735,8.016122,-0.282975,-0.3251875,0.750475
150429233916732,8.026123,-0.32945,-0.6488625,0.6771875
150429243917655,8.036124,-0.35021248,-0.724625,0.45485
150429253918785,8.046125,-0.3306875,-0.4912875,0.1848
150429263919721,8.056126,-0.289025,-0.1687125,-0.06325
150429273920722,8.066127,-0.23539999,0.0572,-0.20487499
150429283921660,8.076128,-0.221925,0.16225,-0.2855875
150429293922809,8.086129,-0.216975,0.16225,-0.3086875
150429303923711,8.096130,-0.155925,0.0779625,-0.3356375
150429313924631,8.106131,-0.0521125,0.009625,-0.3185875
150429323925629,8.116132,0.0334125,-0.023375,-0.2146375
150429333926554,8.126133,0.0396,-0.073425,-0.0840125
150429343927711,8.136134,-0.001925,-0.1076625,0.0077
150429353928650,8.146135,-0.0325875,-0.189475,0.027224999
150429363929571,8.156136,-0.034925,-0.3312375,-0.0545875
150429373930583,8.166137,-0.006875,-0.409475,-0.1755875
150429383931737,8.176138,0.0298375,-0.2726625,-0.26235
150429393932645,8.186139,0.0444125,-0.050325,-0.32587498
150429403933581,8.196140,0.043175,0.1379125,-0.3026375
150429413934597,8.206141,0.0554125,0.2014375,-0.176825
150429423935539,8.216142,0.073699996,0.16225,-0.00825
150429433936693,8.226143,0.0847,0.0523875,0.149325
150429443937691,8.236144,0.1153625,-0.1969,0.2605625
150429453938616,8.246145,0.0969375,-0.3067625,0.3388
150429463939525,8.256146,-0.0191125,-0.1821875,0.3411375
150429473940679,8.266147,-0.0972125,-0.3922875,0.18727499
150429483941681,8.276148,-0.122925,-0.5731,-0.0705375
150429493942606,8.286149,-0.0484,-0.3532375,-0.298925
150429503943536,8.296150,0.098175,-0.14795,-0.5115
150429513944675,8.306151,0.203225,-0.0221375,-0.64845
150429523945582,8.316152,0.2044625,0.246675,-0.6177875
150429533946522,8.326153,0.186175,0.17215,-0.4907375
150429543947735,8.336154,0.0884125,0.0034375,-0.3636875
150429553948659,8.346155,0.010175,-0.0831875,-0.2123
150429563949582,8.356156,-0.0191125,-0.2726625,-0.099825
150429573950584,8.366157,-0.0264,-0.304425,-0.0790625
150429583951498,8.376157,-0.0226875,-0.2066625,-0.132825
150429593952637,8.386159,-0.0166375,-0.1016125,-0.2110625
150429603953544,8.396160,-0.00935,-0.0576125,-0.2220625
150429613954551,8.406161,-0.0105875,-0.1357125,-0.1780625
150429623955474,8.416161,-0.011825,-0.216425,-0.1511125
150429633956396,8.426162,-0.0105875,-0.183425,-0.1450625
150429643957548,8.436164,-0.0166375,-0.047849998,-0.132825
150429653958560,8.446165,-0.0545875,0.1524875,-0.0155375
150429663959483,8.456165,-0.1071125,0.2039125,0.18975
150429673960637,8.466167,-0.1216875,0.0034375,0.3619
150429683961552,8.476168,-0.1192125,-0.32999998,0.4389
150429693962569,8.486169,-0.08745,-0.597575,0.342375
150429703963491,8.496169,-0.0361625,-0.5731,0.2140875
150429713964645,8.506171,0.0138875,-0.3777125,0.1310375
150429723965566,8.516172,0.0518375,-0.0490875,0.126225
150429733966506,8.526173,0.065175,0.2539625,0.21779999
150429743967735,8.536174,0.037125,0.3284875,0.3790875
150429753968660,8.546175,-0.006875,0.142725,0.5476625
150429763969581,8.556176,-0.050875,-0.1467125,0.682
150429773970588,8.566177,-0.083875,-0.3972375,0.733425
150429783971506,8.576178,-0.1071125,-0.47547498,0.6686625
150429793972660,8.586179,-0.09845,-0.352,0.50985
150429803973581,8.596180,-0.0691625,-0.18095,0.320375
150429813974583,8.606181,-0.0386375,-0.0196625,0.1615625
150429823975735,8.616182,-0.0264,0.048675,0.0675125
150429833976648,8.626183,-0.0446875,0.037675,0.027224999
150429843977650,8.636184,-0.0606375,-0.028324999,0.010175
150429853978559,8.646185,-0.061875,-0.0820875,-0.00825
150429863979706,8.656186,-0.050875,-0.1051875,-0.0583
150429873980631,8.666187,-0.034925,0.020624999,-0.0803
150429883981616,8.676188,-0.0325875,0.1183875,-0.0790625
150429893982756,8.686189,-0.0411125,0.15015,-0.0473
150429903983662,8.696190,-0.050875,0.1329625,0.0235125
150429913984587,8.706191,-0.0606375,-0.0075625,2.75E-4
150429923985585,8.716192,-0.0741125,-0.02585,-0.06435
150429933986526,8.726193,-0.093637496,0.1122,-0.0950125
150429943987672,8.736194,-0.116875,0.21367499,-0.0815375
150429953988674,8.746195,-0.1376375,0.2514875,0.0077
150429963989597,8.756196,-0.1522125,0.147675,0.0639375
150429973990506,8.766197,-0.1522125,-0.047849998,0.0529375
150429983991662,8.776198,-0.1486375,-0.18095,-0.0094875
150429993992664,8.786199,-0.105875,-0.1626625,-0.1401125
150430003993603,8.796200,-0.056925,0.0303875,-0.2281125
150430013994756,8.806201,-0.0336875,0.2332,-0.253825
150430023995693,8.816202,-0.0386375,0.31625,-0.1670625
150430033996699,8.826203,-0.06545,0.1659625,-0.0180125
150430043997850,8.836204,-0.09845,-0.117425,0.088275
150430053998776,8.846205,-0.1181125,-0.326425,0.1249875
150430063999788,8.856206,-0.1181125,-0.2946625,0.1249875
150430074000713,8.866207,-0.1082125,-0.089375,0.1285625
150430084001636,8.876208,-0.0851125,0.0853875,0.1518
150430094002790,8.886209,-0.0666875,0.114675,0.170225
150430104003790,8.896210,-0.050875,-0.013612499,0.1810875
150430114004713,8.906211,-0.0484,-0.188375,0.1615625
150430124005870,8.916212,-0.05335,-0.282425,0.1310375
150430134006795,8.926213,-0.100925,-0.21395,0.077275
150430144007809,8.936214,-0.15345,-0.16995,-0.0435875
150430154008959,8.946215,-0.1571625,-0.177375,-0.198825
150430164009879,8.956216,-0.1436875,-0.1676125,-0.303875
150430174010853,8.966217,-0.100925,-0.1711875,-0.358875
150430184011762,8.976218,-0.06435,-0.1639,-0.32835
150430194012901,8.986219,-0.0594,-0.086899996,-0.2525875
150430204013894,8.996220,-0.0851125,0.0364375,-0.104775
150430214014814,9.006221,-0.1351625,-0.013612499,0.0297
150430224015966,9.016222,-0.1596375,-0.095425,0.1408
150430234016968,9.026223,-0.14245,-0.189475,0.220275
150430244017905,9.036224,-0.1216875,-0.2286625,0.281325
150430254019059,9.046225,-0.1144,-0.2591875,0.3070375
150430264019980,9.056226,-0.122925,-0.2151875,0.3070375
150430274020905,9.066227,-0.1364,-0.17613749,0.270325
150430284021896,9.076228,-0.1302125,-0.166375,0.193325
150430294022804,9.086229,-0.12045,-0.1271875,0.1274625
150430304023956,9.096230,-0.1021625,-0.1346125,0.0847
150430314024958,9.106231,-0.0886875,-0.0966625,0.098037496
150430324025881,9.116232,-0.1082125,0.020624999,0.1420375
150430334027035,9.126233,-0.127875,0.098725,0.2080375
150430344027970,9.136234,-0.1254,0.131725,0.29479998
150430354028992,9.146235,-0.0961125,0.1304875,0.41085
150430364030159,9.156236,-0.0446875,0.0169125,0.5379
150430374031088,9.166237,0.034649998,-0.2457125,0.49995
150430384032097,9.176238,0.073699996,-0.332475,0.369325
150430394033020,9.186239,0.098175,-0.172425,0.132275
150430404033939,9.196240,0.1274625,0.19167499,-0.0595375
150430414035156,9.206241,0.1494625,0.373725,-0.1315875
150430424036092,9.216242,0.15565,0.31501248,-0.0985875
150430434037261,9.226243,0.1678875,0.13915,-0.013062499
150430444038259,9.236244,0.2094125,-0.0710875,0.098037496
150430454039179,9.246245,0.2937,-0.238425,0.22385
150430464040345,9.256246,0.3487,-0.24447499,0.3216125
150430474041270,9.266247,0.3229875,-0.0636625,0.3570875
150430484042191,9.276248,0.2424125,0.1452,0.3388
150430494043422,9.286249,0.1544125,0.247775,0.281325
150430504044350,9.296250,0.092125,0.1744875,0.1469875
150430514045275,9.306251,0.07865,0.0523875,-0.0485375
150430524046273,9.316252,0.1043625,-0.0086624995,-0.2220625
150430534047193,9.326253,0.126225,0.05115,-0.28187498
150430544048345,9.336254,0.1287,0.1379125,-0.2464
150430554049270,9.346255,0.137225,0.2184875,-0.1683
150430564050266,9.356256,0.136125,0.2160125,-0.0375375
150430574051424,9.366257,0.114125,0.0792,0.0174625
150430584052345,9.376258,0.1043625,-0.039325,0.0149875
150430594053333,9.386259,0.0749375,-0.0746625,-0.06435
150430604054472,9.396260,0.037125,0.04015,-0.10835
150430614055395,9.406261,-0.022824999,0.1672,-0.082775
150430624056395,9.416262,-0.0741125,0.252725,0.016224999
150430634057318,9.426263,-0.1082125,0.20019999,0.077275
150430644058466,9.436264,-0.1302125,0.037675,0.088275
150430654059391,9.446265,-0.1694,-0.1467125,0.0199375
150430664060405,9.456266,-0.1791625,-0.253,-0.113299996
150430674061328,9.466267,-0.1706375,-0.18095,-0.264825
150430684062475,9.476268,-0.1571625,-0.028324999,-0.3381125
150430694063400,9.486269,-0.1461625,0.108625,-0.2965875
150430704064400,9.496270,-0.1302125,0.0364375,-0.2281125
150430714065554,9.506272,-0.0961125,-0.1467125,-0.22687499
150430724066552,9.516273,-0.0325875,-0.2739,-0.3026375
150430734067713,9.526274,0.0089375,-0.1529,-0.3075875
150430744068629,9.536275,4.125E-4,0.1403875,-0.19635
150430754069631,9.546276,-0.0374,0.395725,0.044275
150430764070554,9.556277,-0.100925,0.4225375,0.320375
150430774071713,9.566278,-0.1461625,0.186725,0.5451875
150430784072638,9.576279,-0.183975,-0.2506625,0.623425
150430794073624,9.586280,-0.177925,-0.5927625,0.535425
150430804074550,9.596281,-0.1216875,-0.569525,0.2996125
150430814075708,9.606282,-0.06545,-0.2739,0.073699996
150430824076639,9.616283,-0.0521125,0.1342,0.0039875
150430834077651,9.626284,-0.078925,0.44701248,0.11385
150430844078559,9.636285,-0.1106875,0.390775,0.2506625
150430854079713,9.646286,-0.14973749,0.1354375,0.3471875
150430864080707,9.656287,-0.223025,-0.2481875,0.3092375
150430874081632,9.666288,-0.24255,-0.6073375,0.06985
150430884082784,9.676289,-0.1692625,-0.6598625,-0.285725
150430894083709,9.686290,-0.078925,-0.3287625,-0.545875
150430904084702,9.696291,-0.012925,0.1599125,-0.5973
150430914085862,9.706292,0.0066,0.4800125,-0.4945875
150430924086783,9.716293,-0.01045,0.440825,-0.263725
150430934087785,9.726294,-0.0264,0.1879625,0.045375
150430944088937,9.736295,-0.0482625,-0.1431375,0.2762375
150430954089854,9.746296,-0.07645,-0.288475,0.3887125
150430964090770,9.756297,-0.113025,-0.21395,0.393525
150430974091785,9.766298,-0.1227875,-0.089375,0.3287625
150430984092947,9.776299,-0.0862125,-0.067375,0.188375
150430994093867,9.786300,-0.014162499,-0.0771375,0.00385
150431004094858,9.796301,0.047025,0.0022,-0.180675
150431014096011,9.806302,0.0543125,0.1744875,-0.2844875
150431024096932,9.816303,-0.0031625,0.3810125,-0.2490125
150431034097877,9.826304,-0.078925,0.3870625,-0.1769625
150431044098877,9.836305,-0.1337875,0.20625,-0.1414875
150431054100030,9.846306,-0.16555,-0.0416625,-0.1672
150431064100951,9.856307,-0.1692625,-0.1969,-0.2184875
150431074101939,9.866308,-0.1595,-0.117425,-0.19525
150431084103091,9.876309,-0.1582625,0.1989625,-0.059675
150431094104093,9.886310,-0.1863125,0.434775,0.161425
150431104105021,9.896311,-0.21807499,0.4580125,0.376475
150431114106180,9.906312,-0.245025,0.3260125,0.4657125
150431124107101,9.916313,-0.2487375,0.0193875,0.40094998
150431134108026,9.926314,-0.2217875,-0.232375,0.2457125
150431144109026,9.936315,-0.1595,-0.31295,0.0295625
150431154110165,9.946316,-0.102025,-0.2189,-0.1342
150431164111086,9.956317,-0.062975,-0.0111375,-0.1929125
150431174112088,9.966318,-0.043449998,0.175725,-0.1989625
150431184113011,9.976319,-0.0251625,0.19525,-0.2014375
150431194114180,9.986320,0.0103124995,0.0963875,-0.20019999
150431204115163,9.996321,0.0408375,-0.0111375,-0.1549625
150431214116103,10.006322,0.02255,-0.012375,-0.0633875
150431224117254,10.016323,-0.06545,0.1379125,0.13585
150431234118254,10.026324,-0.1667875,0.2099625,0.3777125
150431244119179,10.036325,-0.227975,0.12925,0.5267625
150431254120088,10.046326,-0.25355,-0.078375,0.5352875
150431264121240,10.056327,-0.2267375,-0.30195,0.3777125
150431274122254,10.066328,-0.146025,-0.3069,0.13585
150431284123160,10.076329,-0.0752125,-0.106425,-0.0413875
150431294124083,10.086330,-0.056925,0.1183875,-0.0559625
150431304125235,10.096331,-0.082499996,0.3064875,0.095425
150431314126237,10.106332,-0.15345,0.31501248,0.260425
150431324127160,10.116333,-0.22055,0.2099625,0.349525
150431334128328,10.126334,-0.2767875,-0.0551375,0.341
150431344129326,10.136335,-0.2926,-0.3287625,0.26895
150431354130242,10.146336,-0.25355,-0.4217125,0.1150875
150431364131380,10.156337,-0.2242625,-0.321475,-0.0462
150431374132305,10.166338,-0.2145,-0.11385,-0.12815
150431384133291,10.176339,-0.172975,0.031625,-0.15015
150431394134416,10.186340,-0.1167375,0.026675,-0.09515
150431404135337,10.196341,-0.082499996,-0.001375,-0.0022
150431414136339,10.206342,-0.0947375,0.0352,0.1296625
150431424137510,10.216344,-0.150975,0.114675,0.3617625
150431434138447,10.226344,-0.223025,0.12815,0.6061
150431444139342,10.236345,-0.262075,0.07315,0.7233875
150431454140343,10.246346,-0.2805,-0.12485,0.7161
150431464141497,10.256347,-0.2487375,-0.43505,0.553575
150431474142420,10.266348,-0.1155,-0.580525,0.2127125
150431484143416,10.276349,0.0408375,-0.4607625,-0.1929125
150431494144353,10.286350,0.14465,-0.1186625,-0.4580125
150431504145505,10.296352,0.1898875,0.30525,-0.523875
150431514146433,10.306352,0.18865,0.56787497,-0.4285875
150431524147435,10.316353,0.1533125,0.5825875,-0.208725
150431534148603,10.326355,0.0983125,0.3260125,0.01485
150431544149519,10.336356,0.02255,-0.0331375,0.2189
150431554150534,10.346357,-0.080025,-0.382525,0.360525
150431564151701,10.356358,-0.146025,-0.49981248,0.3947625
150431574152632,10.366359,-0.1595,-0.4142875,0.32999998
150431584153630,10.376360,-0.1265,-0.2946625,0.1871375
150431594154550,10.386361,-0.0471625,-0.1456125,0.006325
150431604155702,10.396362,0.025024999,0.0218625,-0.1452
150431614156651,10.406363,0.06655,0.1354375,-0.2404875
150431624157665,10.416364,0.0653125,0.1684375,-0.274725
150431634158819,10.426365,0.0396,0.1329625,-0.25025
150431644159745,10.436366,0.014025,-0.0075625,-0.26125
150431654160676,10.446367,0.02255,-0.1931875,-0.3504875
150431664161662,10.456368,0.086075,-0.260425,-0.500775
150431674162800,10.466369,0.1496,-0.1271875,-0.5911125
150431684163793,10.476370,0.1863125,0.13915,-0.5630625
150431694164719,10.486371,0.18259999,0.3210625,-0.396825
150431704165865,10.496372,0.1373625,0.318725,-0.1122
150431714166872,10.506373,0.086075,0.1183875,0.1639
150431724167782,10.516374,0.0396,-0.12485,0.2836625
150431734168949,10.526375,-0.0092124995,-0.2701875,0.2641375
150431744169851,10.536376,-0.054449998,-0.25795,0.1419
150431754170867,10.546377,-0.0922625,-0.0979,0.0221375
150431764171790,10.556378,-0.1362625,0.0108624995,-0.059675
150431774172944,10.566379,-0.150975,0.0462,-0.1084875
150431784173841,10.576380,-0.1412125,-0.0490875,-0.17325
150431794174843,10.586381,-0.082499996,-0.161425,-0.22825
150431804175766,10.596382,0.01155,-0.1931875,-0.2992
150431814176930,10.606383,0.1007875,-0.1271875,-0.3540625
150431824177908,10.616384,0.1373625,-0.058849998,-0.3430625
150431834178843,10.626385,0.13365,0.00715,-0.2783
150431844179997,10.636386,0.1276,0.0132,-0.20019999
150431854180997,10.646387,0.130075,-0.073425,-0.1219625
150431864181934,10.656388,0.1654125,-0.13585,-0.081675
150431874182857,10.666389,0.2033625,-0.106425,-0.015675
150431884184014,10.676390,0.2204125,-0.067375,0.1199
150431894185031,10.686391,0.219175,-0.0319,0.2519
150431904185925,10.696392,0.2253625,-0.0380875,0.3166625
150431914187086,10.706393,0.2314125,-0.150425,0.2946625
150431924188077,10.716394,0.246125,-0.1821875,0.2091375
150431934189006,10.726395,0.246125,-0.14685,0.0551375
150431944190160,10.736396,0.2278375,-0.086899996,-0.0779625
150431954191082,10.746397,0.18865,0.009625,-0.08415
150431964192112,10.756398,0.17407499,0.0779625,0.006325
150431974193264,10.766399,0.17407499,0.065725,0.073425
150431984194178,10.776400,0.1643125,-0.047849998,0.108899996
150431994195192,10.786401,0.15565,-0.1797125,0.095425
150432004196112,10.796402,0.147125,-0.2567125,0.0416625
150432014197035,10.806403,0.130075,-0.25547498,-0.0011
150432024198189,10.816404,0.1128875,-0.2006125,-0.0584375
150432034199175,10.826405,0.1043625,-0.0539,-0.1379125
150432044200322,10.836406,0.0787875,0.0963875,-0.2160125
150432054201231,10.846407,0.0543125,0.1610125,-0.15015
150432064202231,10.856408,0.0372625,0.1414875,0.013612499
150432074203156,10.866409,0.036025,0.09515,0.14685
150432084204310,10.876410,0.036025,0.0108624995,0.20047499
150432094205238,10.886411,0.031075,-0.078375,0.2079
150432104206233,10.896412,0.0347875,-0.1309,0.1626625
150432114207152,10.906413,0.05555,-0.199375,0.14685
150432124208299,10.916414,0.075075,-0.1859,0.073425
150432134209286,10.926415,0.0763125,-0.06985,-0.0034375
150432144210209,10.936416,0.0603625,0.01815,-0.0218625
150432154211363,10.946417,0.0383625,0.037675,0.0405625
150432164212366,10.956418,0.020075,-0.0551375,0.1346125
150432174213286,10.966419,0.0262625,-0.1931875,0.205425
150432184214440,10.976420,0.0628375,-0.2811875,0.1846625
150432194215438,10.986421,0.095837496,-0.2677125,0.1101375
150432204216363,10.996422,0.108075,-0.22247499,0.0295625
150432214217517,11.006424,0.125125,-0.15785,-0.00715
150432224218443,11.016424,0.1398375,-0.095425,-0.0438625
150432234219454,11.026425,0.136125,-0.0246125,-0.0572
150432244220392,11.036426,0.1348875,-0.0306625,-0.0438625
150432254221559,11.046428,0.14355,-0.0551375,0.0050875
150432264222475,11.056428,0.141075,-0.1126125,0.1051875
150432274223477,11.066429,0.1117875,-0.1749,0.2519
150432284224634,11.076431,0.069025,-0.2176625,0.3471875
150432294225624,11.086432,0.03355,-0.210375,0.370425
150432304226554,11.096433,0.0127875,-0.22013749,0.3447125
150432314227477,11.106433,0.0262625,-0.2409,0.297
150432324228629,11.116435,0.0262625,-0.13213749,0.2519
150432334229631,11.126436,0.0628375,-0.0429,0.172425
150432344230544,11.136437,0.0726,0.0438625,0.1736625
150432354231703,11.146438,0.0726,0.0572,0.1601875
150432364232624,11.156439,0.0787875,0.0229625,0.1516625
150432374233631,11.166440,0.0726,-0.013612499,0.1260875
150432384234554,11.176441,0.059125,-0.0441375,0.083325
150432394235783,11.186442,0.059125,-0.0636625,0.0466125
150432404236708,11.196443,0.0738375,-0.078375,0.023375
150432414237862,11.206444,0.0933625,-0.0380875,0.0026125
150432424238783,11.216445,0.1153625,0.0523875,-0.0352
150432434239788,11.226446,0.1276,0.1574375,-0.0669625
150432444240713,11.236447,0.117837496,0.252725,-0.0352
150432454241862,11.246448,0.1093125,0.29425,0.0416625
150432464242860,11.256449,0.125125,0.3100625,0.1346125
150432474243794,11.266450,0.147125,0.2685375,0.2116125
150432484244932,11.276451,0.15565,0.153725,0.2872375
150432494245855,11.286452,0.1458875,0.0719125,0.3312375
150432504246855,11.296453,0.1288375,0.0719125,0.3337125
150432514248002,11.306454,0.125125,0.0572,0.243375
150432524248932,11.316455,0.11055,0.11715,0.15413749
150432534249934,11.326456,0.114125,0.1232,0.01485
150432544251082,11.336457,0.114125,0.1634875,-0.0999625
150432554252005,11.346458,0.0897875,0.2270125,-0.1989625
150432564253005,11.356459,0.064075,0.2905375,-0.2820125
150432574253930,11.366460,0.0286,0.3419625,-0.3480125
150432584255072,11.376461,-0.0092124995,0.3760625,-0.385825
150432594255995,11.386462,-0.0092124995,0.4090625,-0.3870625
150432604256997,11.396463,-0.0202125,0.4555375,-0.307725
150432614258151,11.406464,-0.0422125,0.429825,-0.16225
150432624259135,11.416465,-0.0642125,0.374825,0.00385
150432634260074,11.426466,-0.08745,0.29425,0.1676125
150432644261226,11.436467,-0.1265,0.2294875,0.31295
150432654262135,11.446468,-0.1362625,0.1342,0.3617625
150432664263154,11.456469,-0.14245,0.0279125,0.3422375
150432674264298,11.466470,-0.15345,-0.0906125,0.233475
150432684265235,11.476471,-0.139975,-0.14795,0.089375
150432694266218,11.486472,-0.117975,-0.1150875,-0.0462
150432704267365,11.496473,-0.0972125,-0.0160875,-0.15125
150432714268288,11.506474,-0.073975,0.054725,-0.258775
150432724269286,11.516475,-0.073975,0.1782,-0.346775
150432734270209,11.526476,-0.0727375,0.2222,-0.4175875
150432744271365,11.536477,-0.058025,0.2014375,-0.4140125
150432754272360,11.546478,-0.045925,0.142725,-0.374825
150432764273514,11.556480,-0.0165,0.098725,-0.3284875
150432774274437,11.566480,-0.01045,0.0694375,-0.3003
150432784275442,11.576481,-0.0262625,0.14025,-0.252725
150432794276367,11.586482,-0.0165,0.18425,-0.203775
150432804277533,11.596484,-0.023924999,0.12815,-0.1672
150432814278519,11.606485,-0.02145,-0.056375,-0.1672
150432824279444,11.616485,0.042075,-0.221375,-0.186725
150432834280591,11.626487,0.0908875,-0.2591875,-0.219725
150432844281524,11.636488,0.12265,-0.0198,-0.2294875
150432854282526,11.646489,0.1276,0.2380125,-0.1892
150432864283683,11.656490,0.09955,0.318725,0.0160875
150432874284611,11.666491,0.042075,0.2184875,0.321475
150432884285613,11.676492,-0.0251625,0.15125,0.608575
150432894286541,11.686493,-0.09845,0.1329625,0.729575
150432904287769,11.696494,-0.19373749,0.0719125,0.663575
150432914288692,11.706495,-0.2718375,0.0364375,0.4852375
150432924289841,11.716496,-0.3012625,-0.086899996,0.326425
150432934290765,11.726497,-0.378125,-0.1051875,0.2041875
150432944291767,11.736498,-0.3317875,-0.128425,0.02585
150432954292923,11.746499,-0.2585,-0.0441375,-0.1084875
150432964293841,11.756500,-0.1753125,-1.375E-4,-0.203775
150432974294844,11.766501,-0.1007875,-0.083325,-0.230725
150432984296010,11.776502,-0.0837375,-0.086899996,-0.15015
150432994296947,11.786503,-0.1582625,0.026675,-0.1049125
150433004297947,11.796504,-0.0996875,-0.094325,-0.2319625
150433014299101,11.806505,-0.0812625,-0.1711875,-0.3870625
150433024300024,11.816506,-0.023924999,-0.2017125,-0.534875
150433034301019,11.826507,0.0787875,-0.155375,-0.6301625
150433044302173,11.836508,0.0823625,-0.045375,-0.6546375
150433054303096,11.846509,-0.01045,0.1744875,-0.545875
150433064304098,11.856510,0.0347875,0.2074875,-0.4200625
150433074305036,11.866511,0.0055,0.2759625,-0.186725
150433084306189,11.876512,-0.043449998,0.2624875,0.0380875
150433094307202,11.886513,-0.091025,0.2099625,0.2237125
150433104308128,11.896514,-0.0361625,0.042625,0.3532375
150433114309295,11.906515,-0.082499996,0.054725,0.4668125
150433124310289,11.916516,-0.29755,-0.0209,0.5438125
150433134311213,11.926517,-0.2193125,-0.26895,0.4021875
150433144312366,11.936518,-0.19373749,-0.3557125,0.211475
150433154313364,11.946519,-0.146025,-0.3922875,0.039325
150433164314523,11.956521,-0.0642125,-0.348425,-0.0853875
150433174315432,11.966521,0.003025,-0.25795,-0.12815
150433184316438,11.976522,0.0543125,-0.111375,-0.0633875
150433194317362,11.986523,0.147125,-0.056375,0.100375
150433204318520,11.996525,0.05555,0.065725,0.321475
150433214319443,12.006525,-0.040975,-0.0429,0.49005
150433224320443,12.016526,-0.0581625,-0.22247499,0.498575
150433234321597,12.026528,-0.102025,-0.3069,0.4082375
150433244322597,12.036529,-0.1117875,-0.3312375,0.205425
150433254323735,12.046530,-0.0947375,-0.2849,-0.0328625
150433264324735,12.056531,-0.0715,-0.2849,-0.2294875
150433274325645,12.066532,-0.0642125,-0.2897125,-0.3333
150433284326797,12.076533,-0.0935,-0.1199,-0.351725
150433294327783,12.086534,0.02255,0.0352,-0.2844875
150433304328694,12.096535,-0.1216875,0.186725,-0.109725
150433314329831,12.106536,-0.20955,0.1892,0.144375
150433324330831,12.116537,-0.251075,0.0438625,0.2959
150433334331766,12.126538,-0.3243625,-0.050325,0.371525
150433344332684,12.136539,-0.3463625,-0.122375,0.3532375
150433354333838,12.146540,-0.350075,-0.155375,0.25547498
150433364334833,12.156541,-0.333025,-0.1566125,0.1199
150433374335987,12.166542,-0.3073125,-0.1529,-0.004675
150433384336985,12.176543,-0.300025,-0.1431375,-0.0633875
150433394337910,12.186544,-0.2963125,-0.133375,-0.087725
150433404338833,12.196545,-0.2902625,-0.1309,-0.102437496
150433414340059,12.206546,-0.278025,-0.1346125,-0.0669625
150433424340982,12.216547,-0.2792625,-0.1749,-0.0132
150433434342129,12.226548,-0.2817375,-0.2457125,0.034375
150433444343131,12.236549,-0.2877875,-0.271425,0.050325
150433454344273,12.246550,-0.2718375,-0.2677125,0.0319
150433464345191,12.256551,-0.2217875,-0.243375,-0.0034375
150433474346177,12.266552,-0.1742125,-0.1821875,-0.0449625
150433484347102,12.276553,-0.1485,-0.1211375,-0.08415
150433494348256,12.286554,-0.15345,-0.1199,-0.0939125
150433504349268,12.296555,-0.168025,-0.108899996,-0.0548625
150433514350422,12.306556,-0.183975,-0.1199,0.0075625
150433524351340,12.316557,-0.1802625,-0.14795,0.0796125
150433534352340,12.326558,-0.1607375,-0.188375,0.133375
150433544353265,12.336559,-0.12773749,-0.24213749,0.1406625
150433554354420,12.346560,-0.104499996,-0.2261875,0.117425
150433564355405,12.356561,-0.09845,-0.1516625,0.1101375
150433574356552,12.366563,-0.10945,-0.0930875,0.13585
150433584357557,12.376564,-0.1192125,-0.078375,0.1797125
150433594358482,12.386564,-0.1155,-0.1529,0.1797125
150433604359644,12.396566,-0.1106875,-0.2542375,0.1296625
150433614360572,12.406567,-0.10945,-0.35694999,0.0686125
150433624361569,12.416568,-0.1032625,-0.36795,0.0075625
150433634362745,12.426569,-0.0935,-0.3532375,-0.0231
150433644363745,12.436570,-0.084975,-0.3581875,-0.0303875
150433654364913,12.446571,-0.067925,-0.3471875,-0.053625
150433664365851,12.456572,-0.0471625,-0.32999998,-0.0449625
150433674366837,12.466573,-0.032449998,-0.3092375,0.0196625
150433684367752,12.476574,-0.0336875,-0.2849,0.1040875
150433694368906,12.486575,-0.0385,-0.21395,0.1601875
150433704369906,12.496576,-0.0397375,-0.161425,0.18095
150433714371073,12.506577,-0.0385,-0.1516625,0.15413749
150433724372073,12.516578,-0.0251625,-0.21395,0.095425
150433734372998,12.526579,-0.0116875,-0.2677125,0.0600875
150433744374159,12.536580,-0.0044,-0.2921875,0.0490875
150433754375082,12.546581,-0.012925,-0.2652375,0.0600875
150433764376303,12.556582,-0.0251625,-0.1931875,0.0820875
150433774377202,12.566583,-0.0251625,-0.1651375,0.0979
150433784378125,12.576584,-0.0165,-0.17613749,0.1016125
150433794379356,12.586585,0.0053625,-0.22013749,0.067375
150433804380284,12.596586,0.0347875,-0.249425,0.0636625
150433814381267,12.606587,0.058025,-0.24695,0.0820875
150433824382424,12.616588,0.0713625,-0.1529,0.1161875
150433834383342,12.626589,0.064075,-0.0405625,0.1736625
150433844384358,12.636590,0.048125,0.0218625,0.271425
150433854385515,12.646592,0.0396,-0.012375,0.34347498
150433864386520,12.656593,0.0396,-0.1016125,0.376475
150433874387445,12.666593,0.0518375,-0.2311375,0.36795
150433884388601,12.676595,0.069025,-0.2787125,0.308
150433894389524,12.686596,0.0823625,-0.221375,0.2409
150433904390531,12.696597,0.0798875,-0.111375,0.205425
150433914391685,12.706598,0.0738375,-0.017324999,0.20295
150433924392688,12.716599,0.0738375,-0.0160875,0.23595
150433934393852,12.726600,0.0836,-0.0906125,0.271425
150433944394856,12.736601,0.086075,-0.1406625,0.2959
150433954395799,12.746602,0.070125,-0.1626625,0.338525
150433964396940,12.756603,0.048125,-0.1076625,0.36795
150433974397938,12.766604,0.0347875,-0.0710875,0.3812875
150433984398863,12.776605,0.0408375,-0.073425,0.3777125
150433994400027,12.786606,0.0603625,-0.1260875,0.3031875
150434004401025,12.796607,0.0933625,-0.1871375,0.1956625
150434014401955,12.806608,0.136125,-0.2151875,0.106425
150434024403093,12.816609,0.1716,-0.14795,0.058849998
150434034404101,12.826610,0.18865,-0.0551375,0.062425
150434044405021,12.836611,0.1874125,0.0022,0.1161875
150434054406250,12.846612,0.169125,0.042625,0.2091375
150434064407160,12.856613,0.14355,-0.0026125,0.282425
150434074408312,12.866614,0.1288375,-0.0539,0.321475
150434084409231,12.876615,0.1128875,-0.111375,0.3422375
150434094410237,12.886616,0.09955,-0.1309,0.3691875
150434104411394,12.896617,0.081125,-0.11385,0.3972375
150434114412389,12.906618,0.0543125,-0.084425,0.442475
150434124413552,12.916620,0.036025,-0.067375,0.4657125
150434134414476,12.926620,0.0396,-0.047849998,0.4302375
150434144415478,12.936621,0.0506,-0.034375,0.352
150434154416631,12.946623,0.0616,-0.0490875,0.2616625
150434164417644,12.956624,0.07755,-0.0856625,0.1516625
150434174418564,12.966625,0.081125,-0.10285,0.0441375
150434184419706,12.976626,0.07755,-0.06985,-0.0108624995
150434194420707,12.986627,0.075075,-0.0405625,0.0086624995
150434204421632,12.996628,0.075075,-0.0246125,0.0636625
150434214422860,13.006629,0.075075,-0.0295625,0.14685
150434224423785,13.016630,0.0798875,-0.062425,0.24695
150434234424937,13.026631,0.08855,-0.072325,0.3056625
150434244425860,13.036632,0.0908875,-0.073425,0.3361875
150434254426862,13.046633,0.0946,-0.08085,0.3276625
150434264428016,13.056634,0.106837496,-0.095425,0.27995
150434274429011,13.066635,0.1153625,-0.086899996,0.1896125
150434284429925,13.076636,0.1128875,-0.0539,0.1016125
150434294431154,13.086637,0.12265,0.0011,0.036849998
150434304432060,13.096638,0.14465,0.098725,0.0026125
150434314433209,13.106639,0.1496,0.1744875,0.0270875
150434324434221,13.116640,0.14355,0.1744875,0.0930875
150434334435137,13.126641,0.13859999,0.14025,0.1529
150434344436305,13.136642,0.119075,0.0682,0.16995
150434354437303,13.146643,0.097075,-1.375E-4,0.1199
150434364438457,13.156644,0.081125,-0.0026125,0.028324999
150434374439380,13.166645,0.0787875,0.0279125,-0.0694375
150434384440397,13.176646,0.08855,0.08415,-0.1232
150434394441549,13.186648,0.1093125,0.102437496,-0.153725
150434404442486,13.196648,0.15565,0.0682,-0.197725
150434414443717,13.206650,0.1923625,-0.0050875,-0.252725
150434424444640,13.216651,0.2228875,-0.0405625,-0.3235375
150434434445642,13.226652,0.2253625,0.004675,-0.368775
150434444446570,13.236653,0.213125,0.0572,-0.35901248
150434454447714,13.246654,0.2033625,0.120725,-0.2844875
150434464448707,13.256655,0.1948375,0.1599125,-0.1879625
150434474449861,13.266656,0.19607499,0.1940125,-0.0669625
150434484450876,13.276657,0.2094125,0.2234375,0.0429
150434494451786,13.286658,0.2118875,0.2539625,0.1186625
150434504452940,13.296659,0.197175,0.2820125,0.161425
150434514453935,13.306660,0.1643125,0.29425,0.1907125
150434524454844,13.316661,0.1348875,0.2662,0.216425
150434534456017,13.326662,0.1238875,0.19167499,0.2237125
150434544457003,13.336663,0.1458875,0.113437496,0.188375
150434554458125,13.346664,0.180125,0.092675,0.0979
150434564459125,13.356665,0.19607499,0.1232,-0.0011
150434574460264,13.366666,0.202125,0.1989625,-0.097625
150434584461173,13.376667,0.1874125,0.2844875,-0.1329625
150434594462168,13.386668,0.15565,0.307725,-0.102437496
150434604463093,13.396669,0.1313125,0.27101249,-0.0462
150434614464312,13.406670,0.1153625,0.2099625,0.001375
150434624465237,13.416671,0.1093125,0.15619999,0.0111375
150434634466418,13.426672,0.1203125,0.1269125,-0.015675
150434644467438,13.436673,0.14465,0.1329625,-0.0902
150434654468592,13.446675,0.19607499,0.113437496,-0.23567499
150434664469534,13.456676,0.2693625,0.0669625,-0.43725
150434674470536,13.466677,0.346225,0.0474375,-0.6436375
150434684471685,13.476678,0.3927,0.124437496,-0.776875
150434694472606,13.486679,0.39765,0.24653749,-0.771925
150434704473598,13.496680,0.368225,0.3724875,-0.6314
150434714474762,13.506681,0.318175,0.4580125,-0.4054875
150434724475776,13.516682,0.2717,0.42734998,-0.1659625
150434734476699,13.526683,0.2509375,0.280775,0.034375
150434744477853,13.536684,0.2448875,0.020624999,0.1639
150434754478853,13.546685,0.2827,-0.249425,0.1211375
150434764480026,13.556686,0.32793748,-0.326425,-0.0694375
150434774481029,13.566687,0.3023625,-0.15895,-0.2429625
150434784482182,13.576688,0.2376,0.109725,-0.27101249
150434794483192,13.586689,0.1434125,0.3700125,-0.13915
150434804484101,13.596690,0.0506,0.4640625,0.0636625
150434814485012,13.606691,-0.0312125,0.3955875,0.288475
150434824486161,13.616692,-0.0922625,0.202675,0.476575
150434834487152,13.626693,-0.1142625,-0.047849998,0.558525
150434844488303,13.636694,-0.1265,-0.24695,0.5292375
150434854489308,13.646695,-0.1582625,-0.29947498,0.43395
150434864490475,13.656696,-0.194975,-0.2286625,0.32395
150434874491385,13.666697,-0.2182125,-0.12485,0.25547498
150434884492387,13.676698,-0.2022625,-0.0856625,0.1846625
150434894493545,13.686700,-0.1557875,-0.108899996,0.0759
150434904494538,13.696701,-0.0935,-0.194425,-0.0719125
150434914495687,13.706702,-0.040975,-0.2726625,-0.21725
150434924496692,13.716703,-0.040975,-0.22247499,-0.3125375
150434934497612,13.726704,-0.0715,-0.1101375,-0.3614875
150434944498764,13.736705,-0.106975,0.0022,-0.3540625
150434954499672,13.746706,-0.113025,0.0682,-0.2539625
150434964500669,13.756707,-0.0972125,0.059675,-0.098725
150434974501823,13.766708,-0.078925,0.0449625,0.073425
150434984502823,13.776709,-0.067925,0.0389125,0.2237125
150434994503980,13.786710,-0.0642125,0.0242,0.310475
150435004504987,13.796711,-0.0605,0.0242,0.332475
150435014505905,13.806712,-0.0532125,0.0254375,0.2849
150435024507059,13.816713,-0.0361625,0.0389125,0.194425
150435034508049,13.826714,-0.0154,0.0449625,0.1076625
150435044509201,13.836715,-0.0031625,0.0559625,0.034375
150435054510216,13.846716,-0.01045,0.1073875,0.00385
150435064511141,13.856717,-0.0471625,0.1964875,0.0380875
150435074512300,13.866718,-0.106975,0.2905375,0.128425
150435084513305,13.876719,-0.17173749,0.3260125,0.2457125
150435094514209,13.886720,-0.23155,0.27225,0.3532375
150435104515363,13.896721,-0.2926,0.1574375,0.45581248
150435114516578,13.906723,-0.3452625,0.031625,0.525525
150435124517529,13.916724,-0.372075,-0.106425,0.497475
150435134518515,13.926725,-0.3598375,-0.1491875,0.3581875
150435144519655,13.936726,-0.3025,-0.1199,0.1491875
150435154520655,13.946727,-0.2217875,-0.0380875,-0.0658625
150435164521809,13.956728,-0.146025,0.0462,-0.252725
150435174522717,13.966729,-0.12045,0.1634875,-0.3309625
150435184523719,13.976730,-0.1412125,0.2564375,-0.2893
150435194524647,13.986731,-0.179025,0.3064875,-0.1672
150435204525866,13.996732,-0.18755,0.280775,0.0185625
150435214527015,14.006733,-0.1557875,0.18425,0.20295
150435224527953,14.016734,-0.080025,0.02915,0.31295
150435234528955,14.026735,-0.0116875,-0.13585,0.3227125
150435244529878,14.036736,0.0433125,-0.24213749,0.2176625
150435254531121,14.046737,0.0798875,-0.227425,0.017324999
150435264532289,14.056738,0.0823625,-0.1040875,-0.197725
150435274533213,14.066739,0.0493625,0.0584375,-0.357775
150435284534213,14.076740,-0.001925,0.2112,-0.390775
150435294535394,14.086741,-0.0471625,0.2930125,-0.30525
150435304536395,14.096742,-0.054449998,0.2270125,-0.1599125
150435314537334,14.106743,-0.040975,0.0474375,-0.037675
150435324538496,14.116744,-0.0495,-0.15413749,-0.0303875
150435334539490,14.126745,-0.0617375,-0.326425,-0.1439625
150435344540658,14.136747,-0.0702625,-0.3972375,-0.3394875
150435354541658,14.146748,-0.0605,-0.3581875,-0.5275875
150435364542812,14.156749,-0.0482625,-0.1346125,-0.6375875
150435374543730,14.166750,-0.0336875,0.136675,-0.64735
150435384544732,14.176751,-0.012925,0.3309625,-0.5251125
150435394545884,14.186752,-0.0044,0.3614875,-0.2784375
150435404546872,14.196753,-0.0336875,0.2564375,0.0221375
150435414547799,14.206754,-0.0776875,0.1012,0.2616625
150435424548969,14.216755,-0.14245,0.0144375,0.40094998
150435434549952,14.226756,-0.2132625,-0.0270875,0.464475
150435444551106,14.236757,-0.2805,-0.0636625,0.464475
150435454552034,14.246758,-0.333025,-0.0526625,0.4437125
150435464553246,14.256759,-0.3537875,-0.0209,0.4192375
150435474554154,14.266760,-0.333025,0.0144375,0.376475
150435484555156,14.276761,-0.2902625,0.0889625,0.29947498
150435494556084,14.286762,-0.2633125,0.164725,0.233475
150435504557238,14.296763,-0.2585,0.2270125,0.19813749
150435514558472,14.306764,-0.2608375,0.25025,0.1956625
150435524559385,14.316765,-0.27555,0.24419999,0.2261875
150435534560381,14.326766,-0.2718375,0.224675,0.2629
150435544561537,14.336768,-0.2462625,0.20019999,0.2921875
150435554562472,14.346768,-0.19855,0.10615,0.2811875
150435564563474,14.356769,-0.135025,-0.0270875,0.2066625
150435574564642,14.366771,-0.07645,-0.0991375,0.100375
150435584565642,14.376772,-0.029975,-0.0686125,-0.0022
150435594566779,14.386773,0.0176,0.0229625,-0.092675
150435604567779,14.396774,0.0713625,0.1489125,-0.1709125
150435614568699,14.406775,0.1153625,0.247775,-0.2222
150435624569849,14.416776,0.1716,0.24419999,-0.224675
150435634570849,14.426777,0.2228875,0.1599125,-0.2099625
150435644572001,14.436778,0.2448875,0.081675,-0.1574375
150435654573001,14.446779,0.2278375,0.064625,-0.087725
150435664574141,14.456780,0.17765,0.114675,-0.0121
150435674575073,14.466781,0.1093125,0.1709125,0.051425
150435684576075,14.476782,0.036025,0.20625,0.1016125
150435694577250,14.486783,-0.0202125,0.197725,0.1456125
150435704578255,14.496784,-0.0532125,0.1329625,0.1516625
150435714579408,14.506785,-0.080025,0.125675,0.1431375
150435724580317,14.516786,-0.1155,0.1879625,0.1601875
150435734581319,14.526787,-0.1362625,0.2564375,0.1859
150435744582470,14.536788,-0.1227875,0.26125,0.23595
150435754583445,14.546789,-0.082499996,0.20019999,0.3056625
150435764584582,14.556791,-0.034925,0.1109625,0.360525
150435774585505,14.566792,-0.01045,0.0523875,0.41305
150435784586507,14.576793,-0.0067375,0.05115,0.4547125
150435794587664,14.586794,-0.0275,0.0694375,0.4802875
150435804588592,14.596795,-0.023924999,0.0829125,0.4497625
150435814589823,14.606796,0.0042625,0.0572,0.398475
150435824590823,14.616797,0.0506,0.0144375,0.3251875
150435834591762,14.626798,0.1007875,-0.0050875,0.2432375
150435844592924,14.636799,0.136125,0.0169125,0.1491875
150435854593837,14.646800,0.1618375,0.0584375,0.0796125
150435864595070,14.656801,0.1654125,0.114675,0.0416625
150435874595986,14.666802,0.13859999,0.1769625,0.0771375
150435884596988,14.676803,0.08855,0.1672,0.144375
150435894598140,14.686804,0.064075,0.0963875,0.1969
150435904599142,14.696805,0.0713625,-0.0050875,0.2066625
150435914600294,14.706806,0.0848375,-0.0515625,0.1419
150435924601227,14.716807,0.070125,0.0193875,0.051425
150435934602247,14.726808,0.0567875,0.1159125,-0.004675
150435944603387,14.736809,0.0433125,0.1989625,0.013612499
150435954604385,14.746810,0.0163625,0.2355375,0.0710875
150435964605553,14.756812,-0.0202125,0.1940125,0.139425
150435974606476,14.766812,-0.0471625,0.1012,0.1907125
150435984607487,14.776813,-0.0617375,0.043725,0.2189
150435994608646,14.786815,-0.0581625,0.02915,0.2127125
150436004609635,14.796816,-0.034925,0.02915,0.166375
150436014610795,14.806817,0.0017875,0.0108624995,0.1040875
150436024611808,14.816818,0.0262625,0.00715,0.056375
150436034612742,14.826819,0.02255,0.0229625,0.0319
150436044613887,14.836820,-0.0044,0.06215,0.040425
150436054614808,14.846821,-0.0446875,0.08415,0.0771375
150436064615805,14.856822,-0.0581625,0.0449625,0.06985
150436074616968,14.866823,-0.0422125,0.0119624995,0.0086624995
150436084617959,14.876824,-0.0055,-0.0526625,-0.0902
150436094619111,14.886825,0.0726,-0.0881375,-0.2184875
150436104620132,14.896826,0.136125,-0.047849998,-0.3113
150436114621276,14.906827,0.1458875,0.06215,-0.3320625
150436124622294,14.916828,0.0983125,0.2184875,-0.2404875
150436134623190,14.926829,0.0383625,0.2930125,-0.092675
150436144624340,14.936830,0.0042625,0.2050125,0.0526625
150436154625325,14.946831,-6.875E-4,0.0218625,0.166375
150436164626476,14.956832,0.0042625,-0.17613749,0.1907125
150436174627395,14.966833,0.015262499,-0.24695,0.1271875
150436184628397,14.976834,5.5E-4,-0.15785,0.040425
150436194629550,14.986836,-0.0336875,0.0328625,-0.0022
150436204630463,14.996836,-0.0862125,0.164725,0.001375
150436214631673,15.006838,-0.13145,0.1634875,0.0466125
150436224632601,15.016839,-0.1557875,0.0339625,0.0831875
150436234633603,15.026840,-0.15455,-0.1566125,0.0661375
150436244634822,15.036841,-0.1472625,-0.2677125,0.0086624995
150436254635747,15.046842,-0.157025,-0.243375,-0.053625
150436264636909,15.056843,-0.194975,-0.1040875,-0.0902
150436274637817,15.066844,-0.227975,0.0059125,-0.076725
150436284638819,15.076845,-0.245025,0.0229625,-0.0193875
150436294639969,15.086846,-0.2462625,-0.0539,0.0380875
150436304640981,15.096847,-0.234025,-0.1676125,0.0686125
150436314642142,15.106848,-0.2047375,-0.29947498,0.017324999
150436324643140,15.116849,-0.1632125,-0.321475,-0.0889625
150436334644079,15.126850,-0.13145,-0.260425,-0.19525
150436344645233,15.136851,-0.1216875,-0.1639,-0.27225
150436354646154,15.146852,-0.1216875,-0.0906125,-0.28325
150436364647385,15.156853,-0.1142625,-0.0906125,-0.246675
150436374648380,15.166854,-0.09845,-0.1626625,-0.208725
150436384649314,15.176855,-0.0691625,-0.2811875,-0.224675
150436394650464,15.186856,-0.0275,-0.3251875,-0.2905375
150436404651464,15.196857,-6.875E-4,-0.277475,-0.346775
150436414652401,15.206858,0.0066,-0.1529,-0.368775
150436424653639,15.216860,0.009075,-0.045375,-0.3504875
150436434654550,15.226861,0.0262625,0.01815,-0.263725
150436444655702,15.236862,0.047025,-0.028324999,-0.131725
150436454656702,15.246863,0.0738375,-0.14795,-0.05115
150436464657856,15.256864,0.108075,-0.288475,-0.0792
150436474658785,15.266865,0.152075,-0.3397625,-0.1659625
150436484659801,15.276866,0.180125,-0.26895,-0.2404875
150436494660953,15.286867,0.1728375,-0.1186625,-0.2552
150436504661934,15.296868,0.147125,0.0279125,-0.1904375
150436514663088,15.306869,0.108075,0.092675,-0.0474375
150436524664006,15.316870,0.0677875,0.009625,0.1309
150436534665008,15.326871,0.053075,-0.1651375,0.2176625
150436544666145,15.336872,0.0713625,-0.3752375,0.22013749
150436554667145,15.346873,0.11165,-0.49981248,0.144375
150436564668066,15.356874,0.1458875,-0.451,0.023375
150436574669220,15.366875,0.1398375,-0.2629,-0.0438625
150436584670217,15.376876,0.11055,-0.0526625,-0.0449625
150436594671367,15.386877,0.0836,0.04015,-0.0121
150436604672369,15.396878,0.0823625,-0.0405625,-0.0108624995
150436614673510,15.406880,0.1007875,-0.2066625,-0.0132
150436624674434,15.416880,0.1263625,-0.32999998,-0.0254375
150436634675434,15.426881,0.1533125,-0.31295,-0.0584375
150436644676567,15.436883,0.1618375,-0.161425,-0.06215
150436654677552,15.446884,0.1606,0.0034375,-0.0011
150436664678692,15.456885,0.1593625,0.0694375,0.10285
150436674679615,15.466886,0.1716,-0.0099,0.19813749
150436684680615,15.476887,0.1936,-0.1626625,0.23595
150436694681774,15.486888,0.208175,-0.2481875,0.17847499
150436704682697,15.496889,0.1984125,-0.19195,0.0941875
150436714683699,15.506890,0.1568875,-0.034375,0.047849998
150436724684853,15.516891,0.106837496,0.0963875,0.0721875
150436734685855,15.526892,0.0836,0.0864875,0.122375
150436744687009,15.536893,0.0946,-0.023375,0.12485
150436754687995,15.546894,0.119075,-0.1931875,0.0539
150436764688920,15.556895,0.141075,-0.2629,-0.0584375
150436774690074,15.566896,0.1313125,-0.15895,-0.1304875
150436784691072,15.576897,0.08855,0.043725,-0.102437496
150436794692006,15.586898,0.0457875,0.1794375,0.0160875
150436804693235,15.596899,0.036025,0.15619999,0.1821875
150436814694170,15.606900,0.058025,-0.0209,0.2811875
150436824695322,15.616901,0.086075,-0.2591875,0.2542375
150436834696259,15.626902,0.106837496,-0.4277625,0.1161875
150436844697280,15.636903,0.1276,-0.381425,-0.076725
150436854698439,15.646904,0.119075,-0.139425,-0.1819125
150436864699449,15.656905,0.0983125,0.1049125,-0.1782
150436874700601,15.666907,0.092125,0.1794375,-0.1159125
150436884701514,15.676908,0.1093125,0.0609125,-0.0523875
150436894702525,15.686909,0.14465,-0.122375,-0.0523875
150436904703684,15.696910,0.1716,-0.23595,-0.147675
150436914704620,15.706911,0.1533125,-0.19195,-0.25753748
150436924705622,15.716912,0.1128875,-0.0306625,-0.296725
150436934706790,15.726913,0.086075,0.09515,-0.2685375
150436944707773,15.736914,0.103125,0.08415,-0.214775
150436954708944,15.746915,0.1618375,0.009625,-0.19525
150436964709927,15.756916,0.2278375,-0.0270875,-0.1929125
150436974710852,15.766917,0.25959998,0.026675,-0.20625
150436984712011,15.776918,0.2558875,0.175725,-0.17215
150436994713005,15.786919,0.219175,0.3370125,-0.0658625
150437004714159,15.796920,0.1788875,0.4175875,0.0759
150437014715159,15.806921,0.1618375,0.3113,0.1859
150437024716070,15.816922,0.16665,0.0974875,0.19813749
150437034717229,15.826923,0.1898875,-0.108899996,0.13213749
150437044718227,15.836924,0.2179375,-0.194425,0.0026125
150437054719170,15.846925,0.2253625,-0.10285,-0.13915
150437064720327,15.856926,0.1936,0.10615,-0.180675
150437074721338,15.866927,0.1568875,0.2893,-0.1329625
150437084722476,15.876928,0.1398375,0.2954875,-0.076725
150437094723476,15.886929,0.141075,0.1464375,-0.0231
150437104724630,15.896931,0.1544125,-0.0526625,-0.01815
150437114725558,15.906932,0.1496,-0.1749,-0.070675
150437124726553,15.916933,0.125125,-0.144375,-0.10615
150437134727721,15.926934,0.0946,-0.02585,-0.0902
150437144728644,15.936935,0.069025,0.065725,-0.0413875
150437154729644,15.946936,0.0603625,0.092675,0.001375
150437164730800,15.956937,0.0603625,0.07315,0.012375
150437174731707,15.966938,0.058025,0.026675,-0.004675
150437184732709,15.976939,0.0383625,0.00715,-0.020624999
150437194733845,15.986940,0.0017875,0.0218625,-0.0193875
150437204734852,15.996941,-0.045925,0.0108624995,-0.015675
150437214736005,16.006942,-0.08745,-0.023375,-0.026675
150437224736918,16.016943,-0.10945,-0.0356125,-0.0449625
150437234737921,16.026944,-0.1082125,-0.0466125,-0.081675
150437244739060,16.036945,-0.091025,-0.0270875,-0.1464375
150437254740058,16.046946,-0.0715,0.0242,-0.214775
150437264741212,16.056947,-0.0592625,0.0694375,-0.2564375
150437274742135,16.066948,-0.0471625,0.0864875,-0.3125375
150437284743144,16.076949,-0.014162499,0.092675,-0.3345375
150437294744080,16.086950,0.0042625,0.109725,-0.285725
150437304745308,16.096951,-0.0044,0.1549625,-0.2074875
150437314746218,16.106952,-0.02145,0.1989625,-0.0792
150437324747372,16.116953,-0.034925,0.16225,0.0856625
150437334748389,16.126954,-0.032449998,0.015675,0.2041875
150437344749314,16.136955,-0.023924999,-0.1126125,0.1896125
150437354750468,16.146956,5.5E-4,-0.1931875,0.1101375
150437364751487,16.156957,0.015262499,-0.1381875,-0.042625
150437374752415,16.166958,0.0163625,0.0779625,-0.1489125
150437384753554,16.176960,-0.0177375,0.2624875,-0.081675
150437394754554,16.186961,-0.0482625,0.3223,0.0686125
150437404755464,16.196961,-0.08745,0.2074875,0.19813749
150437414756613,16.206963,-0.1302125,-0.00385,0.2762375
150437424757599,16.216964,-0.146025,-0.1969,0.2506625
150437434758751,16.226965,-0.1582625,-0.2567125,0.1456125
150437444759674,16.236966,-0.190025,-0.199375,0.0209
150437454760907,16.246967,-0.1925,-0.12485,-0.081675
150437464761828,16.256968,-0.1595,-0.0906125,-0.1929125
150437474762825,16.266969,-0.1302125,-0.09185,-0.30525
150437484763748,16.276970,-0.1227875,-0.0856625,-0.3920125
150437494764991,16.286971,-0.1252625,-0.0075625,-0.4250125
150437504765921,16.296972,-0.1412125,0.1159125,-0.39325
150437514767059,16.306973,-0.1667875,0.2514875,-0.31501248
150437524768059,16.316974,-0.179025,0.2882,-0.219725
150437534768984,16.326975,-0.17173749,0.17325,-0.15015
150437544770131,16.336976,-0.157025,0.031625,-0.14025
150437554771059,16.346977,-0.14355,-0.0771375,-0.252725
150437564772289,16.356978,-0.150975,-0.034375,-0.37125
150437574773212,16.366979,-0.17173749,0.0682,-0.412775
150437584774214,16.376980,-0.17655,0.1219625,-0.396825
150437594775359,16.386981,-0.15455,0.1049125,-0.4065875
150437604776357,16.396982,-0.1216875,0.0413875,-0.4420625
150437614777282,16.406983,-0.100925,0.0169125,-0.4395875
150437624778436,16.416984,-0.0935,0.070675,-0.42625
150437634779357,16.426985,-0.1117875,0.16225,-0.38225
150437644780359,16.436986,-0.1106875,0.169675,-0.318725
150437654781513,16.446988,-0.080025,0.0853875,-0.2564375
150437664782513,16.456989,-0.0264,-0.047849998,-0.22825
150437674783660,16.466990,0.01155,-0.14795,-0.241725
150437684784587,16.476991,0.0286,-0.0966625,-0.24419999
150437694785587,16.486992,0.0262625,0.0584375,-0.1819125
150437704786756,16.496993,0.0163625,0.158675,-0.0462
150437714787741,16.506994,0.0286,0.12925,0.058849998
150437724788666,16.516995,0.0616,0.0364375,0.0796125
150437734789815,16.526996,0.06655,-0.1051875,0.0380875
150437744790736,16.536997,0.0603625,-0.150425,-0.01815
150437754791753,16.546998,0.053075,-0.15785,-0.076725
150437764792921,16.556999,0.064075,-0.108899996,-0.16115
150437774793919,16.567000,0.0726,-0.0270875,-0.2222
150437784794872,16.577001,0.0848375,0.004675,-0.219725
150437794796026,16.587002,0.08855,0.026675,-0.197725
150437804797024,16.597003,0.075075,0.064625,-0.147675
150437814798183,16.607004,0.0506,0.06215,-0.0633875
150437824799183,16.617005,0.036025,0.0389125,0.039325
150437834800108,16.627006,0.0262625,0.00715,0.133375
150437844801260,16.637007,0.015262499,-0.045375,0.177375
150437854802260,16.647008,0.003025,-0.0551375,0.1871375
150437864803409,16.657009,-0.0226875,-0.067375,0.1956625
150437874804332,16.667010,-0.023924999,-0.0551375,0.20295
150437884805332,16.677011,-0.007975,-0.0600875,0.205425
150437894806257,16.687012,0.0066,-0.0686125,0.1651375
150437904807411,16.697013,0.003025,-0.0270875,0.13213749
150437914808404,16.707014,-0.0165,0.0229625,0.1236125
150437924809560,16.717016,-0.043449998,0.05115,0.13695
150437934810467,16.727016,-0.0715,0.0499125,0.166375
150437944811469,16.737017,-0.0837375,-0.00385,0.177375
150437954812378,16.747018,-0.0886875,-0.06985,0.14795
150437964813616,16.757020,-0.0862125,-0.13695,0.1126125
150437974814541,16.767021,-0.084975,-0.1309,0.0881375
150437984815689,16.777022,-0.09845,-0.1076625,0.0856625
150437994816691,16.787023,-0.09845,-0.061325,0.086899996
150438004817619,16.797024,-0.08745,-0.034375,0.08085
150438014818773,16.807025,-0.078925,-0.0270875,0.062425
150438024819773,16.817026,-0.0702625,-0.0539,0.056375
150438034820710,16.827027,-0.0592625,-0.084425,0.047849998
150438044821864,16.837028,-0.0361625,-0.095425,0.0111375
150438054822862,16.847029,-0.0044,-0.0991375,-0.04015
150438064824017,16.857030,0.0262625,-0.0686125,-0.0889625
150438074824953,16.867031,0.047025,-0.028324999,-0.1122
150438084825955,16.877032,0.0506,0.0193875,-0.0779625
150438094827106,16.887033,0.036025,0.0682,0.0160875
150438104828121,16.897034,0.0372625,0.0719125,0.117425
150438114829061,16.907035,0.0433125,0.0339625,0.17613749
150438124830214,16.917036,0.0567875,-0.028324999,0.19195
150438134831188,16.927037,0.06655,-0.089375,0.15895
150438144832128,16.937038,0.06655,-0.0930875,0.095425
150438154833294,16.947039,0.0506,-0.064899996,0.028324999
150438164834293,16.957040,0.0323125,-1.375E-4,-0.0218625
150438174835219,16.967041,0.03355,0.0303875,-0.0682
150438184836372,16.977042,0.058025,0.02915,-0.114675
150438194837356,16.987043,0.0787875,-0.0088,-0.1574375
150438204838497,16.997044,0.09955,-0.001375,-0.158675
150438214839413,17.007045,0.1153625,0.015675,-0.1293875
150438224840413,17.017046,0.136125,0.026675,-0.102437496
150438234841567,17.027048,0.14355,0.0559625,-0.04015
150438244842490,17.037048,0.1373625,0.098725,0.0490875
150438254843477,17.047049,0.13859999,0.124437496,0.1309
150438264844648,17.057051,0.136125,0.1354375,0.2457125
150438274845649,17.067052,0.114125,0.098725,0.4032875
150438284846574,17.077053,0.0798875,0.0303875,0.5707625
150438294847711,17.087054,0.0603625,-0.0441375,0.6831
150438304848634,17.097055,0.042075,-0.15895,0.72833747
150438314849651,17.107056,0.0396,-0.2457125,0.6892875
150438324850790,17.117057,0.0518375,-0.3251875,0.5462875
150438334851711,17.127058,0.0946,-0.376475,0.3532375
150438344852914,17.137059,0.14465,-0.2506625,0.1797125
150438354853832,17.147060,0.2008875,-0.0099,-0.0034375
150438364854834,17.157061,0.22659999,0.2930125,-0.1342
150438374855772,17.167062,0.2094125,0.5251125,-0.1269125
150438384856931,17.177063,0.17765,0.59235,0.0088
150438394857929,17.187064,0.13255,0.5556375,0.2237125
150438404859073,17.197065,0.08855,0.4005375,0.45581248
150438414859981,17.207066,0.0787875,0.1940125,0.58905
150438424860981,17.217067,0.0677875,0.0303875,0.64762497
150438434861892,17.227068,0.0738375,-0.0600875,0.6073375
150438444863027,17.237069,0.0908875,-0.067375,0.4547125
150438454864010,17.247070,0.1007875,-0.001375,0.319
150438464865161,17.257071,0.114125,0.0719125,0.2299
150438474866068,17.267072,0.117837496,0.1610125,0.1626625
150438484867070,17.277073,0.114125,0.21725,0.128425
150438494868224,17.287074,0.0983125,0.224675,0.1271875
150438504869159,17.297075,0.092125,0.2234375,0.13695
150438514870147,17.307076,0.07755,0.202675,0.1381875
150438524871313,17.317077,0.0763125,0.12815,0.1101375
150438534872236,17.327078,0.0798875,0.0462,0.064899996
150438544873238,17.337079,0.081125,-0.0050875,0.01485
150438554874378,17.347080,0.086075,0.0279125,-0.0242
150438564875279,17.357081,0.0933625,0.1269125,-0.0034375
150438574876280,17.367082,0.1203125,0.203775,0.0661375
150438584877434,17.377083,0.1483625,0.2160125,0.15413749
150438594878365,17.387084,0.1753125,0.1464375,0.2261875
150438604879596,17.397086,0.185075,0.0474375,0.2151875
150438614880548,17.407087,0.1838375,-0.0600875,0.14685
150438624881550,17.417088,0.18865,-0.1150875,0.0246125
150438634882473,17.427088,0.18259999,-0.034375,-0.131725
150438644883641,17.437090,0.169125,0.1073875,-0.23567499
150438654884644,17.447091,0.163075,0.2600125,-0.2050125
150438664885798,17.457092,0.16665,0.341825,-0.0694375
150438674886716,17.467093,0.169125,0.31625,0.067375
150438684887701,17.477094,0.158125,0.19167499,0.183425
150438694888870,17.487095,0.147125,0.020624999,0.2237125
150438704889793,17.497096,0.130075,-0.155375,0.18095
150438714890795,17.507097,0.1166,-0.1969,0.0441375
150438724891947,17.517098,0.1117875,-0.13213749,-0.16225
150438734892870,17.527099,0.1018875,0.0889625,-0.285725
150438744893877,17.537100,0.0933625,0.29425,-0.269775
150438754894815,17.547101,0.0946,0.4225375,-0.1304875
150438764896063,17.557102,0.0726,0.4800125,0.0429
150438774896988,17.567103,0.0457875,0.4225375,0.2371875
150438784897916,17.577104,0.0078375,0.24653749,0.3801875
150438794899084,17.587105,-0.0422125,0.053625,0.462
150438804900073,17.597106,-0.0935,-0.064899996,0.497475
150438814901232,17.607107,-0.1302125,-0.1040875,0.4607625
150438824902232,17.617108,-0.1362625,-0.0380875,0.4057625
150438834903157,17.627109,-0.1216875,0.04015,0.3642375
150438844904296,17.637110,-0.1142625,0.114675,0.332475
150438854905311,17.647111,-0.0947375,0.197725,0.2836625
150438864906238,17.657112,-0.0886875,0.2099625,0.24447499
150438874907386,17.667113,-0.080025,0.15125,0.1456125
150438884908304,17.677114,-0.0702625,0.0584375,0.0380875
150438894909306,17.687115,-0.0776875,-0.023375,-0.0144375
150438904910458,17.697116,-0.069025,-0.0490875,-0.0548625
150438914911473,17.707117,-0.0446875,-0.0515625,-0.0792
150438924912396,17.717118,0.009075,-0.0295625,-0.136675
150438934913574,17.727120,0.0677875,-0.0551375,-0.2294875
150438944914481,17.737120,0.1043625,-0.056375,-0.3174875
150438954915707,17.747122,0.0983125,0.009625,-0.35901248
150438964916630,17.757123,0.0506,0.0974875,-0.3309625
150438974917630,17.767124,0.014025,0.15619999,-0.2552
150438984918540,17.777125,0.015262499,0.131725,-0.19525
150438994919689,17.787126,0.031075,0.015675,-0.147675
150439004920596,17.797127,0.0567875,-0.0856625,-0.2039125
150439014921588,17.807128,0.0543125,-0.089375,-0.30153748
150439024922747,17.817129,0.042075,-0.02585,-0.37125
150439034923747,17.827130,0.0163625,0.048675,-0.4090625
150439044924670,17.837131,5.5E-4,0.1183875,-0.385825
150439054925824,17.847132,0.0042625,0.109725,-0.35901248
150439064926841,17.857133,0.031075,0.0449625,-0.352825
150439074927785,17.867134,0.0653125,-0.039325,-0.3724875
150439084928944,17.877135,0.0787875,-0.0636625,-0.401775
150439094929942,17.887136,0.0823625,-0.0600875,-0.4225375
150439104930852,17.897137,0.0726,-0.012375,-0.40425
150439114932006,17.907138,0.0628375,0.0438625,-0.324775
150439124932985,17.917139,0.036025,0.075625,-0.1769625
150439134933925,17.927140,0.0078375,0.091437496,0.0246125
150439144935079,17.937141,-0.0031625,0.092675,0.2322375
150439154936091,17.947142,-0.0044,0.0218625,0.3911875
150439164937245,17.957143,5.5E-4,-0.09185,0.486475
150439174938173,17.967144,0.020075,-0.183425,0.4778125
150439184939189,17.977145,0.015262499,-0.1736625,0.3972375
150439194940341,17.987146,-0.012925,-0.0991375,0.31295
150439204941274,17.997147,-0.0312125,0.0083875,0.2409
150439214942285,18.007148,-0.0471625,0.0719125,0.1907125
150439224943452,18.017149,-0.0471625,0.103675,0.17613749
150439234944360,18.027150,-0.06545,0.0902,0.1566125
150439244945346,18.037151,-0.095975,0.0609125,0.1381875
150439254946485,18.047152,-0.1447875,0.0242,0.150425
150439264947404,18.057153,-0.17655,0.0011,0.161425
150439274948406,18.067154,-0.1887875,-0.01485,0.1406625
150439284949329,18.077155,-0.190025,-0.089375,0.1381875
150439294950478,18.087156,-0.1595,-0.1797125,0.086899996
150439304951481,18.097157,-0.0947375,-0.24695,-0.0449625
150439314952620,18.107159,-0.0372625,-0.271425,-0.1989625
150439324953529,18.117160,-0.0055,-0.24447499,-0.3430625
150439334954502,18.127161,-0.001925,-0.1639,-0.4701125
150439344955651,18.137162,-0.0177375,-0.0088,-0.5300625
150439354956567,18.147163,-0.0336875,0.103675,-0.5105375
150439364957490,18.157163,-0.043449998,0.15015,-0.4115375
150439374958726,18.167165,-0.0592625,0.1304875,-0.224675
150439384959635,18.177166,-0.0972125,0.0609125,0.0270875
150439394960635,18.187167,-0.157025,0.0242,0.277475
150439404961760,18.197168,-0.21573749,-0.0221375,0.448525
150439414962789,18.207169,-0.26455,-0.0661375,0.5182375
150439424963712,18.217170,-0.28655,-0.144375,0.531575
150439434964637,18.227171,-0.2963125,-0.1821875,0.5132875
150439444965791,18.237172,-0.2915,-0.17613749,0.473
150439454966791,18.247173,-0.2853125,-0.083325,0.42295
150439464967942,18.257174,-0.29755,0.05115,0.3837625
150439474968856,18.267175,-0.3268375,0.16225,0.4107125
150439484969841,18.277176,-0.37454998,0.1904375,0.514525
150439494970782,18.287177,-0.422125,0.1159125,0.6488625
150439504971945,18.297178,-0.4613125,-0.0221375,0.7539125
150439514972943,18.307179,-0.466125,-0.1846625,0.7931
150439524973887,18.317180,-0.4307875,-0.3056625,0.7233875
150439534975056,18.327181,-0.3683625,-0.35694999,0.5731
150439544975962,18.337182,-0.2938375,-0.319,0.3972375
150439554976960,18.347183,-0.2072125,-0.2286625,0.2237125
150439564978128,18.357184,-0.1106875,-0.1431375,0.0796125
150439574979128,18.367185,-0.0044,-0.100375,-0.0339625
150439584980051,18.377186,0.0873125,-0.1016125,-0.1159125
150439594981214,18.387187,0.163075,-0.122375,-0.1659625
150439604982123,18.397188,0.202125,-0.14685,-0.186725
150439614983352,18.407189,0.185075,-0.128425,-0.1720125
150439624984275,18.417190,0.1166,-0.0771375,-0.10615
150439634985198,18.427191,0.0396,-0.0270875,0.001375
150439644986200,18.437192,0.003025,-0.039325,0.09185
150439654987366,18.447193,0.0176,-0.1150875,0.1076625
150439664988366,18.457194,0.059125,-0.1969,0.0246125
150439674989291,18.467195,0.0897875,-0.183425,-0.1073875
150439684990450,18.477196,0.0908875,-0.078375,-0.2454375
150439694991371,18.487197,0.0763125,0.04015,-0.3785375
150439704992602,18.497199,0.059125,0.1109625,-0.4835875
150439714993516,18.507200,0.0518375,0.1012,-0.5336375
150439724994516,18.517201,0.0298375,0.059675,-0.5203
150439734995440,18.527201,0.0066,0.054725,-0.44935
150439744996588,18.537203,-0.032449998,0.0902,-0.2893
150439754997602,18.547204,-0.0996875,0.120725,-0.076725
150439764998532,18.557205,-0.168025,0.0864875,0.0991375
150439774999684,18.567206,-0.1912625,-0.001375,0.1639
150439785000621,18.577207,-0.1595,-0.155375,0.111375
150439795001623,18.587208,-0.0862125,-0.2921875,-0.0121
150439805002768,18.597209,0.0053625,-0.2762375,-0.1329625
150439815003684,18.607210,0.0457875,-0.117425,-0.1720125
150439825004681,18.617211,0.0396,0.0853875,-0.0999625
150439835005604,18.627212,0.014025,0.214775,0.067375
150439845006758,18.637213,-0.029975,0.202675,0.2567125
150439855007772,18.647214,-0.0581625,0.0144375,0.376475
150439865008685,18.657215,-0.045925,-0.227425,0.4057625
150439875009824,18.667216,-0.014162499,-0.4252875,0.365475
150439885010755,18.677217,0.0163625,-0.4668125,0.2531375
150439895011757,18.687218,0.025024999,-0.354475,0.1040875
150439905012925,18.697219,0.0213125,-0.1381875,-0.0328625
150439915013923,18.707220,0.0383625,0.0364375,-0.1194875
150439925014858,18.717221,0.0933625,0.0499125,-0.175725
150439935016012,18.727222,0.1423125,-0.0221375,-0.1879625
150439945016981,18.737223,0.13859999,-0.0416625,-0.15015
150439955017891,18.747224,0.0677875,0.0108624995,-0.0633875
150439965019034,18.757225,-0.0372625,0.076725,0.0576125
150439975019957,18.767226,-0.1167375,0.070675,0.1626625
150439985020968,18.777227,-0.117975,-0.02585,0.1956625
150439995021891,18.787228,-0.062975,-0.1516625,0.1419
150440005023036,18.797229,0.014025,-0.2457125,0.013612499
150440015024040,18.807230,0.086075,-0.210375,-0.153725
150440025025207,18.817231,0.1263625,-0.0416625,-0.2905375
150440035026125,18.827232,0.12265,0.13915,-0.35901248
150440045027053,18.837233,0.08855,0.2905375,-0.329725
150440055028298,18.847234,0.042075,0.3064875,-0.236775
150440065029207,18.857235,0.015262499,0.197725,-0.1329625
150440075030202,18.867236,0.003025,0.0169125,-0.0633875
150440085031127,18.877237,-0.02145,-0.1040875,-0.0034375
150440095032050,18.887238,-0.054449998,-0.083325,0.028324999
150440105033185,18.897239,-0.0837375,0.037675,0.0429
150440115034194,18.907240,-0.0812625,0.14025,0.064899996
150440125035132,18.917241,-0.045925,0.1684375,0.0966625
150440135036300,18.927242,0.009075,0.125675,0.1199
150440145037216,18.937243,0.04455,0.0999625,0.1346125
150440155038223,18.947244,0.0408375,0.136675,0.1381875
150440165039391,18.957245,-0.001925,0.180675,0.12485
150440175040322,18.967246,-0.0446875,0.2074875,0.078375
150440185041324,18.977247,-0.0642125,0.1904375,0.00385
150440195042492,18.987248,-0.0495,0.1452,-0.0889625
150440205043471,18.997249,-0.007975,0.10615,-0.18425
150440215044401,19.007250,0.0433125,0.081675,-0.2674375
150440225045324,19.017251,0.0897875,0.098725,-0.3260125
150440235046478,19.027252,0.11055,0.1599125,-0.33825
150440245047471,19.037253,0.11055,0.247775,-0.31501248
150440255048396,19.047254,0.11055,0.2930125,-0.27719998
150440265049538,19.057256,0.1288375,0.2454375,-0.24653749
150440275050538,19.067257,0.1568875,0.15125,-0.2662
150440285051468,19.077257,0.1863125,0.0474375,-0.3394875
150440295052603,19.087259,0.197175,0.0121,-0.429825
150440305053524,19.097260,0.19965,0.054725,-0.5093
150440315054540,19.107261,0.1936,0.1489125,-0.534875
150440325055463,19.117261,0.1788875,0.2820125,-0.4970625
150440335056617,19.127263,0.163075,0.4175875,-0.412775
150440345057605,19.137264,0.125125,0.500775,-0.3040125
150440355058516,19.147265,0.070125,0.4811125,-0.169675
150440365059675,19.157266,0.0078375,0.35901248,-0.0572
150440375060658,19.167267,-0.0617375,0.2074875,0.0160875
150440385061593,19.177268,-0.1252625,0.0609125,0.028324999
150440395062745,19.187269,-0.16445,0.0352,-0.020624999
150440405063653,19.197270,-0.1753125,0.070675,-0.1159125
150440415064661,19.207271,-0.1607375,0.15125,-0.214775
150440425065804,19.217272,-0.1192125,0.2014375,-0.3064875
150440435066727,19.227273,-0.056925,0.180675,-0.4090625
150440445067743,19.237274,0.0078375,0.124437496,-0.52635
150440455068652,19.247275,0.0383625,0.136675,-0.622875
150440465069580,19.257276,0.0273625,0.208725,-0.6705875
150440475070808,19.267277,-0.0067375,0.3210625,-0.65587497
150440485071731,19.277278,-0.0482625,0.3920125,-0.5581125
150440495072643,19.287279,-0.0702625,0.374825,-0.3955875
150440505073781,19.297280,-0.054449998,0.23925,-0.2662
150440515074779,19.307281,-0.0116875,0.053625,-0.219725
150440525075710,19.317282,0.0176,-0.0356125,-0.2332
150440535076863,19.327283,0.0103124995,0.02915,-0.2564375
150440545077784,19.337284,-0.0312125,0.1794375,-0.2380125
150440555078785,19.347285,-0.0886875,0.2882,-0.1709125
150440565079940,19.357286,-0.13145,0.26125,-0.0999625
150440575080852,19.367287,-0.15455,0.1452,-0.065725
150440585081785,19.377288,-0.1667875,-0.0209,-0.1049125
150440595082802,19.387289,-0.1582625,-0.15785,-0.258775
150440605083948,19.397290,-0.1522125,-0.15413749,-0.4665375
150440615084876,19.407291,-0.1667875,-0.0088,-0.5984
150440625085886,19.417292,-0.2083125,0.2074875,-0.5740625
150440635086811,19.427293,-0.26455,0.3845875,-0.4005375
150440645087979,19.437294,-0.2853125,0.4140125,-0.197725
150440655088977,19.447295,-0.26455,0.2844875,-0.048675
150440665089912,19.457296,-0.2327875,0.0169125,0.0088
150440675091080,19.467297,-0.1973125,-0.24695,-0.0119624995
150440685091987,19.477298,-0.1595,-0.332475,-0.0694375
150440695092989,19.487299,-0.1302125,-0.210375,-0.1122
150440705093926,19.497300,-0.10945,0.0242,-0.09515
150440715095075,19.507301,-0.082499996,0.19167499,-0.0303875
150440725096070,19.517302,-0.040975,0.1904375,0.0416625
150440735096993,19.527303,-0.0031625,0.0364375,0.0746625
150440745097912,19.537304,0.0273625,-0.183425,0.0380875
150440755099066,19.547305,0.0286,-0.3166625,-0.0559625
150440765100063,19.557306,-0.012925,-0.2811875,-0.136675
150440775101217,19.567307,-0.0642125,-0.1186625,-0.15015
150440785102111,19.577308,-0.102025,0.0743875,-0.076725
150440795103048,19.587309,-0.1142625,0.1794375,0.058849998
150440805104050,19.597310,-0.0972125,0.1439625,0.199375
150440815104988,19.607311,-0.0752125,0.0229625,0.2762375
150440825106132,19.617312,-0.080025,-0.100375,0.2677125
150440835107048,19.627313,-0.1142625,-0.161425,0.221375
150440845108045,19.637314,-0.146025,-0.1419,0.13585
150440855108973,19.647315,-0.157025,-0.0820875,0.0416625
150440865110117,19.657316,-0.14355,-0.012375,-0.0108624995
150440875111117,19.667317,-0.1192125,0.0449625,-0.01815
150440885112069,19.677318,-0.09845,0.064625,1.375E-4
150440895113209,19.687319,-0.091025,0.076725,0.0405625
150440905114135,19.697320,-0.113025,0.098725,0.095425
150440915115134,19.707321,-0.1447875,0.1269125,0.155375
150440925116286,19.717322,-0.18755,0.120725,0.2347125
150440935117221,19.727323,-0.2498375,0.053625,0.363
150440945118149,19.737324,-0.295075,-0.0429,0.4668125
150440955119141,19.747325,-0.3073125,-0.13695,0.473
150440965120069,19.757326,-0.2915,-0.19195,0.381425
150440975121223,19.767327,-0.2608375,-0.216425,0.232375
150440985122221,19.777328,-0.216975,-0.1749,0.056375
150440995123136,19.787329,-0.1827375,-0.072325,-0.0853875
150441005124300,19.797330,-0.1692625,0.0254375,-0.15125
150441015125221,19.807331,-0.16445,0.092675,-0.1599125
150441025126144,19.817332,-0.157025,0.091437496,-0.13915
150441035127380,19.827333,-0.146025,0.0462,-0.08415
150441045128312,19.837334,-0.1302125,-0.062425,-0.009625
150441055129221,19.847335,-0.12045,-0.1821875,0.0356125
150441065130223,19.857336,-0.1252625,-0.2519,0.067375
150441075131146,19.867337,-0.150975,-0.2787125,0.1040875
150441085132055,19.877338,-0.17173749,-0.2849,0.122375
150441095133213,19.887339,-0.17173749,-0.3092375,0.1101375
150441105134232,19.897340,-0.1485,-0.3691875,0.0526625
150441115135147,19.907341,-0.102025,-0.43147498,-0.0389125
150441125136300,19.917342,-0.0592625,-0.45595,-0.1354375
150441135137309,19.927343,-0.0336875,-0.420475,-0.1892
150441145138243,19.937344,-0.0397375,-0.2946625,-0.186725
150441155139394,19.947345,-0.069025,-0.1199,-0.1342
150441165140318,19.957346,-0.104499996,0.004675,-0.0254375
150441175141241,19.967347,-0.128975,0.026675,0.1040875
150441185142248,19.977348,-0.14973749,-0.0416625,0.2079
150441195143405,19.987349,-0.1607375,-0.1687125,0.2311375
150441205144318,19.997350,-0.14973749,-0.2872375,0.1846625
150441215145318,20.007351,-0.1447875,-0.3557125,0.1346125
150441225146239,20.017352,-0.14973749,-0.3361875,0.1076625
150441235147386,20.027353,-0.146025,-0.2127125,0.0991375
150441245148309,20.037354,-0.1387375,-0.0429,0.1161875
150441255149309,20.047355,-0.12773749,0.076725,0.15785
150441265150234,20.057356,-0.1155,0.1122,0.2079
150441275151157,20.067357,-0.1167375,0.07315,0.2616625
150441285152316,20.077358,-0.1252625,-0.006325,0.2959
150441295153311,20.087359,-0.128975,-0.062425,0.2897125
150441305154239,20.097360,-0.12045,-0.172425,0.2409
150441315155391,20.107361,-0.1557875,-0.161425,0.19195
150441325156298,20.117362,-0.1582625,-0.17613749,0.1199
150441335157298,20.127363,-0.12773749,-0.2151875,0.0319
150441345158223,20.137364,-0.095975,-0.24447499,-0.0743875
150441355159356,20.147365,-0.051975,-0.2506625,-0.19525
150441365160255,20.157366,0.003025,-0.24213749,-0.2893
150441375161267,20.167367,0.0347875,-0.2127125,-0.341825
150441385162170,20.177368,0.036025,-0.177375,-0.3430625
150441395163093,20.187369,0.0066,-0.1236125,-0.302775
150441405164252,20.197370,-0.0482625,-0.0331375,-0.1929125
150441415165257,20.207371,-0.106975,0.026675,-0.0108624995
150441425166180,20.217372,-0.1412125,0.004675,0.2017125
150441435167341,20.227373,-0.1522125,-0.0906125,0.37895
150441445168264,20.237374,-0.1412125,-0.2189,0.4742375
150441455169158,20.247375,-0.1192125,-0.3361875,0.4742375
150441465170158,20.257376,-0.104499996,-0.3691875,0.40094998
150441475171303,20.267377,-0.1106875,-0.2921875,0.27513748
150441485172221,20.277378,-0.1326875,-0.1601875,0.166375
150441495173226,20.287379,-0.16555,-0.0551375,0.1406625
150441505174176,20.297380,-0.1925,-0.0185625,0.1907125
150441515175330,20.307381,-0.207075,-0.0759,0.266475
150441525176236,20.317382,-0.2242625,-0.1907125,0.337425
150441535177169,20.327383,-0.24007499,-0.3177625,0.360525
150441545178174,20.337384,-0.245025,-0.4082375,0.3007125
150441555179318,20.347385,-0.2193125,-0.437525,0.1651375
150441565180250,20.357386,-0.1607375,-0.4302375,-0.026675
150441575181265,20.367387,-0.07645,-0.3691875,-0.2209625
150441585182200,20.377388,-0.0055,-0.25795,-0.346775
150441595183133,20.387389,0.031075,-0.1101375,-0.35901248
150441605184056,20.397390,0.0237875,0.053625,-0.2552
150441615185285,20.407391,-0.007975,0.214775,-0.0669625
150441625186215,20.417392,-0.0482625,0.2783,0.155375
150441635187147,20.427393,-0.080025,0.219725,0.332475
150441645188325,20.437394,-0.091025,0.07315,0.448525
150441655189242,20.447395,-0.1007875,-0.089375,0.508475
150441665190242,20.457396,-0.12045,-0.22495,0.553575
150441675191167,20.467397,-0.1472625,-0.2921875,0.60005
150441685192319,20.477398,-0.1802625,-0.2836625,0.63305
150441695193216,20.487399,-0.1973125,-0.238425,0.641575
150441705194149,20.497400,-0.194975,-0.183425,0.5963375
150441715195151,20.507401,-0.17655,-0.1529,0.50105
150441725196079,20.517402,-0.157025,-0.1626625,0.3691875
150441735197228,20.527403,-0.13145,-0.1711875,0.2237125
150441745198154,20.537404,-0.1082125,-0.14795,0.0906125
150441755199156,20.547405,-0.0922625,-0.128425,-0.0011
150441765200305,20.557406,-0.0666875,-0.1076625,-0.0474375
150441775201211,20.567407,-0.0262625,-0.1051875,-0.0682
150441785202120,20.577408,0.020075,-0.106425,-0.0682
150441795203122,20.587409,0.0628375,-0.1211375,-0.0633875
150441805204045,20.597410,0.09955,-0.111375,-0.0523875
150441815205206,20.607411,0.13255,-0.0710875,-0.0254375
150441825206115,20.617412,0.1606,-0.006325,0.01485
150441835207024,20.627413,0.1838375,0.053625,0.061325
150441845208054,20.637414,0.2058375,0.1122,0.111375
150441855208977,20.647415,0.22165,0.15619999,0.1797125
150441865210115,20.657416,0.230175,0.1684375,0.2542375
150441875211047,20.667417,0.224125,0.13915,0.3179
150441885212049,20.677418,0.2058375,0.08415,0.34595
150441895212959,20.687419,0.180125,0.0083875,0.308
150441905214115,20.697420,0.1483625,-0.0515625,0.2237125
150441915215110,20.707421,0.117837496,-0.056375,0.1309
150441925216039,20.717422,0.0873125,0.0364375,0.0539
150441935216964,20.727423,0.0518375,0.1659625,0.01485
150441945218116,20.737424,0.0066,0.280775,0.036849998
150441955219039,20.747425,-0.0275,0.3100625,0.100375
150441965219967,20.757426,-0.043449998,0.2294875,0.155375
150441975220967,20.767427,-0.032449998,0.0889625,0.15413749
150441985221887,20.777428,-0.0031625,-0.078375,0.083325
150441995223017,20.787429,0.0482625,-0.199375,-0.0364375
150442005223928,20.797430,0.108075,-0.2041875,-0.1672
150442015224851,20.807431,0.16665,-0.0966625,-0.291775
150442025225853,20.817432,0.2058375,0.0584375,-0.368775
150442035226758,20.827433,0.2338875,0.1964875,-0.3724875
150442045227912,20.837434,0.2363625,0.274725,-0.324775
150442055228842,20.847435,0.1973125,0.2882,-0.2184875
150442065229770,20.857436,0.1276,0.2160125,-0.0609125
150442075230782,20.867437,0.0396,0.075625,0.10285
150442085231705,20.877438,-0.0446875,-0.058849998,0.2017125
150442095232862,20.887439,-0.095975,-0.1419,0.2127125
150442105233775,20.897440,-0.117975,-0.14795,0.1786125
150442115234770,20.907441,-0.1252625,-0.089375,0.13585
150442125235695,20.917442,-0.12773749,0.0022,0.0906125
150442135236623,20.927443,-0.128975,0.064625,0.0405625
150442145237777,20.937444,-0.13255,0.0779625,-0.0229625
150442155238775,20.947445,-0.13255,0.042625,-0.0999625
150442165239688,20.957446,-0.1227875,-0.01485,-0.1659625
150442175240619,20.967447,-0.1032625,-0.084425,-0.208725
150442185241556,20.977448,-0.078925,-0.100375,-0.21725
150442195242710,20.987449,-0.0702625,-0.0661375,-0.1720125
150442205243636,20.997450,-0.0776875,-0.0111375,-0.0999625
150442215244641,21.007451,-0.0972125,0.0462,-0.0229625
150442225245551,21.017452,-0.1337875,0.064625,0.061325
150442235246479,21.027452,-0.15455,0.0132,0.111375
150442245247633,21.037454,-0.1485,-0.0539,0.0820875
150442255248631,21.047455,-0.1227875,-0.117425,-0.026675
150442265249575,21.057456,-0.0922625,-0.1456125,-0.1744875
150442275250513,21.067457,-0.0752125,-0.086899996,-0.2990625
150442285251665,21.077458,-0.078925,0.00715,-0.346775
150442295252592,21.087459,-0.09845,0.0963875,-0.32725
150442305253592,21.097460,-0.1227875,0.114675,-0.269775
150442315254517,21.107461,-0.14245,0.075625,-0.175725
150442325255435,21.117461,-0.16555,-0.0088,-0.06215
150442335256363,21.127462,-0.188925,-0.122375,0.022275
150442345257281,21.137463,-0.1986875,-0.2091375,0.0259875
150442355258448,21.147464,-0.188925,-0.260425,-0.0473
150442365259459,21.157465,-0.1694,-0.2176625,-0.15235
150442375260382,21.167466,-0.161975,-0.10395,-0.237875
150442385261305,21.177467,-0.1656875,-1.375E-4,-0.28187498
150442395262459,21.187468,-0.1681625,0.0303875,-0.28187498
150442405263394,21.197469,-0.17545,-0.012375,-0.2451625
150442415264392,21.207470,-0.194975,-0.09185,-0.1841125
150442425265315,21.217471,-0.221925,-0.1626625,-0.1181125
150442435266225,21.227472,-0.243925,-0.205425,-0.0765875
150442445267361,21.237473,-0.25245,-0.2261875,-0.0790625
150442455268295,21.247474,-0.2451625,-0.2347125,-0.138875
150442465269218,21.257475,-0.216975,-0.25795,-0.264825
150442475270234,21.267476,-0.16445,-0.2652375,-0.4101625
150442485271152,21.277477,-0.12045,-0.2079,-0.5201625
150442495272066,21.287478,-0.100925,-0.117425,-0.57145
150442505272993,21.297479,-0.09845,0.0059125,-0.5311625
150442515274143,21.307480,-0.111925,0.0779625,-0.4076875
150442525275141,21.317481,-0.1412125,0.0779625,-0.2171125
150442535276051,21.327482,-0.17173749,0.0254375,-0.0020625
150442545276979,21.337483,-0.1901625,-0.0991375,0.154275
150442555277887,21.347484,-0.2024,-0.2409,0.22385
150442565279025,21.357485,-0.2145,-0.2836625,0.2360875
150442575279953,21.367486,-0.2292125,-0.2322375,0.226325
150442585280883,21.377487,-0.2365,-0.1419,0.2190375
150442595281887,21.387488,-0.2341625,-0.0820875,0.2080375
150442605282825,21.397489,-0.2244,-0.0796125,0.1799875
150442615283979,21.407490,-0.210925,-0.1529,0.1175625
150442625284900,21.417491,-0.1852125,-0.2629,0.021175
150442635285832,21.427492,-0.161975,-0.354475,-0.1010625
150442645286756,21.437493,-0.149875,-0.3702875,-0.20487499
150442655287730,21.447494,-0.14739999,-0.310475,-0.253825
150442665288672,21.457495,-0.161975,-0.17613749,-0.21835
150442675289840,21.467496,-0.1986875,-0.056375,-0.0985875
150442685290761,21.477497,-0.2341625,-0.013612499,0.0565125
150442695291699,21.487498,-0.2451625,-0.089375,0.182325
150442705292622,21.497499,-0.2341625,-0.227425,0.23127499
150442715293638,21.507500,-0.20845,-0.3471875,0.1848
150442725294804,21.517501,-0.1816375,-0.3642375,0.0847
150442735295742,21.527502,-0.1694,-0.2616625,-0.00825
150442745296665,21.537503,-0.1656875,-0.108899996,-0.055825
150442755297583,21.547504,-0.1694,0.0242,-0.0473
150442765298506,21.557505,-0.172975,0.06215,0.0149875
150442775299502,21.567506,-0.1766875,0.020624999,0.095699996
150442785300411,21.577506,-0.17173749,-0.0856625,0.1505625
150442795301329,21.587507,-0.1766875,-0.18095,0.182325
150442805302476,21.597508,-0.1816375,-0.21395,0.1885125
150442815303404,21.607509,-0.1742125,-0.1736625,0.1628
150442825304420,21.617510,-0.1522125,-0.0881375,0.132275
150442835305312,21.627511,-0.1254,-0.0050875,0.1175625
150442845306225,21.637512,-0.111925,0.0341,0.1285625
150442855307152,21.647513,-0.111925,0.0242,0.1335125
150442865308304,21.657514,-0.1071125,-0.0306625,0.1029875
150442875309222,21.667515,-0.0851125,-0.1126125,0.0284625
150442885310131,21.677516,-0.0435875,-0.1626625,-0.071775
150442895311040,21.687517,0.0114124995,-0.139425,-0.1315875
150442905312027,21.697518,0.059125,-0.0661375,-0.1255375
150442915312936,21.707519,0.0908875,0.015675,-0.0765875
150442925313839,21.717520,0.11165,0.0804375,-0.0045375
150442935314996,21.727521,0.117699996,0.09515,0.0675125
150442945315919,21.737522,0.120175,0.0609125,0.1188
150442955316842,21.747523,0.1214125,0.0231,0.1505625
150442965317765,21.757524,0.1153625,0.0034375,0.193325
150442975318683,21.767525,0.1079375,0.0034375,0.2398
150442985319681,21.777526,0.1054625,0.0144375,0.2776125
150442995320828,21.787527,0.11165,0.015675,0.2715625
150443005321780,21.797528,0.1263625,-0.012375,0.2030875
150443015322717,21.807529,0.148225,-0.0576125,0.07975
150443025323714,21.817530,0.1689875,-0.078375,-0.0583
150443035324636,21.827531,0.1739375,-0.0611875,-0.1596375
150443045325561,21.837532,0.1604625,0.0023375,-0.1793
150443055326484,21.847532,0.1299375,0.1109625,-0.10835
150443065327407,21.857533,0.0859375,0.17325,0.02475
150443075328344,21.867534,0.0396,0.1672,0.1799875
150443085329513,21.877536,-0.0081124995,0.0829125,0.3106125
150443095330443,21.887536,-0.0386375,-0.040425,0.3741375
150443105331352,21.897537,-0.04235,-0.1467125,0.33385
150443115332277,21.907538,-0.0325875,-0.216425,0.21175
150443125333263,21.917539,-0.0116875,-0.21395,0.0529375
