time,seconds_elapsed,z,y,x
1788108361740009500,0.131009521484375,-0.08435100317001343,-0.4061099886894226,-0.15895499289035797
1788108361750109700,0.141109619140625,-0.3576259911060333,-0.6507700085639954,-0.30375000834465027
1788108361760206800,0.151206787109375,-0.4430299997329712,-0.7720350027084351,-0.5571879744529724
1788108361770298600,0.161298583984375,-0.4830929934978485,-0.7174630165100098,-0.9096369743347168
1788108361800577300,0.191577392578125,-0.4539780020713806,-1.1653389930725098,-0.7728869915008545
1788108361820764700,0.2117646484375,-0.2867859899997711,-1.8463430404663086,-0.44726601243019104
1788108361830859300,0.221859375,-0.5374540090560913,-1.1648550033569336,-0.7463089823722839
1788108361840924700,0.231924560546875,-0.34607601165771484,-1.2032480239868164,-1.0448859930038452
1788108361851015400,0.242015380859375,-0.17218899726867676,-1.206712007522583,-0.9441329836845398
1788108361861108000,0.25210791015625,-0.09664800018072128,-1.4412130117416382,-0.9343309998512268
1788108361871205000,0.262205078125,-0.24092699587345123,-1.4558680057525635,-1.0317460298538208
1788108361881291000,0.272291015625,-0.3878200054168701,-1.326130986213684,-1.2412879467010498
1788108361891389000,0.282388916015625,-0.461542010307312,-1.1519889831542969,-1.4867199659347534
1788108361901483300,0.292483154296875,-0.448839008808136,-0.8927040100097656,-1.515779972076416
1788108361911577000,0.3025771484375,-0.10378500074148178,-0.5149270296096802,-1.4822850227355957
1788108361921667300,0.312667236328125,-0.07796499878168106,-0.6677160263061523,-1.0986100435256958
1788108361931769300,0.322769287109375,0.19153499603271484,-0.7636579871177673,-0.8035029768943787
1788108361941854500,0.3328544921875,0.6646919846534729,-0.8178529739379883,-0.6505470275878906
1788108361951941000,0.342941162109375,0.9823129773139954,-0.7041209936141968,-0.4244849979877472
1788108361962028000,0.353028076171875,1.2849750518798828,-0.6521829962730408,-0.12075500190258026
1788108361972125000,0.363125,1.4549779891967773,-1.0207799673080444,0.538860023021698
1788108361982219300,0.37321923828125,1.5694350004196167,-0.9747869968414307,0.961434006690979
1788108361992316400,0.38331640625,1.2951329946517944,-0.7659779787063599,1.372148036956787
1788108362002405600,0.393405517578125,1.0346599817276,-0.7480430006980896,1.4802980422973633
1788108362012500200,0.403500244140625,0.6332229971885681,-0.7814620137214661,1.2340129613876343
1788108362022584000,0.413583984375,0.5185649991035461,-0.5694329738616943,0.881604015827179
1788108362032685000,0.42368505859375,0.41531801223754883,-0.48850899934768677,0.8309509754180908
1788108362042781400,0.433781494140625,0.20127299427986145,-0.4714969992637634,0.8983110189437866
1788108362052882000,0.4438818359375,-0.16073499619960785,-0.5114589929580688,1.0607739686965942
1788108362062964500,0.453964599609375,-0.23492099344730377,-0.474261999130249,1.187695026397705
1788108362073058000,0.46405810546875,0.4509490132331848,-0.5022900104522705,2.8413949012756348
1788108362083148300,0.474148193359375,-0.0684870034456253,-0.9773190021514893,1.9949489831924438
1788108362093239300,0.4842392578125,-0.18219099938869476,-0.7802219986915588,1.9216599464416504
1788108362103326200,0.494326171875,-0.21248500049114227,-0.27525898814201355,1.3059719800949097
1788108362113417700,0.504417724609375,0.013550999574363232,0.13906200230121613,1.028095006942749
1788108362123508500,0.514508544921875,0.06941100209951401,0.36782601475715637,0.17232899367809296
1788108362133611800,0.52461181640625,0.22770699858665466,1.631574034690857,-3.7292520999908447
1788108362143712300,0.534712158203125,-0.05889600142836571,4.337591171264648,-8.99904727935791
1788108362153808000,0.544807861328125,1.0152230262756348,-0.3806760013103485,-2.520556926727295
1788108362163904800,0.55490478515625,1.1128100156784058,-1.6885000467300415,0.4191179871559143
1788108362173988900,0.56498876953125,1.1150000095367432,-0.18889400362968445,0.3753330111503601
1788108362184080100,0.575080078125,1.5092699527740479,0.10506200045347214,0.20301499962806702
1788108362194180600,0.5851806640625,1.2285070419311523,-0.10498999804258347,0.6528109908103943
1788108362204272000,0.595272216796875,1.2305389642715454,-0.19863000512123108,0.8308709859848022
1788108362214368800,0.60536865234375,1.0832469463348389,-0.25755199790000916,0.44784700870513916
1788108362224456400,0.61545654296875,1.0722719430923462,-0.27845498919487,-0.015500999987125397
1788108362234550300,0.62555029296875,0.805010974407196,-0.21224400401115417,-0.08008299767971039
1788108362244643000,0.63564306640625,0.8958960175514221,-0.14508900046348572,-0.13638900220394135
1788108362254736400,0.645736328125,0.8339959979057312,-0.10364200174808502,0.03924600034952164
1788108362264829400,0.655829345703125,0.6648290157318115,0.044916000217199326,0.032214000821113586
1788108362274917400,0.66591748046875,0.6077690124511719,0.08883900195360184,0.03211300075054169
1788108362285008100,0.676008056640625,0.47427499294281006,0.06527300179004669,-0.10199999809265137
1788108362295105500,0.68610546875,0.21002300083637238,0.05555099993944168,-0.3866100013256073
1788108362305195000,0.696195068359375,0.22436800599098206,-0.05339000001549721,-0.514494001865387
1788108362315287800,0.706287841796875,0.48437198996543884,-0.35216501355171204,-0.33543699979782104
1788108362325377000,0.716376953125,0.6042860150337219,-0.4676719903945923,-0.07684999704360962
1788108362335475200,0.72647509765625,0.8077980279922485,-0.4187619984149933,0.2831360101699829
1788108362345566200,0.736566162109375,0.8614010214805603,-0.4666999876499176,0.7408139705657959
1788108362355677000,0.746677001953125,0.7498869895935059,-0.4632579982280731,0.9782999753952026
1788108362365768700,0.756768798828125,0.7405449748039246,-0.3267669975757599,0.8427469730377197
1788108362375868200,0.7668681640625,0.6349030137062073,-0.22436000406742096,0.5200449824333191
1788108362385957600,0.77695751953125,0.3287679851055145,-0.2769399881362915,0.20008699595928192
1788108362396054500,0.787054443359375,-0.0038250000216066837,-0.4597029983997345,0.04501200094819069
1788108362406143200,0.797143310546875,-0.4265570044517517,-0.6408169865608215,0.08383099734783173
1788108362416253200,0.807253173828125,-0.7010359764099121,-0.7042120099067688,0.2427619993686676
1788108362426334200,0.817334228515625,-0.7618340253829956,-0.6431469917297363,0.5493490099906921
1788108362436435700,0.827435791015625,-0.8150789737701416,-0.44232499599456787,0.7051370143890381
1788108362446527700,0.83752783203125,-0.7030090093612671,-0.48505398631095886,0.775439977645874
1788108362456629500,0.84762939453125,-0.6702920198440552,-0.4698899984359741,0.712352991104126
1788108362466721500,0.857721435546875,-0.8602359890937805,-0.4893769919872284,0.3145790100097656
1788108362476814300,0.867814453125,-1.0195679664611816,-0.6487669944763184,-0.030852999538183212
1788108362486898400,0.8778984375,-1.0423450469970703,-0.7673919796943665,-0.31463900208473206
1788108362496993800,0.887993896484375,-0.924793004989624,-0.8705980181694031,-0.3803049921989441
1788108362507085000,0.8980849609375,-0.6928449869155884,-0.9523079991340637,-0.2357179969549179
1788108362517193700,0.90819384765625,-0.7401930093765259,-0.9003649950027466,0.013430999591946602
1788108362527278000,0.918278076171875,-0.47633498907089233,-0.6928460001945496,0.04987199977040291
1788108362537371000,0.928370849609375,-0.32840898633003235,-0.5931180119514465,-0.10202600061893463
1788108362547459600,0.93845947265625,-0.18300999701023102,-0.49894699454307556,-0.2745330035686493
1788108362557571300,0.9485712890625,-0.015738999471068382,-0.397707998752594,-0.38445600867271423
1788108362567664400,0.958664306640625,0.16486500203609467,-0.30778300762176514,-0.2721160054206848
1788108362577755600,0.968755615234375,0.07380200177431107,-0.2704879939556122,-0.08092799782752991
1788108362587835100,0.978835205078125,0.0952410027384758,-0.15898799896240234,0.09407699853181839
1788108362597923600,0.988923583984375,0.19722799956798553,-0.04718000069260597,0.28168201446533203
1788108362608008700,0.9990087890625,0.44301098585128784,0.016245000064373016,0.5264089703559875
1788108362618111700,1.00911181640625,0.7721030116081238,0.03151699900627136,0.8065429925918579
1788108362628190500,1.0191904296875,0.9404690265655518,0.017297999933362007,1.1168559789657593
1788108362638282000,1.029281982421875,0.9427809715270996,0.07284499704837799,1.1360599994659424
1788108362648375800,1.039375732421875,0.9249039888381958,0.29798001050949097,0.8670910000801086
1788108362658466300,1.04946630859375,0.6359059810638428,0.5431159734725952,0.4065279960632324
1788108362668544500,1.05954443359375,0.2778730094432831,0.5638899803161621,0.20930799841880798
1788108362678636000,1.069635986328125,-0.1525070071220398,0.41499701142311096,0.3409630060195923
1788108362688731100,1.079731201171875,-0.3388870060443878,0.4355219900608063,0.4821940064430237
1788108362698826500,1.089826416015625,-0.25325700640678406,0.6615070104598999,0.45644399523735046
1788108362708921300,1.09992138671875,-0.22337399423122406,0.711234986782074,0.5809550285339355
1788108362719016400,1.110016357421875,-0.08786600083112717,0.508243978023529,0.7493020296096802
1788108362729100500,1.1201005859375,0.20297199487686157,0.5550559759140015,0.7489550113677979
1788108362739191300,1.13019140625,0.24011899530887604,0.5088610053062439,0.7974129915237427
1788108362749276200,1.140276123046875,0.4336889982223511,0.3390440046787262,0.8780080080032349
1788108362759359500,1.150359375,0.5007789731025696,0.3667620122432709,0.7048159837722778
1788108362769449000,1.160448974609375,0.5683969855308533,0.3347109854221344,0.611175000667572
1788108362779536600,1.17053662109375,0.49292099475860596,0.2169100046157837,0.48274898529052734
1788108362789630200,1.180630126953125,0.3191620111465454,0.2243189960718155,0.33893001079559326
1788108362799730400,1.19073046875,0.07149399816989899,0.11320199817419052,0.33431801199913025
1788108362809817900,1.20081787109375,-0.1337829977273941,0.09195499867200851,0.36101099848747253
1788108362819906800,1.21090673828125,-0.3660370111465454,0.027224000543355942,0.4130359888076782
1788108362829998000,1.220998046875,-0.39694300293922424,-0.10737700015306473,0.6176409721374512
1788108362840095000,1.231094970703125,-0.058313000947237015,-0.1048479974269867,0.7543969750404358
1788108362850190000,1.241190185546875,0.39326998591423035,-0.019432000815868378,0.7760670185089111
1788108362860285700,1.25128564453125,0.571075975894928,-0.05558500066399574,0.6934080123901367
1788108362870366200,1.2613662109375,0.5320590138435364,-0.23003600537776947,0.636676013469696
1788108362880453400,1.271453369140625,0.45041799545288086,-0.4037269949913025,0.5881080031394958
1788108362890547700,1.281547607421875,0.0765179991722107,-0.43715500831604004,0.4394359886646271
1788108362900642800,1.291642822265625,-0.265067994594574,-0.47056299448013306,0.275395005941391
1788108362910731300,1.301731201171875,-0.3627769947052002,-0.39784398674964905,0.19604399800300598
1788108362920827000,1.311826904296875,-0.7083079814910889,-0.2460789978504181,-0.07621700316667557
1788108362930915300,1.321915283203125,-1.1741750240325928,-0.22588899731636047,-0.24945199489593506
1788108362941012000,1.332011962890625,-1.4343290328979492,-0.3365049958229065,-0.12432199716567993
1788108362951103700,1.342103759765625,-1.662276029586792,-0.36849498748779297,-0.006568000186234713
1788108362961203700,1.35220361328125,-1.5760600566864014,-0.18982699513435364,-0.08460000157356262
1788108362971297300,1.36229736328125,-1.6463639736175537,-0.02437100000679493,-0.29448598623275757
1788108362981397500,1.3723974609375,-1.4802659749984741,-0.16461299359798431,-0.14442099630832672
1788108362991489300,1.3824892578125,-1.1984909772872925,-0.12381500005722046,-0.1713549941778183
1788108363001580300,1.392580322265625,-0.7961270213127136,-0.03350000083446503,-0.1580059975385666
1788108363011665200,1.4026650390625,-0.2847389876842499,-0.0907370001077652,0.0810839980840683
1788108363021757200,1.412757080078125,-0.02458599954843521,-0.10362900048494339,0.306196004152298
1788108363031845600,1.422845703125,0.40988799929618835,-0.10508400201797485,0.37112900614738464
1788108363041942300,1.4329423828125,0.5607230067253113,-0.20680999755859375,0.4762150049209595
1788108363052028200,1.443028076171875,0.6888430118560791,0.0435589998960495,0.4168260097503662
1788108363062122200,1.453122314453125,0.5610209703445435,0.09742499887943268,0.5162169933319092
1788108363072215000,1.463215087890625,0.6359050273895264,0.000446999998530373,0.785897970199585
1788108363082307300,1.473307373046875,1.115797996520996,-0.07415500283241272,1.002832055091858
1788108363092400400,1.483400390625,1.5033409595489502,-0.008805000223219395,1.0538129806518555
1788108363102499800,1.493499755859375,2.1573851108551025,0.7944949865341187,0.5141559839248657
1788108363112582400,1.50358251953125,2.1946449279785156,-0.03628300130367279,0.6891019940376282
1788108363122670000,1.513670166015625,1.3601659536361694,-0.6316949725151062,0.5793930292129517
1788108363132762000,1.52376220703125,0.8277890086174011,-0.5478360056877136,-0.028850000351667404
1788108363142864400,1.533864501953125,0.40567299723625183,-0.15817700326442719,-0.6283050179481506
1788108363152956400,1.543956298828125,-0.1752369999885559,-0.3012380003929138,-0.6493430137634277
1788108363163052800,1.554052734375,-0.6062949895858765,-0.7330510020256042,-0.2998499870300293
1788108363173138000,1.564137939453125,-0.7261170148849487,-0.3525030016899109,-0.5700269937515259
1788108363183233300,1.5742333984375,-0.5142269730567932,-0.13620500266551971,-0.6667670011520386
1788108363193327400,1.584327392578125,-0.5471230149269104,-0.31159600615501404,-0.4423559904098511
1788108363203421400,1.59442138671875,-0.5339919924736023,-0.2806980013847351,-0.3327600061893463
1788108363213508000,1.604508056640625,-0.25854700803756714,-0.4874410033226013,-0.23644399642944336
1788108363223607000,1.61460693359375,-0.1441970020532608,-0.3685550093650818,-0.37190499901771545
1788108363233704700,1.62470458984375,-0.016364000737667084,-0.4010719954967499,-0.37220299243927
1788108363253890600,1.644890625,0.2899239957332611,-0.23065100610256195,-0.28299298882484436
1788108363263985400,1.6549853515625,0.21116000413894653,-0.19647200405597687,-0.2972779870033264
1788108363274071600,1.665071533203125,-0.01913899928331375,-0.15338300168514252,-0.3817110061645508
1788108363284168200,1.675168212890625,-0.061218999326229095,-0.06672199815511703,-0.26457399129867554
1788108363294262500,1.685262451171875,-0.030402999371290207,-0.012548999860882759,-0.08381500095129013
1788108363304359000,1.69535888671875,-0.04299899935722351,-0.03958800062537193,0.20513899624347687
1788108363314444000,1.705444091796875,0.08519899845123291,-0.12523899972438812,0.5400840044021606
1788108363324534500,1.715534423828125,0.30549299716949463,-0.18495799601078033,0.9064329862594604
1788108363334617000,1.7256171875,0.4457620084285736,-0.24568599462509155,1.2120269536972046
1788108363354804700,1.7458046875,0.7279250025749207,-0.20553399622440338,0.8513489961624146
1788108363364898800,1.75589892578125,0.656682014465332,0.0007070000283420086,0.1962680071592331
1788108363374993400,1.765993408203125,0.3305110037326813,-0.2625870108604431,-0.016790000721812248
1788108363385081300,1.776081298828125,0.13745799660682678,-0.14758500456809998,-0.47058001160621643
1788108363395174700,1.786174560546875,-0.2062229961156845,0.15188199281692505,-0.7867389917373657
1788108363405262300,1.796262451171875,-0.5196970105171204,0.10376899689435959,-0.6158679723739624
1788108363415358000,1.80635791015625,-0.7016890048980713,0.09539499878883362,-0.2851789891719818
1788108363425448400,1.816448486328125,-0.7201499938964844,0.09000299870967865,0.10085500031709671
1788108363435540000,1.8265400390625,-0.4587180018424988,0.2181600034236908,0.3530130088329315
1788108363445632300,1.83663232421875,-0.07210200279951096,0.4731700122356415,0.2166520059108734
1788108363455730200,1.846730224609375,-0.030899999663233757,0.4931049942970276,-0.08887399733066559
1788108363465820400,1.8568203125,-0.05537699908018112,0.42915499210357666,-0.37974199652671814
1788108363475900400,1.866900390625,-0.27486100792884827,0.33023199439048767,-0.47242099046707153
1788108363486002200,1.877002197265625,-0.34141600131988525,0.061232998967170715,-0.2012059986591339
1788108363496094000,1.887093994140625,-0.14195899665355682,-0.031286001205444336,0.27196699380874634
1788108363506187500,1.8971875,0.09730400145053864,0.0826840028166771,0.4927169978618622
1788108363516271400,1.907271240234375,0.40693199634552,0.13536199927330017,0.588467001914978
1788108363526360000,1.917360107421875,0.6481670141220093,0.12067099660634995,0.5311459898948669
1788108363536442600,1.927442626953125,0.9127789735794067,0.14255400002002716,0.46603700518608093
1788108363546534000,1.937533935546875,1.023324966430664,0.20399799942970276,0.3335390090942383
1788108363556627200,1.947627197265625,1.0083210468292236,0.21880899369716644,0.3457939922809601
1788108363566718500,1.957718505859375,1.1286870241165161,-0.12548500299453735,0.6246299743652344
1788108363576803000,1.967802978515625,0.9539409875869751,-0.006089999806135893,0.5792649984359741
1788108363586899500,1.9778994140625,0.746025025844574,-0.048712000250816345,0.6274380087852478
1788108363597036300,1.988036376953125,2.01895809173584,0.24007399380207062,0.9021009802818298
1788108363607137000,1.998136962890625,-0.7976139783859253,-0.6094800233840942,0.42451199889183044
1788108363617228300,2.008228271484375,0.20466899871826172,-0.387021005153656,0.13603000342845917
1788108363627327000,2.018326904296875,0.4975590109825134,0.06728799641132355,0.10102199763059616
1788108363637413600,2.02841357421875,-0.08997099846601486,-0.693248987197876,0.33239299058914185
1788108363647505700,2.038505615234375,0.33522000908851624,-0.3716590106487274,0.19750699400901794
1788108363657588700,2.048588623046875,-1.7091180086135864,-1.0560749769210815,0.2283419966697693
1788108363667681500,2.058681640625,-0.1983499974012375,-0.746757984161377,0.14387699961662292
1788108363677769700,2.068769775390625,-0.4007219970226288,-0.7915359735488892,0.060194000601768494
1788108363687862500,2.078862548828125,-0.548911988735199,-0.48738598823547363,-0.8204169869422913
1788108363697969700,2.0889697265625,-0.846310019493103,-0.3860880136489868,-1.1870169639587402
1788108363708060400,2.099060302734375,-1.0848129987716675,-0.536188006401062,-1.3852030038833618
1788108363718151400,2.1091513671875,-1.509013056755066,-0.7873749732971191,-1.2815020084381104
1788108363728246500,2.11924658203125,-1.6035200357437134,-0.9888550043106079,-0.7079979777336121
1788108363738339300,2.12933935546875,-1.2911629676818848,-0.6847699880599976,-0.3385370075702667
1788108363748440300,2.1394404296875,-0.7187389731407166,-0.41062501072883606,-0.3117170035839081
1788108363758529000,2.149529052734375,-0.2049880027770996,-0.4972650110721588,-0.40841901302337646
1788108363768627500,2.15962744140625,0.20997999608516693,-0.5556619763374329,-0.6729949712753296
1788108363778725400,2.169725341796875,0.9170820116996765,-0.8097389936447144,-0.5165029764175415
1788108363788818000,2.17981787109375,0.9877200126647949,-0.7730389833450317,-0.602728009223938
1788108363798914300,2.189914306640625,0.6300340294837952,-0.8568739891052246,-0.30172500014305115
1788108363809008400,2.20000830078125,0.921396017074585,-0.8034409880638123,0.029116999357938766
1788108363819101200,2.21010107421875,0.9106469750404358,-0.5520489811897278,0.04526900127530098
1788108363829192700,2.220192626953125,0.9743279814720154,-0.4443039894104004,0.1215130016207695
1788108363839280000,2.230280029296875,0.8499780297279358,-0.4629890024662018,0.1213029995560646
1788108363849378800,2.24037890625,0.9281219840049744,-0.7342230081558228,0.3814280033111572
1788108363859466800,2.250466796875,0.9704999923706055,-0.6250889897346497,0.392969012260437
1788108363869561600,2.2605615234375,0.9748839735984802,-0.24109800159931183,0.16956700384616852
1788108363879660000,2.270659912109375,0.6183980107307434,-0.37777000665664673,0.22608399391174316
1788108363889751600,2.28075146484375,0.4912790060043335,-0.2989400029182434,-0.05766500160098076
1788108363899844600,2.2908447265625,0.03484800085425377,-0.12786200642585754,-0.39254000782966614
1788108363909929700,2.3009296875,-0.337801992893219,-0.12180899828672409,-0.3583739995956421
1788108363920026600,2.311026611328125,-0.6307740211486816,-0.006837000139057636,-0.23391400277614594
1788108363930115300,2.321115234375,-0.9781579971313477,0.08635800331830978,-0.1570899933576584
1788108363940214000,2.331214111328125,-0.799659013748169,-0.002807999961078167,0.12521399557590485
1788108363950313700,2.341313720703125,-0.8003230094909668,-0.1404380053281784,0.39858001470565796
1788108363960398000,2.351398193359375,-0.44086501002311707,-0.023089999333024025,0.39299699664115906
1788108363970492200,2.3614921875,-0.27173900604248047,0.345102995634079,-0.13145199418067932
1788108363980584000,2.371583984375,-0.3662149906158447,0.3396500051021576,-0.5276129841804504
1788108363990689000,2.38168896484375,-0.31043198704719543,0.3826499879360199,-1.0783259868621826
1788108364000775200,2.391775146484375,-0.5401769876480103,0.15913799405097961,-0.9812740087509155
1788108364010893000,2.40189306640625,-0.22971099615097046,-0.09562300145626068,-0.6574010252952576
1788108364020979700,2.411979736328125,-0.2884710133075714,-0.07873599976301193,-0.29297399520874023
1788108364031076000,2.422076171875,0.17297500371932983,0.01461500022560358,-0.026799999177455902
1788108364041169400,2.43216943359375,0.5543839931488037,0.14713899791240692,0.002877000020816922
1788108364051263200,2.44226318359375,0.7475550174713135,-0.061546001583337784,0.208188995718956
1788108364061347300,2.452347412109375,0.8347769975662231,-0.18061499297618866,0.13068099319934845
1788108364071447300,2.462447265625,0.8748430013656616,-0.21095000207424164,-0.0682860016822815
1788108364081559600,2.4725595703125,1.0089679956436157,-0.335875004529953,-0.040261998772621155
1788108364091652900,2.48265283203125,1.1474319696426392,-0.4309670031070709,0.06682799756526947
1788108364101741600,2.492741455078125,1.1779049634933472,-0.42663800716400146,-0.018337000161409378
1788108364111828000,2.502827880859375,0.8843029737472534,-0.4744409918785095,-0.022648999467492104
1788108364121911800,2.512911865234375,0.8462780117988586,-0.5138049721717834,-0.04853200167417526
1788108364132009000,2.523009033203125,0.6146860122680664,-0.6650329828262329,0.17519700527191162
1788108364142103800,2.533103759765625,0.473704993724823,-0.9119160175323486,0.5866950154304504
1788108364152191700,2.543191650390625,0.22546100616455078,-0.9588320255279541,0.6455789804458618
1788108364162279200,2.553279052734375,0.10723300278186798,-0.7921689748764038,0.4035249948501587
1788108364172372000,2.5633720703125,-0.04541900008916855,-0.7744330167770386,0.18385300040245056
1788108364182455300,2.573455322265625,-0.30983999371528625,-0.6064479947090149,-0.4123289883136749
1788108364192542500,2.58354248046875,-0.740539014339447,-0.657804012298584,-0.7286310195922852
1788108364202633700,2.5936337890625,-1.091506004333496,-0.6617670059204102,-0.8290839791297913
1788108364212729300,2.603729248046875,-1.3467940092086792,-0.6763489842414856,-0.7909070253372192
1788108364222820000,2.613820068359375,-1.5878289937973022,-0.6011729836463928,-0.7411550283432007
1788108364232911600,2.62391162109375,-1.5237840414047241,-0.3973410129547119,-0.7808189988136292
1788108364242995500,2.633995361328125,-1.219812035560608,-0.2924019992351532,-0.7122359871864319
1788108364253081900,2.644081787109375,-0.9806370139122009,-0.283268004655838,-0.8138309717178345
1788108364263170600,2.654170654296875,-0.8312900066375732,-0.24911600351333618,-0.9902769923210144
1788108364273263000,2.66426318359375,-0.44724100828170776,-0.13813500106334686,-1.0742110013961792
1788108364283349500,2.674349609375,-0.11416500061750412,-0.03787200152873993,-1.0830700397491455
1788108364293434000,2.68443408203125,0.23796600103378296,-0.3446030020713806,-0.5730980038642883
1788108364303523800,2.69452392578125,0.7132059931755066,-0.5384010076522827,-0.05077299848198891
1788108364323697000,2.71469677734375,1.4637819528579712,-0.31788700819015503,0.5104640126228333
1788108364333793300,2.724793212890625,1.8034850358963013,-0.2938750088214874,0.6540020108222961
1788108364343875000,2.734875,2.020461082458496,-0.37973499298095703,0.6350020170211792
1788108364353966000,2.744966064453125,1.968870997428894,-0.3650659918785095,0.4603939950466156
1788108364364049400,2.75504931640625,1.5915980339050293,-0.3379549980163574,0.28789201378822327
1788108364374145000,2.76514501953125,0.9577620029449463,-0.3012380003929138,0.06702899932861328
1788108364384230400,2.77523046875,0.20606499910354614,-0.18678900599479675,-0.08734600245952606
1788108364394325500,2.785325439453125,-0.41118499636650085,-0.044899001717567444,-0.44833698868751526
1788108364404412700,2.79541259765625,-1.0548080205917358,0.10644900053739548,-0.8148360252380371
1788108364424595200,2.81559521484375,-1.781788945198059,-0.057294998317956924,-0.7601180076599121
1788108364434698000,2.825697998046875,-1.7571799755096436,-0.32820001244544983,-0.3391979932785034
1788108364444793000,2.83579296875,-1.4297620058059692,-0.4725149869918823,0.10075899958610535
1788108364454883000,2.845883056640625,-0.6951069831848145,-0.6089439988136292,0.44385001063346863
1788108364464966400,2.85596630859375,0.05169900134205818,-0.8196629881858826,0.5658649802207947
1788108364475064600,2.866064697265625,0.6976339817047119,-0.9019280076026917,0.3252770006656647
1788108364485162200,2.876162353515625,0.9705079793930054,-0.9477620124816895,-0.00810100045055151
1788108364495259400,2.88625927734375,0.5779330134391785,-1.0853480100631714,-0.2878809869289398
1788108364505353200,2.896353271484375,0.3847059905529022,-1.3355629444122314,-0.12520700693130493
1788108364515448000,2.906447998046875,-0.05485500022768974,-1.433374047279358,-0.043953001499176025
1788108364525537000,2.916537109375,-0.3568429946899414,-1.4279199838638306,0.28227099776268005
1788108364535629600,2.926629638671875,-0.37108200788497925,-1.1857149600982666,0.40383899211883545
1788108364545720800,2.936720947265625,-0.46567800641059875,-0.8043609857559204,-0.036205001175403595
1788108364555810000,2.94681005859375,-0.7187209725379944,-0.6518309712409973,-0.5657709836959839
1788108364565893600,2.9568935546875,-1.1459449529647827,-0.6202489733695984,-1.021496057510376
1788108364575981800,2.96698193359375,-1.4834589958190918,-0.5817430019378662,-1.0787349939346313
1788108364586078500,2.977078369140625,-1.6898020505905151,-0.5483700037002563,-0.9014400243759155
1788108364596167700,2.987167724609375,-1.7355730533599854,-0.43018800020217896,-0.7492489814758301
1788108364606254000,2.997254150390625,-1.4245680570602417,-0.17935100197792053,-0.5700420141220093
1788108364616371200,3.00737109375,-1.177240014076233,-0.04655599966645241,-0.35788801312446594
1788108364626459100,3.017459228515625,-0.8477740287780762,-0.05787799879908562,-0.41926300525665283
1788108364636559600,3.0275595703125,-0.6011819839477539,-0.05832900106906891,-0.4703400135040283
1788108364646646000,3.03764599609375,-0.05921399965882301,-0.09505099803209305,-0.32842499017715454
1788108364656734000,3.04773388671875,0.3559249937534332,-0.19785000383853912,-0.15115800499916077
1788108364666813200,3.057813232421875,0.7843599915504456,-0.29047301411628723,0.1422940045595169
1788108364676906000,3.067906005859375,1.0794559717178345,-0.33414000272750854,0.4473170042037964
1788108364686997200,3.077997314453125,1.6430909633636475,-0.3712629973888397,0.737263023853302
1788108364697080300,3.088080322265625,2.128032922744751,-0.35943999886512756,0.8912879824638367
1788108364707174400,3.09817431640625,2.5483570098876953,-0.1913059949874878,0.7927380204200745
1788108364717270800,3.108270751953125,2.803891897201538,-0.049772001802921295,0.7191190123558044
1788108364727369500,3.118369384765625,2.7378299236297607,0.1034649983048439,0.5578280091285706
1788108364737465900,3.1284658203125,2.451469898223877,0.32847800850868225,0.4438070058822632
1788108364747555600,3.1385556640625,2.221337080001831,0.3137870132923126,0.5641469955444336
1788108364757652200,3.14865234375,1.6674259901046753,0.4832490086555481,0.5862269997596741
1788108364767741200,3.1587412109375,1.3961600065231323,0.5280719995498657,0.8795530200004578
1788108364777830700,3.16883056640625,1.1497739553451538,0.58822101354599,1.1014820337295532
1788108364787914000,3.1789140625,1.0442969799041748,0.5114700198173523,1.3353420495986938
1788108364798003200,3.189003173828125,0.9099360108375549,0.5025150179862976,1.4186049699783325
1788108364808103200,3.199103271484375,0.8984709978103638,0.5288810133934021,1.2958990335464478
1788108364818190600,3.209190673828125,0.8294219970703125,0.48165199160575867,0.9876180291175842
1788108364828280800,3.21928076171875,0.6777070164680481,0.4044570028781891,0.5890949964523315
1788108364838374100,3.2293740234375,0.34727099537849426,0.3883169889450073,0.30179500579833984
1788108364848470300,3.23947021484375,0.014367000199854374,0.36362600326538086,0.2219579964876175
1788108364858553600,3.2495537109375,-0.22156600654125214,0.3844049870967865,0.16624900698661804
1788108364868639700,3.2596396484375,-0.11951500177383423,0.31374698877334595,0.3805609941482544
1788108364878736000,3.26973583984375,0.23162700235843658,0.16828300058841705,0.7380620241165161
1788108364888826400,3.279826416015625,0.6793230175971985,-0.009471000172197819,0.9160799980163574
1788108364898925600,3.289925537109375,1.0647269487380981,-0.16333800554275513,1.1372510194778442
1788108364909013500,3.300013427734375,1.3906229734420776,-0.35440298914909363,1.3467119932174683
1788108364919113500,3.310113525390625,1.4977079629898071,-0.3836419880390167,1.3526320457458496
1788108364929206300,3.320206298828125,1.4459309577941895,-0.34033000469207764,1.192384958267212
1788108364939291100,3.330291015625,0.8923329710960388,-0.34520798921585083,0.8517069816589355
1788108364949381000,3.340381103515625,0.28453299403190613,-0.3661769926548004,0.6060349941253662
1788108364959471600,3.3504716796875,-0.23974600434303284,-0.49777698516845703,0.5218279957771301
1788108364969558300,3.360558349609375,-0.7761669754981995,-0.5068960189819336,0.48019298911094666
1788108364979656200,3.37065625,-1.1536669731140137,-0.429080992937088,0.45267900824546814
1788108364989754000,3.380754150390625,-1.2491099834442139,-0.37367698550224304,0.407694011926651
1788108364999855000,3.390855224609375,-1.2169359922409058,-0.3537670075893402,0.3373660147190094
1788108365009939000,3.40093896484375,-1.0528819561004639,-0.35365501046180725,0.10001900047063828
1788108365020030700,3.41103076171875,-1.2034120559692383,-0.4100480079650879,-0.14243200421333313
1788108365030124300,3.421124267578125,-1.070099949836731,-0.47700199484825134,-0.20836499333381653
1788108365040218400,3.43121826171875,-1.001183032989502,-0.6123890280723572,-0.10208100080490112
1788108365050310400,3.441310302734375,-0.8442609906196594,-0.7111480236053467,0.002982999896630645
1788108365060404000,3.451404052734375,-0.535190999507904,-0.7052739858627319,0.08398599922657013
1788108365070495700,3.461495849609375,-0.1255519986152649,-0.7213029861450195,0.14286300539970398
1788108365080598000,3.471597900390625,0.22128300368785858,-0.7932329773902893,0.042451001703739166
1788108365090689800,3.481689697265625,0.5724130272865295,-0.9410439729690552,0.004908000119030476
1788108365100789200,3.491789306640625,0.6422010064125061,-1.0210590362548828,-0.008236999623477459
1788108365110871300,3.501871337890625,0.7256219983100891,-0.9886500239372253,-0.05579899996519089
1788108365120972800,3.511972900390625,0.6718909740447998,-0.9298139810562134,-0.09293899685144424
1788108365131058700,3.52205859375,0.5187079906463623,-0.8329399824142456,-0.13184699416160583
1788108365141155000,3.532155029296875,0.3527039885520935,-0.7833600044250488,-0.3152639865875244
1788108365151238000,3.54223779296875,-0.3201810121536255,-0.6888539791107178,-0.5120660066604614
1788108365161334500,3.55233447265625,-0.868582010269165,-0.6156920194625854,-0.7218559980392456
1788108365171420200,3.562420166015625,-1.150954008102417,-0.4608840048313141,-0.964061975479126
1788108365181512400,3.572512451171875,-1.2204630374908447,-0.3889630138874054,-1.1182860136032104
1788108365191605500,3.58260546875,-1.154924988746643,-0.3626059889793396,-1.12368905544281
1788108365201699000,3.592698974609375,-0.9688929915428162,-0.3457129895687103,-1.072687029838562
1788108365211795200,3.602795166015625,-0.6085420250892639,-0.3988800048828125,-0.923088014125824
1788108365221891300,3.612891357421875,-0.08740200102329254,-0.44548699259757996,-0.7782819867134094
1788108365231984000,3.622984130859375,0.3614110052585602,-0.5664860010147095,-0.6108409762382507
1788108365242094600,3.633094482421875,1.0488280057907104,-0.662738025188446,-0.3141689896583557
1788108365252183800,3.643183837890625,1.7435040473937988,-0.4834339916706085,-0.7343549728393555
1788108365262276000,3.653276123046875,1.6754909753799438,-0.927291989326477,0.13974900543689728
1788108365272364000,3.663364013671875,1.6281739473342896,-0.6002789735794067,0.17268699407577515
1788108365282459600,3.673459716796875,1.3379509449005127,-0.5838249921798706,0.1992879956960678
1788108365292542200,3.683542236328125,0.8227109909057617,-0.6131510138511658,-0.03757600113749504
1788108365302632700,3.6936328125,0.4017550051212311,-0.6470530033111572,-0.12146899849176407
1788108365312721200,3.70372119140625,0.1788419932126999,-0.45157599449157715,-0.06802800297737122
1788108365322819800,3.71381982421875,0.008980999700725079,-0.37802499532699585,-0.03970099985599518
1788108365332904200,3.723904296875,-0.04648299887776375,-0.35671600699424744,-0.08438599854707718
1788108365342994000,3.733993896484375,-0.000012999999853491317,-0.1650789976119995,-0.07929299771785736
1788108365353081600,3.74408154296875,0.1407890021800995,0.04399200156331062,-0.09313099831342697
1788108365363174100,3.754174072265625,0.40591099858283997,0.04830300062894821,-0.08712500333786011
1788108365373253000,3.764253173828125,0.48120298981666565,0.06525100022554398,-0.032499998807907104
1788108365383347000,3.774346923828125,0.4281109869480133,0.022704999893903732,-0.04987899959087372
1788108365393436000,3.784435791015625,0.6912950277328491,-0.07190199941396713,0.14907699823379517
1788108365403526700,3.794526611328125,0.964447021484375,-0.2835119962692261,0.2156659960746765
1788108365413605400,3.80460546875,1.0064150094985962,-0.632669985294342,0.03295300155878067
1788108365423698000,3.814697998046875,1.3674639463424683,-0.8817579746246338,0.15891200304031372
1788108365433788200,3.8247880859375,1.823714017868042,-0.5235850214958191,0.3528209924697876
1788108365443878000,3.8348779296875,2.3945159912109375,-0.18241199851036072,0.7775589823722839
1788108365453960000,3.8449599609375,2.3179640769958496,0.22437499463558197,1.3706680536270142
1788108365464056800,3.855056884765625,2.1085119247436523,0.1999330073595047,1.655174970626831
1788108365474144000,3.86514404296875,1.5004119873046875,0.10670699924230576,1.2282990217208862
1788108365484227800,3.875227783203125,0.398158997297287,0.16316699981689453,0.3933449983596802
1788108365494310000,3.885309814453125,-0.19135600328445435,0.23296700417995453,0.08187899738550186
1788108365504405000,3.895405029296875,-0.82600998878479,0.35850098729133606,0.12109500169754028
1788108365514487000,3.905487060546875,-0.9363229870796204,0.5408740043640137,-0.11915799975395203
1788108365524583200,3.915583251953125,-0.8111180067062378,0.48253899812698364,-0.34965699911117554
1788108365534679000,3.925678955078125,-0.6844689846038818,0.2166769951581955,-0.31234899163246155
1788108365544781800,3.93578173828125,-0.35798799991607666,0.0034129999112337828,-0.2012680023908615
1788108365554873300,3.945873291015625,-0.113987997174263,-0.09784699976444244,0.037682998925447464
1788108365564968700,3.95596875,0.38423898816108704,-0.14247900247573853,0.268653005361557
1788108365575065900,3.96606591796875,0.6299290060997009,-0.411206990480423,0.4584900140762329
1788108365585162000,3.976161865234375,0.6372730135917664,-0.6050609946250916,0.7522370219230652
1788108365595249200,3.986249267578125,1.323533058166504,-0.732142984867096,0.8262500166893005
1788108365605346600,3.9963466796875,1.0949259996414185,-0.7195839881896973,0.547851026058197
1788108365615440000,4.00643994140625,0.9224309921264648,-0.7782310247421265,0.36064600944519043
1788108365625531600,4.01653173828125,0.3084839880466461,-0.6904299855232239,0.11189000308513641
1788108365635617800,4.02661767578125,-0.11113499850034714,-0.7035279870033264,-0.11532799899578094
1788108365645716200,4.03671630859375,-0.5402809977531433,-0.689844012260437,-0.255171000957489
1788108365655806700,4.046806640625,-1.0252150297164917,-0.6986420154571533,-0.2732999920845032
1788108365665901300,4.0569013671875,-0.9404379725456238,-0.5413010120391846,-0.11772800236940384
1788108365675994600,4.06699462890625,-1.1693660020828247,-0.5061720013618469,-0.03207499906420708
1788108365686091300,4.07709130859375,-1.110856056213379,-0.6590870022773743,-0.018709000200033188
1788108365696180500,4.087180419921875,-1.0601329803466797,-0.7203980088233948,-0.20656399428844452
1788108365706282000,4.097281982421875,-1.0208410024642944,-0.6219890117645264,-0.2499680072069168
1788108365726467800,4.1174677734375,-0.939208984375,-0.9214199781417847,0.20172899961471558
1788108365736548600,4.127548583984375,-0.3807719945907593,-1.0354299545288086,0.36495500802993774
1788108365746644000,4.13764404296875,0.3269149959087372,-1.2197730541229248,0.6441789865493774
1788108365756736300,4.147736328125,0.7101770043373108,-1.3226120471954346,0.6858670115470886
1788108365766822400,4.157822509765625,0.41658100485801697,-1.4333219528198242,0.7087889909744263
1788108365776912000,4.167911865234375,0.6485120058059692,-1.4995030164718628,0.7599970102310181
1788108365787007700,4.1780078125,0.6071490049362183,-1.4873089790344238,0.7399230003356934
1788108365797086200,4.188086181640625,0.5920519828796387,-1.4722299575805664,0.6648749709129333
1788108365807181600,4.198181640625,0.4023149907588959,-1.5324649810791016,0.6820200085639954
1788108365817272600,4.2082724609375,0.034662000834941864,-1.406609058380127,0.47244301438331604
1788108365827362800,4.21836279296875,-0.4720050096511841,-1.3186609745025635,0.46443700790405273
1788108365837454800,4.228454833984375,-0.7756680250167847,-1.1850630044937134,0.4252089858055115
1788108365847545900,4.2385458984375,-0.9223960041999817,-1.171133041381836,0.39198699593544006
1788108365857640700,4.248640625,-1.1470539569854736,-1.2847379446029663,0.4217180013656616
1788108365867729400,4.2587294921875,-1.0461679697036743,-1.202610969543457,0.2961840033531189
1788108365877813500,4.2688134765625,-0.791225016117096,-1.0971059799194336,0.2404630035161972
1788108365887902000,4.27890185546875,-0.9554749727249146,-1.0883469581604004,0.35266798734664917
1788108365897994800,4.288994873046875,-1.1431039571762085,-0.8849189877510071,0.4311729967594147
1788108365908083500,4.29908349609375,-0.9329149723052979,-0.9075480103492737,0.33315300941467285
1788108365918176800,4.3091767578125,-1.279129981994629,-0.8485040068626404,0.03953399881720543
1788108365928268800,4.319268798828125,-0.9483699798583984,-0.7898859977722168,-0.2371630072593689
1788108365938366700,4.32936669921875,-0.9741929769515991,-0.7941060066223145,-0.38258400559425354
1788108365948457700,4.339457763671875,-0.9355409741401672,-0.7173259854316711,-0.4545159935951233
1788108365958550800,4.34955078125,-0.77982097864151,-0.6143329739570618,-0.5013449788093567
1788108365968649500,4.3596494140625,-0.9498140215873718,-0.6896100044250488,-0.46292799711227417
1788108365978742800,4.36974267578125,-0.7917799949645996,-0.681788980960846,-0.29445600509643555
1788108365988832000,4.37983203125,-0.39496201276779175,-0.8970569968223572,0.04871499910950661
1788108365998923300,4.38992333984375,0.3272109925746918,-1.0426549911499023,0.4492250084877014
1788108366009009400,4.400009521484375,1.2026129961013794,-1.1631649732589722,0.6855729818344116
1788108366019099100,4.41009912109375,1.771193027496338,-1.2104929685592651,0.8553550243377686
1788108366029198600,4.420198486328125,2.2888360023498535,-1.189221978187561,0.8791429996490479
1788108366039289000,4.4302890625,1.993330955505371,-1.2278269529342651,0.7846810221672058
1788108366049397500,4.4403974609375,1.9788349866867065,-1.1079950332641602,0.8245890140533447
1788108366059488800,4.45048876953125,1.2106469869613647,-1.1381549835205078,0.9315040111541748
1788108366069615600,4.46061572265625,0.5390580296516418,-1.2458479404449463,1.109508991241455
1788108366079709200,4.470709228515625,0.0840580016374588,-1.305935025215149,1.3184419870376587
1788108366089801700,4.4808017578125,-0.37580299377441406,-1.3797839879989624,1.4800950288772583
1788108366099889200,4.49088916015625,-0.5290290117263794,-1.2451889514923096,1.4565210342407227
1788108366109979000,4.500978759765625,-0.8389769792556763,-1.0867769718170166,1.0822830200195312
1788108366120071000,4.51107080078125,-1.2961859703063965,-0.9487209916114807,0.7302889823913574
1788108366130161700,4.52116162109375,-2.094014883041382,-0.8035680055618286,0.5534070134162903
1788108366140253700,4.531253662109375,-2.735814094543457,-0.8461970090866089,0.520999014377594
1788108366150348500,4.5413486328125,-3.0568881034851074,-0.9007760286331177,0.7927299737930298
1788108366160460000,4.5514599609375,-2.7938458919525146,-0.9396029710769653,1.334236979484558
1788108366170548700,4.561548828125,-1.9553550481796265,-0.9156460165977478,1.8297380208969116
1788108366180641800,4.571641845703125,-1.105631947517395,-1.0403549671173096,2.232069969177246
1788108366190728400,4.581728515625,-0.3089810013771057,-1.2672719955444336,2.274472951889038
1788108366200828000,4.591827880859375,0.5451729893684387,-1.5506709814071655,2.128079891204834
1788108366210917400,4.60191748046875,1.3161089420318604,-1.6089249849319458,1.8898489475250244
1788108366221010200,4.61201025390625,2.0352330207824707,-1.5814199447631836,1.8007290363311768
1788108366231097600,4.62209765625,2.4222779273986816,-1.5105669498443604,1.9345990419387817
1788108366241197300,4.632197265625,2.234006881713867,-1.488705039024353,1.9954890012741089
1788108366251289000,4.6422890625,1.8080389499664307,-1.3045010566711426,1.7717729806900024
1788108366261384000,4.652384033203125,1.5051219463348389,-1.1412630081176758,1.4103740453720093
1788108366271474400,4.662474365234375,0.8874940276145935,-0.9117400050163269,1.0491479635238647
1788108366281555200,4.67255517578125,0.3388350009918213,-0.7354469895362854,0.7650420069694519
1788108366291644200,4.68264404296875,-0.4284549951553345,-0.6649029850959778,0.5378620028495789
1788108366301733000,4.692733154296875,-0.8910160064697266,-0.5343469977378845,0.26654499769210815
1788108366311819800,4.70281982421875,-0.9374459981918335,-0.40785300731658936,-0.022098999470472336
1788108366321917000,4.7129169921875,-1.0226680040359497,-0.24430499970912933,-0.16204200685024261
1788108366332009700,4.723009765625,-1.0346499681472778,-0.11848200112581253,-0.10072100162506104
1788108366342105300,4.733105224609375,-0.9304720163345337,-0.21246099472045898,0.1737920045852661
1788108366352198100,4.7431982421875,-0.6038990020751953,-0.25880300998687744,0.24836300313472748
1788108366362288400,4.753288330078125,-0.25009599328041077,-0.3444019854068756,0.19460700452327728
1788108366372384800,4.763384765625,0.3559739887714386,-0.35803601145744324,0.20327100157737732
1788108366382470400,4.773470458984375,0.7988489866256714,-0.44055798649787903,0.263045996427536
1788108366392556500,4.783556640625,1.3753520250320435,-0.4477519989013672,0.2882159948348999
1788108366402651100,4.793651123046875,2.0771119594573975,-0.5768259763717651,0.19590400159358978
1788108366412743200,4.8037431640625,2.685476064682007,-0.5805990099906921,0.09360700100660324
1788108366422838500,4.813838623046875,3.2543458938598633,-0.5886030197143555,0.1443289965391159
1788108366432928500,4.823928466796875,3.4294540882110596,-0.5883200168609619,0.21128399670124054
1788108366443008000,4.834008056640625,3.3994600772857666,-0.5992400050163269,0.3135319948196411
1788108366453095000,4.844094970703125,3.49531888961792,-0.5784900188446045,0.4960879981517792
1788108366463183600,4.85418359375,3.180907964706421,-0.5537260174751282,0.48483601212501526
1788108366473269000,4.86426904296875,2.4059040546417236,-0.4750930070877075,0.39071598649024963
1788108366483361000,4.874361083984375,1.4189900159835815,-0.3246909976005554,0.12409500032663345
1788108366493440000,4.88443994140625,0.601177990436554,-0.10842099785804749,-0.04924999922513962
1788108366503532500,4.894532470703125,-0.20746399462223053,0.0004360000020824373,-0.11323100328445435
1788108366513619000,4.904618896484375,-0.6677600145339966,0.061806999146938324,-0.15868300199508667
1788108366523704300,4.914704345703125,-0.7338290214538574,0.10604900121688843,-0.22130200266838074
1788108366533791200,4.924791259765625,-0.6158409714698792,0.11881499737501144,-0.31177499890327454
1788108366543880400,4.93488037109375,-0.15171299874782562,0.1565849930047989,-0.4581890106201172
1788108366553958400,4.94495849609375,0.35855498909950256,0.16491800546646118,-0.5177069902420044
1788108366564051000,4.955051025390625,0.6573839783668518,0.20867499709129333,-0.47067299485206604
1788108366574135800,4.9651357421875,0.6023359894752502,0.13523000478744507,-0.3139899969100952
1788108366584239400,4.9752392578125,0.4383929967880249,0.09919600188732147,-0.060940999537706375
1788108366594340900,4.9853408203125,0.3411650061607361,-0.008616000413894653,0.09061899781227112
1788108366604433700,4.99543359375,0.6902959942817688,-0.023079000413417816,-0.006519000045955181
1788108366614520600,5.0055205078125,0.961139976978302,-0.04622900113463402,-0.057583998888731
1788108366624610000,5.015610107421875,1.0579359531402588,-0.07785099744796753,-0.03374499827623367
1788108366634693000,5.025693115234375,0.8562759757041931,-0.019610999152064323,0.023094000294804573
1788108366644788500,5.03578857421875,0.4473240077495575,-0.0784590020775795,0.1112930029630661
1788108366654870800,5.045870849609375,0.24084100127220154,-0.05572099983692169,0.21359500288963318
1788108366664965400,5.05596533203125,0.24247300624847412,-0.061507001519203186,0.222788006067276
1788108366675059000,5.066058837890625,0.25526198744773865,-0.19639599323272705,0.2682740092277527
1788108366685155300,5.0761552734375,0.4966840147972107,-0.3296769857406616,0.39311501383781433
1788108366695243300,5.0862431640625,0.653095006942749,-0.48688599467277527,0.5398060083389282
1788108366705339000,5.0963388671875,1.0854560136795044,-0.5802630186080933,0.7089589834213257
1788108366715434000,5.10643408203125,1.193861961364746,-0.6458200216293335,0.5643929839134216
1788108366725531100,5.11653125,1.3086669445037842,-0.7123669981956482,0.5275189876556396
1788108366735609000,5.126609130859375,0.15843400359153748,-0.35966798663139343,0.7361800074577332
1788108366745700400,5.136700439453125,0.6379860043525696,-0.5487329959869385,0.5243880152702332
1788108366755791600,5.14679150390625,0.2628819942474365,-0.394912987947464,0.36105599999427795
1788108366765881900,5.1568818359375,-0.18473400175571442,-0.26385098695755005,0.060871999710798264
1788108366775967500,5.166967529296875,-0.712224006652832,-0.16116799414157867,-0.24341000616550446
1788108366786056200,5.17705615234375,-1.0805670022964478,0.0628030002117157,-0.48844099044799805
1788108366796142300,5.187142333984375,-1.4062689542770386,-0.035569000989198685,-0.3644010126590729
1788108366806267000,5.197266845703125,-1.1354140043258667,-0.15862800180912018,-0.1998160034418106
1788108366816357000,5.207357177734375,-0.5034850239753723,-0.2933030128479004,-0.0791030004620552
1788108366826451500,5.217451416015625,0.24021799862384796,-0.47335299849510193,0.05414599925279617
1788108366836597800,5.22759765625,1.1687040328979492,-0.5382869839668274,0.011423000134527683
1788108366846686500,5.2376865234375,1.659559965133667,-0.6198449730873108,0.03854599967598915
1788108366856784100,5.2477841796875,1.700063943862915,-0.5937590003013611,0.13791599869728088
1788108366866879000,5.25787890625,1.484863042831421,-0.4995749890804291,0.1544180065393448
1788108366876974300,5.267974365234375,1.033964991569519,-0.5106019973754883,0.16092300415039062
1788108366887060500,5.278060546875,0.5830439925193787,-0.4853380024433136,0.137580007314682
1788108366897152300,5.28815234375,0.2639569938182831,-0.5705810189247131,0.14867499470710754
1788108366907242200,5.2982421875,2.126526117324829,-0.682761013507843,0.041404999792575836
1788108366917331200,5.308331298828125,-0.3764350116252899,-0.22671400010585785,-0.15987500548362732
1788108366927421000,5.3184208984375,-0.3207409977912903,-0.3963499963283539,0.58542400598526
1788108366937514500,5.328514404296875,1.7604689598083496,-0.3394150137901306,0.3342919945716858
1788108366947600100,5.33860009765625,1.5732300281524658,-0.3795880079269409,0.16190500557422638
1788108366957692700,5.348692626953125,2.122562885284424,-0.225040003657341,0.3166309893131256
1788108366967791400,5.358791259765625,1.4697929620742798,-0.13837499916553497,0.2879140079021454
1788108366977883400,5.36888330078125,0.4611459970474243,0.022245999425649643,0.247979998588562
1788108366987978000,5.37897802734375,-0.6231259703636169,0.056070998311042786,0.26377901434898376
1788108366998068000,5.38906787109375,-1.3107750415802002,0.11256600171327591,0.2825399935245514
1788108367008158700,5.39915869140625,-1.5776029825210571,0.03744199872016907,0.2259189933538437
1788108367018249700,5.409249755859375,-1.6665810346603394,0.046546000987291336,0.0718419998884201
1788108367028350200,5.41935009765625,-1.3204699754714966,-0.13278500735759735,0.1464349925518036
1788108367038446300,5.4294462890625,-0.7259349822998047,-0.2598310112953186,0.3174319863319397
1788108367048537000,5.439537109375,-0.3564470112323761,-0.3141449987888336,0.32555699348449707
1788108367058625800,5.449625732421875,-0.1634490042924881,-0.3595010042190552,0.23584499955177307
1788108367068723700,5.4597236328125,-0.11368799954652786,-0.35540199279785156,0.10914000123739243
1788108367078824200,5.46982421875,-0.27404001355171204,-0.2922700047492981,-0.006909999996423721
1788108367088915000,5.4799150390625,-0.6551229953765869,-0.316226989030838,-0.02028300054371357
1788108367099000300,5.490000244140625,-1.0121209621429443,-0.38033801317214966,0.003628999926149845
1788108367109094400,5.500094482421875,-1.1217889785766602,-0.4049519896507263,-0.08845499902963638
1788108367119185400,5.510185302734375,-0.944911003112793,-0.5101150274276733,-0.18841999769210815
1788108367129268200,5.520268310546875,-0.5031769871711731,-0.564674973487854,-0.36232998967170715
1788108367139364000,5.530364013671875,0.06233999878168106,-0.5955700278282166,-0.27433300018310547
1788108367149456100,5.5404560546875,0.5358700156211853,-0.6079750061035156,0.023205000907182693
1788108367159542000,5.5505419921875,0.8151310086250305,-0.6731879711151123,0.37966200709342957
1788108367169631700,5.5606318359375,0.5467990040779114,-0.6313819885253906,0.637158989906311
1788108367179724500,5.570724609375,0.4549559950828552,-0.508063018321991,0.6070280075073242
1788108367189818000,5.580818115234375,0.3792409896850586,-0.42974498867988586,0.6808199882507324
1788108367199909400,5.590909423828125,-0.29303500056266785,-0.3373219966888428,0.7227389812469482
1788108367210003000,5.6010029296875,-1.0522149801254272,-0.1547749936580658,0.4956659972667694
1788108367220110600,5.611110595703125,-1.7113310098648071,-0.13549700379371643,0.4990530014038086
1788108367230201300,5.621201416015625,-1.86552095413208,-0.07651399821043015,0.39557701349258423
1788108367240292600,5.631292724609375,-1.817628026008606,-0.1391039937734604,0.48213499784469604
1788108367250387700,5.6413876953125,-1.493298053741455,-0.2610340118408203,0.721688985824585
1788108367260483800,5.65148388671875,-0.7784799933433533,-0.32798999547958374,0.8370069861412048
1788108367270561300,5.661561279296875,-0.1807059943675995,-0.40122199058532715,0.865568995475769
1788108367280667000,5.6716669921875,0.15369799733161926,-0.4763219952583313,0.8186929821968079
1788108367290762800,5.6817626953125,0.26024800539016724,-0.46918800473213196,0.7170600295066833
1788108367300863500,5.691863525390625,0.056324999779462814,-0.4471839964389801,0.637902021408081
1788108367310957600,5.70195751953125,-0.2843579947948456,-0.4544700086116791,0.5304880142211914
1788108367321053400,5.712053466796875,-0.4131219983100891,-0.42424601316452026,0.42425599694252014
1788108367331140600,5.722140625,-0.38158300518989563,-0.40613698959350586,0.3414030075073242
1788108367341229300,5.732229248046875,-0.11428599804639816,-0.4265260100364685,0.3731429874897003
1788108367351327200,5.7423271484375,0.12677599489688873,-0.43183499574661255,0.38557299971580505
1788108367361411800,5.752411865234375,0.2071869969367981,-0.42236900329589844,0.5204070210456848
1788108367371501300,5.762501220703125,0.06722500175237656,-0.4681150019168854,0.6008989810943604
1788108367381600000,5.77260009765625,0.052104998379945755,-0.5355089902877808,0.6551979780197144
1788108367391700500,5.782700439453125,-0.1474969983100891,-0.6929479837417603,0.7300050258636475
1788108367401798100,5.792798095703125,-0.4588479995727539,-0.7409729957580566,0.7957450151443481
1788108367411886600,5.802886474609375,-0.4711669981479645,-0.8878819942474365,0.9600949883460999
1788108367421980700,5.812980712890625,-0.21046200394630432,-0.8314809799194336,0.9088720083236694
1788108367432070000,5.82306982421875,-0.13263599574565887,-0.7853760123252869,0.7098860144615173
1788108367442160600,5.83316064453125,-0.0606359988451004,-0.7571070194244385,0.467397004365921
1788108367452261000,5.84326123046875,-0.0787850022315979,-0.8381419777870178,0.25316300988197327
1788108367462361000,5.853361083984375,-0.43991199135780334,-0.7855619788169861,0.16280899941921234
1788108367472453000,5.863453125,-0.6164219975471497,-0.713096022605896,0.1368349939584732
1788108367482540500,5.87354052734375,-0.766294002532959,-0.7724909782409668,0.22877299785614014
1788108367492632800,5.8836328125,-0.7971879839897156,-0.7455819845199585,0.4201210141181946
1788108367502727400,5.8937275390625,-0.7987319827079773,-0.7138029932975769,0.5404679775238037
1788108367512822000,5.903822021484375,-0.21728600561618805,-0.7355809807777405,0.6884170174598694
1788108367522911500,5.913911376953125,0.30587899684906006,-0.7773079872131348,0.7738019824028015
1788108367532993800,5.923993896484375,1.0257899761199951,-0.8211179971694946,0.7603499889373779
1788108367543088000,5.934088134765625,1.5253809690475464,-0.8602589964866638,0.7505589723587036
1788108367553168400,5.94416845703125,1.7899399995803833,-0.856669008731842,0.7535319924354553
1788108367563260000,5.954260009765625,1.92781400680542,-0.8616719841957092,0.9094979763031006
1788108367573353200,5.964353271484375,1.9711860418319702,-0.7637580037117004,0.8624510169029236
1788108367583442700,5.974442626953125,1.5168260335922241,-0.5851100087165833,0.6081010103225708
1788108367593531600,5.98453173828125,0.8886280059814453,-0.4322179853916168,0.36880001425743103
1788108367603616800,5.99461669921875,0.1153310015797615,-0.29145899415016174,0.15443800389766693
1788108367613702000,6.004701904296875,-0.1496800035238266,-0.16572299599647522,0.04060399904847145
1788108367623795200,6.014795166015625,-0.4185529947280884,-0.22422899305820465,-0.02981499955058098
1788108367633881600,6.024881591796875,-0.6654980182647705,-0.19473299384117126,0.06911399960517883
1788108367643972400,6.034972412109375,-0.5026959776878357,-0.37713098526000977,0.26414600014686584
1788108367654058200,6.045058349609375,-0.46217599511146545,-0.42059099674224854,0.30132800340652466
1788108367664153300,6.0551533203125,-0.02587299980223179,-0.44237300753593445,0.289667010307312
1788108367674243000,6.0652431640625,0.4921570122241974,-0.542972981929779,0.21108999848365784
1788108367684339700,6.075339599609375,0.5019699931144714,-0.6612030267715454,0.289328008890152
1788108367694430000,6.085429931640625,0.6932179927825928,-0.8215460181236267,0.11416400223970413
1788108367704533500,6.095533447265625,0.837706983089447,-0.8854039907455444,-0.11099100112915039
1788108367714626800,6.105626708984375,0.8336229920387268,-1.0225199460983276,-0.29429298639297485
1788108367724726800,6.115726806640625,0.6521070003509521,-1.0837700366973877,-0.3998570144176483
1788108367734825700,6.12582568359375,0.5282009840011597,-1.137213945388794,-0.4907990097999573
1788108367744904700,6.13590478515625,0.5396080017089844,-1.1504549980163574,-0.5993199944496155
1788108367755001300,6.14600146484375,0.4872860014438629,-1.183858036994934,-0.625993013381958
1788108367765089000,6.156089111328125,0.2821660041809082,-1.2144570350646973,-0.5867739915847778
1788108367775185000,6.166184814453125,0.08152800053358078,-1.206099033355713,-0.5797929763793945
1788108367785269000,6.17626904296875,-0.2551310062408447,-1.2003870010375977,-0.43240800499916077
1788108367795359500,6.186359375,-0.6942610144615173,-1.126160979270935,-0.3387629985809326
1788108367805451500,6.196451416015625,-0.7132800221443176,-1.0673409700393677,-0.41155698895454407
1788108367815548200,6.206548095703125,-0.9739999771118164,-0.8894879817962646,-0.6119019985198975
1788108367825641700,6.216641845703125,-1.276515007019043,-0.8118780255317688,-0.7399280071258545
1788108367835735800,6.22673583984375,-1.302232027053833,-0.8258609771728516,-0.7834129929542542
1788108367845831700,6.236831787109375,-1.502092957496643,-0.7684490084648132,-0.7261120080947876
1788108367866014200,6.25701416015625,-1.3564759492874146,-0.8050370216369629,-0.35636699199676514
1788108367876104700,6.267104736328125,-0.9252269864082336,-0.8213719725608826,-0.27796798944473267
1788108367886203100,6.277203125,-0.4642930030822754,-0.8570629954338074,-0.2856619954109192
1788108367896296700,6.287296630859375,-0.20965400338172913,-0.6841260194778442,-0.4449700117111206
1788108367906380800,6.297380859375,0.11096200346946716,-0.720209002494812,-0.36472898721694946
1788108367916471300,6.30747119140625,0.22427299618721008,-0.6771960258483887,-0.08561699837446213
1788108367926564000,6.317564208984375,0.08153100311756134,-0.5801900029182434,0.06716500222682953
1788108367936650000,6.32764990234375,-0.06714200228452682,-0.5645290017127991,0.32878899574279785
1788108367946756000,6.337756103515625,-0.06617899984121323,-0.46831199526786804,0.5591310262680054
1788108367956849000,6.347848876953125,0.04546299949288368,-0.5564069747924805,0.858519971370697
1788108367966948600,6.357948486328125,0.343205988407135,-0.5122389793395996,0.9583479762077332
1788108367977039400,6.368039306640625,0.8324090242385864,-0.549032986164093,1.0333290100097656
1788108367987137800,6.3781376953125,1.328436017036438,-0.6097170114517212,1.2338570356369019
1788108367997229300,6.388229248046875,1.887963056564331,-0.5627340078353882,1.3592840433120728
1788108368007324700,6.39832470703125,2.418626070022583,-0.5640760064125061,1.5119140148162842
1788108368017410800,6.408410888671875,2.402735948562622,-0.548524022102356,1.6346750259399414
1788108368027507200,6.418507080078125,2.1276609897613525,-0.4155769944190979,1.480059027671814
1788108368037598200,6.42859814453125,1.6502180099487305,-0.42110100388526917,1.326781988143921
1788108368047682800,6.438682861328125,0.8083810210227966,-0.20312200486660004,1.0651509761810303
1788108368057779000,6.448779052734375,-0.11225300282239914,-0.10039199888706207,1.0133750438690186
1788108368067865900,6.458865966796875,-0.7765259742736816,-0.008190000429749489,0.9616039991378784
1788108368077955600,6.46895556640625,-1.035277009010315,0.054430000483989716,0.9172719717025757
1788108368088039400,6.479039306640625,-1.0767199993133545,-0.06694599986076355,0.9946500062942505
1788108368098130000,6.4891298828125,-0.6910899877548218,-0.14236600697040558,1.0797070264816284
1788108368108218400,6.49921826171875,-0.3425700068473816,-0.24512700736522675,1.0701149702072144
1788108368118313000,6.50931298828125,-0.032290998846292496,-0.3749920129776001,0.9603779911994934
1788108368128407800,6.51940771484375,0.3544340133666992,-0.4669420123100281,0.8156890273094177
1788108368138502700,6.529502685546875,0.48046600818634033,-0.5735629796981812,0.6850249767303467
1788108368148586800,6.539586669921875,0.3734610080718994,-0.6951259970664978,0.6323599815368652
1788108368168793600,6.559793701171875,0.1384889930486679,-1.0478520393371582,0.789385974407196
1788108368178885400,6.569885498046875,0.007981999777257442,-1.1081340312957764,0.9066600203514099
1788108368188971300,6.57997119140625,0.2946549952030182,-1.1257590055465698,1.0183249711990356
1788108368199058200,6.59005810546875,0.6265230178833008,-1.119333028793335,0.9842219948768616
1788108368209155600,6.600155517578125,0.7747370004653931,-1.2154829502105713,0.8463730216026306
1788108368219248000,6.610248046875,0.6192709803581238,-1.1651170253753662,0.6873019933700562
1788108368229332500,6.62033251953125,0.24555200338363647,-1.1152169704437256,0.523705005645752
1788108368239425300,6.63042529296875,-0.22478799521923065,-1.0565439462661743,0.4672209918498993
1788108368249522200,6.640522216796875,-0.7088729739189148,-0.9038699865341187,0.36155200004577637
1788108368259625000,6.650625,-1.0984810590744019,-0.8243539929389954,0.37959200143814087
1788108368269719800,6.6607197265625,-1.2096149921417236,-0.7868310213088989,0.5520399808883667
1788108368279803600,6.6708037109375,-1.3983570337295532,-0.7344070076942444,0.7415189743041992
1788108368289895200,6.680895263671875,-1.5190609693527222,-0.8036999702453613,0.9683240056037903
1788108368299982800,6.69098291015625,-1.4310309886932373,-0.8192989826202393,1.1682660579681396
1788108368310072800,6.70107275390625,-1.0504300594329834,-0.897487998008728,1.1729979515075684
1788108368320162300,6.711162353515625,-0.5459679961204529,-0.9459969997406006,1.0144259929656982
1788108368330258400,6.721258544921875,0.13014699518680573,-1.0095829963684082,0.9938809871673584
1788108368340349000,6.731348876953125,0.6763780117034912,-1.0465970039367676,1.0479589700698853
1788108368350444000,6.741444091796875,0.9447810053825378,-0.9756749868392944,1.0688899755477905
1788108368360538400,6.751538330078125,0.9082099795341492,-0.9102939963340759,1.0647460222244263
1788108368370642700,6.761642578125,0.5046390295028687,-0.7871500253677368,0.9741489887237549
1788108368380743000,6.771742919921875,0.4244700074195862,-0.68402099609375,0.8941969871520996
1788108368390832600,6.78183251953125,0.1713390052318573,-0.5743240118026733,0.7999550104141235
1788108368400928500,6.791928466796875,-0.07863400131464005,-0.5211809873580933,0.7555140256881714
1788108368411062000,6.80206201171875,0.028186000883579254,-0.5881509780883789,0.7773929834365845
1788108368421154300,6.812154296875,0.08394400030374527,-0.5535169839859009,0.7779300212860107
1788108368431251700,6.822251708984375,0.11270599812269211,-0.5677130222320557,0.8055350184440613
1788108368441336300,6.83233642578125,0.02188899926841259,-0.5580000281333923,0.8198379874229431
1788108368451435300,6.842435302734375,-0.08400300145149231,-0.5242710113525391,0.7115709781646729
1788108368461520000,6.852519775390625,-0.1834309995174408,-0.5139189958572388,0.5968859791755676
1788108368471624700,6.862624755859375,-0.2179879993200302,-0.5452309846878052,0.38113799691200256
1788108368481717200,6.87271728515625,-0.10688900202512741,-0.6076880097389221,0.34080401062965393
1788108368491811600,6.8828115234375,-0.02476700022816658,-0.7014070153236389,0.3069480061531067
1788108368501893000,6.89289306640625,0.09875299781560898,-0.797353982925415,0.3527640104293823
1788108368511989500,6.902989501953125,0.38730698823928833,-0.9032610058784485,0.388139009475708
1788108368522076000,6.913075927734375,0.7635419964790344,-0.9963679909706116,0.508197009563446
1788108368532172500,6.923172607421875,1.2661279439926147,-1.1313339471817017,0.673088014125824
1788108368542270000,6.93327001953125,1.7607630491256714,-1.1650960445404053,0.7590529918670654
1788108368552366800,6.943366943359375,2.149622917175293,-1.1863670349121094,0.9076520204544067
1788108368562456000,6.9534560546875,2.4565489292144775,-1.2487390041351318,1.0521600246429443
1788108368572541400,6.96354150390625,2.6216800212860107,-1.175510048866272,1.093845009803772
1788108368582629000,6.973629150390625,2.4654788970947266,-1.0943900346755981,1.022905945777893
1788108368602816800,6.993816650390625,1.2067159414291382,-0.751708984375,0.9526219964027405
1788108368612904700,7.00390478515625,0.3349829912185669,-0.5561609864234924,0.9392049908638
1788108368622986000,7.013986083984375,-0.4549660086631775,-0.4059469997882843,0.9732879996299744
1788108368633073400,7.024073486328125,-0.9311389923095703,-0.2217250019311905,0.9302399754524231
1788108368643161600,7.03416162109375,-1.1593250036239624,-0.10595999658107758,0.8108909726142883
1788108368653251600,7.04425146484375,-1.3473399877548218,-0.016749000176787376,0.6614519953727722
1788108368663330600,7.05433056640625,-1.1561030149459839,0.10717199742794037,0.3911150097846985
1788108368673424000,7.064423828125,-0.8656190037727356,0.01881900057196617,0.3378869891166687
1788108368683514600,7.0745146484375,-0.3140360116958618,-0.08737699687480927,0.3838309943675995
1788108368693604000,7.08460400390625,0.38554900884628296,-0.17939400672912598,0.3654339909553528
1788108368703691300,7.094691162109375,0.8379039764404297,-0.2988330125808716,0.3091660141944885
1788108368713788400,7.104788330078125,1.273764967918396,-0.6130279898643494,0.49571800231933594
1788108368723869200,7.114869140625,1.9506369829177856,-0.8849729895591736,0.7714809775352478
1788108368733962000,7.1249619140625,2.6007330417633057,-1.0820549726486206,0.9453120231628418
1788108368744049700,7.135049560546875,3.1884899139404297,-1.3223350048065186,1.0325720310211182
1788108368754146000,7.14514599609375,3.684499979019165,-1.5048209428787231,1.0328619480133057
1788108368764231700,7.155231689453125,3.6706600189208984,-1.5769959688186646,0.9366379976272583
1788108368774328000,7.165328125,3.097485065460205,-1.6210670471191406,0.8738110065460205
1788108368784421600,7.175421630859375,2.091507911682129,-1.6946150064468384,0.9364510178565979
1788108368794518300,7.185518310546875,1.0149459838867188,-1.6481009721755981,0.9424700140953064
1788108368804608800,7.19560888671875,0.07683400064706802,-1.5705950260162354,0.9405549764633179
1788108368814709000,7.205708984375,-0.5857319831848145,-1.4954370260238647,0.9639719724655151
1788108368824806000,7.215805908203125,-1.093737006187439,-1.4886219501495361,0.9475989937782288
1788108368834955500,7.22595556640625,-1.2713619470596313,-1.4579590559005737,0.9080119729042053
1788108368845044200,7.236044189453125,-1.395495057106018,-1.4587340354919434,0.901964008808136
1788108368855138600,7.246138671875,-1.2293299436569214,-1.5830039978027344,1.005260944366455
1788108368865233000,7.25623291015625,-1.1731280088424683,-1.6020890474319458,1.1753809452056885
1788108368875328800,7.266328857421875,-0.9703670144081116,-1.7095340490341187,1.2967950105667114
1788108368885413000,7.2764130859375,-0.7960010170936584,-1.7676329612731934,1.3104549646377563
1788108368895507200,7.286507080078125,-0.6896939873695374,-1.7137500047683716,1.2034939527511597
1788108368905591000,7.296591064453125,-0.8216570019721985,-1.7585179805755615,1.1847039461135864
1788108368915684400,7.306684326171875,-1.0206329822540283,-1.746698021888733,1.265584945678711
1788108368925786000,7.3167861328125,-1.2784169912338257,-1.7094700336456299,1.425784945487976
1788108368935875300,7.326875244140625,-1.396456003189087,-1.6670880317687988,1.5451209545135498
1788108368945977000,7.33697705078125,-1.3957929611206055,-1.6949410438537598,1.6024630069732666
1788108368956065500,7.3470654296875,-1.2128609418869019,-1.724861979484558,1.6030060052871704
1788108368966160400,7.357160400390625,-1.0708680152893066,-1.7186980247497559,1.4397939443588257
1788108368976263200,7.36726318359375,-1.0726100206375122,-1.6874359846115112,1.3799519538879395
1788108368986355000,7.37735498046875,-1.1344590187072754,-1.7310760021209717,1.326153039932251
1788108368996447000,7.387447021484375,-1.1804909706115723,-1.7600799798965454,1.3474270105361938
1788108369006537200,7.397537109375,-1.27497398853302,-1.6989250183105469,1.2186470031738281
1788108369016631300,7.40763134765625,-1.375588059425354,-1.6872450113296509,1.1218160390853882
1788108369026734000,7.417734130859375,-1.375331997871399,-1.6995199918746948,1.0782469511032104
1788108369036850000,7.427849853515625,-1.2625759840011597,-1.6154849529266357,0.9330670237541199
1788108369046935800,7.437935791015625,-1.010517954826355,-1.4954429864883423,0.749580979347229
1788108369057027800,7.44802783203125,-0.728646993637085,-1.4142789840698242,0.6512280106544495
1788108369067112000,7.45811181640625,-0.36795398592948914,-1.403291940689087,0.6746919751167297
1788108369077205000,7.468205078125,0.02009500004351139,-1.2433730363845825,0.6861270070075989
1788108369087295700,7.478295654296875,0.277989000082016,-1.043995976448059,0.754239022731781
1788108369097382400,7.48838232421875,0.5485720038414001,-0.8240939974784851,0.7370219826698303
1788108369107469000,7.498468994140625,0.7650719881057739,-0.6261709928512573,0.6284480094909668
1788108369117576400,7.508576416015625,0.7945119738578796,-0.4356839954853058,0.5567529797554016
1788108369127668000,7.51866796875,0.7216690182685852,-0.30411699414253235,0.6180340051651001
1788108369137757000,7.5287568359375,0.7031279802322388,-0.2343199998140335,0.7307909727096558
1788108369147848000,7.538847900390625,0.8036490082740784,-0.20608599483966827,0.7968840003013611
1788108369157937400,7.5489375,0.9397860169410706,-0.16551600396633148,0.701134979724884
1788108369168018000,7.559017822265625,1.007017970085144,-0.18873900175094604,0.6686530113220215
1788108369178103800,7.569103759765625,1.0674699544906616,-0.21859900653362274,0.6521729826927185
1788108369188197600,7.57919775390625,1.1106760501861572,-0.2567870020866394,0.6847230195999146
1788108369198294300,7.589294189453125,0.9780489802360535,-0.1363310068845749,0.4232249855995178
1788108369208380700,7.599380615234375,0.9182019829750061,-0.01692499965429306,0.09097500145435333
1788108369218478800,7.609478759765625,0.7200139760971069,0.16703900694847107,-0.24333399534225464
1788108369228567300,7.6195673828125,0.25380799174308777,0.24297499656677246,-0.3204370141029358
1788108369238662700,7.62966259765625,-0.2793479859828949,0.2778320014476776,-0.2993749976158142
1788108369248755000,7.6397548828125,-0.6098690032958984,0.18622800707817078,-0.1545179933309555
1788108369258857700,7.649857666015625,-0.7810320258140564,0.03318599984049797,0.0853860005736351
1788108369268960000,7.6599599609375,-0.40814900398254395,-0.049261000007390976,0.2311840057373047
1788108369279050800,7.67005078125,0.15374800562858582,-0.19225899875164032,0.32608601450920105
1788108369289145000,7.68014501953125,0.6624680161476135,-0.3440200090408325,0.33783701062202454
1788108369299234300,7.690234375,0.8793150186538696,-0.46751201152801514,0.23825499415397644
1788108369309329000,7.700328857421875,0.9683380126953125,-0.5321630239486694,0.024018999189138412
1788108369319420000,7.710419921875,0.7745770215988159,-0.5557870268821716,-0.09056899696588516
1788108369329508600,7.720508544921875,0.3025610148906708,-0.6357390284538269,-0.22942200303077698
1788108369339603200,7.730603271484375,-0.27917900681495667,-0.6220409870147705,-0.36884400248527527
1788108369349696500,7.740696533203125,-0.850396990776062,-0.6050750017166138,-0.4390990138053894
1788108369369880000,7.760880126953125,-1.6881799697875977,-0.5492740273475647,-0.40437400341033936
1788108369379967700,7.7709677734375,-1.8508540391921997,-0.4908599853515625,-0.46614500880241394
1788108369390063900,7.78106396484375,-1.965878963470459,-0.4524640142917633,-0.6011260151863098
1788108369400151800,7.79115185546875,-2.024960994720459,-0.44269299507141113,-0.7247689962387085
1788108369410249500,7.80124951171875,-1.984876036643982,-0.4766960144042969,-0.8258659839630127
1788108369420344000,7.811343994140625,-2.0141539573669434,-0.5269349813461304,-0.8210650086402893
1788108369430436900,7.821436767578125,-1.8609620332717896,-0.45645400881767273,-0.778892993927002
1788108369440522200,7.831522216796875,-1.8017109632492065,-0.50239098072052,-0.6708549857139587
1788108369450617900,7.841617919921875,-1.6332550048828125,-0.5331659913063049,-0.5666769742965698
1788108369460709400,7.85170947265625,-1.148846983909607,-0.5538679957389832,-0.4802820086479187
1788108369470821400,7.8618212890625,-0.7565839886665344,-0.5644930005073547,-0.5255079865455627
1788108369480903700,7.871903564453125,-0.4856410026550293,-0.5463089942932129,-0.4973660111427307
1788108369491000000,7.882,-0.25484699010849,-0.5153669714927673,-0.4101940095424652
1788108369501090800,7.8920908203125,0.15335999429225922,-0.38405001163482666,-0.31053099036216736
1788108369511185700,7.902185546875,0.629688024520874,-0.236953005194664,-0.2244119942188263
1788108369521281500,7.912281494140625,1.1988309621810913,-0.07858700305223465,-0.19597800076007843
1788108369531379000,7.92237890625,1.8937760591506958,0.01190400030463934,-0.1251939982175827
1788108369541465300,7.93246533203125,2.4387049674987793,0.1583849936723709,-0.1186240017414093
1788108369551554000,7.942553955078125,2.538335084915161,0.33732500672340393,-0.17535200715065002
1788108369561643500,7.9526435546875,2.2879810333251953,0.4971430003643036,-0.253728985786438
1788108369571738400,7.96273828125,1.6935139894485474,0.592769980430603,-0.23932400345802307
1788108369581832400,7.97283251953125,1.2945829629898071,0.6199920177459717,-0.11926600337028503
1788108369591927300,7.98292724609375,1.2770589590072632,0.7166709899902344,-0.1513579934835434
1788108369602017300,7.993017333984375,1.4857020378112793,0.6919569969177246,-0.26090699434280396
1788108369612115000,8.003114990234375,1.6463890075683594,0.5972669720649719,-0.4617759883403778
1788108369622207200,8.013207275390625,1.754591941833496,0.2956419885158539,-0.5368620157241821
1788108369632304600,8.0233046875,1.7123960256576538,0.045166000723838806,-0.5657020211219788
1788108369642400300,8.033400146484375,1.7091259956359863,-0.21866099536418915,-0.46696099638938904
1788108369652546800,8.043546875,1.5963269472122192,-0.563497006893158,-0.30072298645973206
1788108369662675000,8.053675048828126,1.534561038017273,-0.8498169779777527,-0.30667099356651306
1788108369672769800,8.063769775390625,1.422078013420105,-1.1330840587615967,-0.33873000741004944
1788108369682864000,8.073864013671875,1.1280690431594849,-1.3333300352096558,-0.4981899857521057
1788108369692946200,8.0839462890625,0.7559459805488586,-1.6035230159759521,-0.6779000163078308
1788108369703039700,8.094039794921875,0.23406900465488434,-1.774425983428955,-0.926334023475647
1788108369713144300,8.104144287109374,-0.4217059910297394,-1.972430944442749,-1.0716480016708374
1788108369723237000,8.114237060546875,-1.0811320543289185,-2.1498639583587646,-1.112982988357544
1788108369733328600,8.12432861328125,-1.5823309421539307,-2.2683639526367188,-1.0333499908447266
1788108369743423700,8.134423828125,-2.0843420028686523,-2.3676910400390625,-0.9064810276031494
1788108369753508000,8.144508056640625,-2.40079402923584,-2.323599100112915,-0.8132579922676086
1788108369763599400,8.154599365234375,-2.7045769691467285,-2.3024120330810547,-0.6723359823226929
1788108369773690400,8.1646904296875,-2.9415769577026367,-2.248049020767212,-0.4662329852581024
1788108369783781400,8.174781494140625,-3.066787004470825,-2.2234530448913574,-0.20408600568771362
1788108369793858300,8.1848583984375,-2.7988440990448,-2.1544909477233887,-0.08995699882507324
1788108369803950300,8.194950439453125,-2.3890159130096436,-2.0329599380493164,-0.04807800054550171
1788108369814038000,8.2050380859375,-1.8829230070114136,-1.9164350032806396,0.17372100055217743
1788108369824122400,8.215122314453126,-1.5063979625701904,-1.7206670045852661,0.370371013879776
1788108369834210300,8.225210205078126,-1.0410350561141968,-1.454637050628662,0.7167860269546509
1788108369844304600,8.2353046875,-0.5271570086479187,-1.1577579975128174,1.0567489862442017
1788108369854400300,8.245400146484375,0.03130500018596649,-0.7762330174446106,1.438099980354309
1788108369864498000,8.255497802734375,0.39840200543403625,-0.31191501021385193,1.6994520425796509
1788108369874593300,8.26559326171875,0.5662509799003601,0.02377999946475029,1.7331700325012207
1788108369884690400,8.2756904296875,0.7182549834251404,0.3757629990577698,1.5605239868164062
1788108369894788400,8.285788330078125,0.9938979744911194,0.6864500045776367,1.371235966682434
1788108369904882000,8.2958818359375,1.3553839921951294,0.8882719874382019,1.4701370000839233
1788108369914974700,8.305974609375,2.0179009437561035,1.054726004600525,1.7633379697799683
1788108369925071600,8.316071533203125,2.744749069213867,1.1761540174484253,2.0657858848571777
1788108369935164200,8.3261640625,3.6000869274139404,1.2709490060806274,2.246246099472046
1788108369945252600,8.336252685546874,4.340645790100098,1.3351409435272217,2.0611350536346436
1788108369955345200,8.34634521484375,4.871323108673096,1.4871710538864136,1.5954409837722778
1788108369965442800,8.35644287109375,5.023712158203125,1.7310080528259277,1.1760499477386475
1788108369975537200,8.366537109375,4.6741180419921875,1.913794994354248,0.8661730289459229
1788108369985636400,8.37663623046875,4.4333062171936035,2.124079942703247,0.5597569942474365
1788108369995721500,8.386721435546875,4.304923057556152,2.1976490020751953,0.6860520243644714
1788108370005817000,8.396817138671874,4.510194778442383,2.1820058822631836,1.1695959568023682
1788108370015900200,8.406900146484375,4.845685005187988,2.129931926727295,1.6141510009765625
1788108370025996000,8.41699609375,5.615810871124268,1.956529974937439,1.8771719932556152
1788108370036088600,8.427088623046876,6.826568126678467,1.8228299617767334,1.7638319730758667
1788108370046189800,8.43718994140625,7.831621170043945,1.6806060075759888,1.4481749534606934
1788108370056280300,8.4472802734375,8.366891860961914,1.3368899822235107,1.2566239833831787
1788108370066375000,8.457375,8.616838455200195,1.0676029920578003,1.28860604763031
1788108370076460000,8.4674599609375,8.40867805480957,0.9043629765510559,1.2637779712677002
1788108370086558000,8.477557861328124,7.357807159423828,0.7208349704742432,1.1781619787216187
1788108370096652800,8.48765283203125,5.869916915893555,0.5512949824333191,0.9935489892959595
1788108370106751500,8.49775146484375,4.41243314743042,0.3837980031967163,0.74794602394104
1788108370116845800,8.507845703125,2.8738510608673096,0.24240699410438538,0.41659098863601685
1788108370126949000,8.51794921875,1.3609199523925781,0.08379100263118744,0.15128299593925476
1788108370137040100,8.5280400390625,-0.09655100107192993,-0.14739100635051727,0.01472499966621399
1788108370147141400,8.538141357421875,-1.4387060403823853,-0.3273009955883026,-0.16364799439907074
1788108370157232000,8.548232177734375,-2.50404691696167,-0.48829400539398193,-0.21769699454307556
1788108370167336400,8.55833642578125,-3.431885004043579,-0.6548280119895935,-0.26546400785446167
1788108370177419800,8.568419677734376,-4.2085371017456055,-0.8994250297546387,-0.2673029899597168
1788108370187514000,8.57851416015625,-4.51910400390625,-1.026926040649414,-0.18478700518608093
1788108370197606400,8.5886064453125,-4.606227874755859,-1.2276370525360107,0.027526000514626503
1788108370207707000,8.598706787109375,-4.690353870391846,-1.566269040107727,0.30039700865745544
1788108370217792000,8.6087919921875,-4.845755100250244,-1.8757070302963257,0.5051209926605225
1788108370237970700,8.628970703125,-5.3297929763793945,-2.6531150341033936,0.4698120057582855
1788108370248059100,8.63905908203125,-5.476437091827393,-2.9241530895233154,0.39631399512290955
1788108370258140400,8.649140380859375,-5.4295830726623535,-3.1608269214630127,0.35634899139404297
1788108370268233200,8.659233154296874,-5.159858226776123,-3.3787479400634766,0.32732000946998596
1788108370278318800,8.66931884765625,-4.850176811218262,-3.5409739017486572,0.18112799525260925
1788108370288419300,8.67941943359375,-4.699703216552734,-3.7085258960723877,0.16628199815750122
1788108370298509000,8.689509033203125,-4.798984050750732,-3.9168500900268555,0.23276600241661072
1788108370308603400,8.699603271484374,-5.077020168304443,-4.041461944580078,0.19915199279785156
1788108370318702600,8.70970263671875,-5.198991775512695,-4.03919792175293,0.15039700269699097
1788108370328791600,8.71979150390625,-5.330389022827148,-4.029067039489746,0.19479599595069885
1788108370338885400,8.729885498046874,-5.601378917694092,-3.9061899185180664,0.10835099965333939
1788108370348974800,8.739974853515625,-5.761408805847168,-3.736504077911377,0.15579800307750702
1788108370359060000,8.75006005859375,-5.868159770965576,-3.5176219940185547,0.06388600170612335
1788108370369153000,8.760153076171875,-5.9432759284973145,-3.3519210815429688,-0.03473600000143051
1788108370379248000,8.770248046875,-6.140423774719238,-3.1877329349517822,-0.26838600635528564
1788108370389334800,8.780334716796874,-6.401241779327393,-3.0094940662384033,-0.4378800094127655
1788108370399429400,8.790429443359375,-6.600135803222656,-2.891072988510132,-0.3039180040359497
1788108370409519600,8.80051953125,-6.557775974273682,-2.744133949279785,-0.23285099864006042
1788108370419620600,8.81062060546875,-6.220001220703125,-2.5195069313049316,-0.28820499777793884
1788108370429712000,8.8207119140625,-5.8745551109313965,-2.33821702003479,-0.4440619945526123
1788108370439809800,8.830809814453126,-5.588715076446533,-2.2547860145568848,-0.635267972946167
1788108370449900000,8.840900146484374,-5.349106788635254,-2.1537699699401855,-0.7167019844055176
1788108370460018200,8.85101806640625,-5.3998541831970215,-1.9868719577789307,-0.948065996170044
1788108370470105300,8.861105224609375,-5.416018962860107,-1.855450987815857,-1.0886369943618774
1788108370480198000,8.871197998046876,-5.6260199546813965,-1.6451560258865356,-1.034751057624817
1788108370490290000,8.8812900390625,-5.6744160652160645,-1.5198849439620972,-0.8668569922447205
1788108370500388400,8.891388427734375,-5.626407146453857,-1.302096962928772,-0.906836986541748
1788108370510478300,8.901478271484375,-5.47175407409668,-1.1336309909820557,-1.159909963607788
1788108370520569300,8.9115693359375,-5.271701812744141,-0.9459350109100342,-1.3936220407485962
1788108370530672000,8.921672119140625,-5.142739772796631,-0.7439799904823303,-1.4924800395965576
1788108370540775700,8.931775634765625,-5.140888214111328,-0.46807000041007996,-1.5161960124969482
1788108370550875100,8.941875244140626,-4.997791767120361,-0.18636499345302582,-1.416100025177002
1788108370560968000,8.951968017578125,-4.231122016906738,-0.018129000440239906,-1.166146993637085
1788108370571051800,8.9620517578125,-3.0895650386810303,0.33886298537254333,-1.0626239776611328
1788108370581149400,8.9721494140625,-1.6687179803848267,0.6715949773788452,-0.6712290048599243
1788108370591239400,8.982239501953124,-0.07086600363254547,1.3287570476531982,-0.6204659938812256
1788108370601329000,8.992328857421874,2.0332419872283936,1.8254460096359253,-0.46673399209976196
1788108370611417000,9.0024169921875,4.211357116699219,2.3042240142822266,-0.14519500732421875
1788108370621511000,9.012510986328126,6.328821182250977,2.836169958114624,0.037964001297950745
1788108370631602700,9.022602783203125,8.072983741760254,3.184792995452881,0.35295799374580383
1788108370641696500,9.032696533203126,9.192794799804688,3.615895986557007,0.30312401056289673
1788108370651789000,9.0427890625,9.524812698364258,4.115594863891602,-0.03213199973106384
1788108370661886700,9.05288671875,9.178624153137207,4.563292980194092,-0.30218300223350525
1788108370671982800,9.06298291015625,8.565813064575195,4.89638614654541,-0.255744993686676
1788108370682077400,9.073077392578124,8.237285614013672,5.264334201812744,-0.1498579978942871
1788108370692167400,9.08316748046875,8.020703315734863,5.4682230949401855,-0.055438000708818436
1788108370702259500,9.093259521484375,7.943297863006592,5.5941691398620605,-0.021945999935269356
1788108370712341800,9.103341796875,7.741659164428711,5.516733169555664,-0.16526299715042114
1788108370722436900,9.113436767578126,7.423917770385742,5.106851100921631,-0.017405999824404716
1788108370732533000,9.123532958984375,7.3449249267578125,4.3953142166137695,0.4346520006656647
1788108370742626300,9.133626220703125,7.750613212585449,3.471492052078247,0.9481899738311768
1788108370752720000,9.143719970703126,8.423656463623047,2.4700849056243896,1.6209499835968018
1788108370762803500,9.153803466796875,9.085646629333496,1.6204049587249756,1.9236539602279663
1788108370772891600,9.1638916015625,9.943246841430664,1.0678999423980713,1.6908700466156006
1788108370782984000,9.17398388671875,10.3573637008667,0.779679000377655,1.000769019126892
1788108370793070600,9.184070556640625,9.963815689086914,0.6349250078201294,0.24060100317001343
1788108370803162400,9.194162353515624,8.94074821472168,0.677511990070343,-0.22239799797534943
1788108370813246700,9.204246826171875,7.486001014709473,0.9244120121002197,-0.34143900871276855
1788108370823338500,9.21433837890625,5.268035888671875,1.0936739444732666,-0.3144350051879883
1788108370833422800,9.2244228515625,2.63059401512146,1.1113100051879883,-0.2173510044813156
1788108370843510300,9.23451025390625,0.22171500325202942,1.1913859844207764,-0.32771798968315125
1788108370853592800,9.2445927734375,-1.9221359491348267,1.154088020324707,-0.5140529870986938
1788108370863682800,9.254682861328124,-3.9644179344177246,1.1166449785232544,-0.6270300149917603
1788108370873766100,9.26476611328125,-5.564317226409912,1.066391944885254,-0.7433019876480103
1788108370883855600,9.274855712890625,-6.46113920211792,0.9588860273361206,-0.7009479999542236
1788108370893945900,9.28494580078125,-6.529539108276367,0.6866539716720581,-0.5349199771881104
1788108370904049400,9.29504931640625,-6.113110065460205,0.3030720055103302,-0.07926300168037415
1788108370914147800,9.30514794921875,-5.377933025360107,-0.08644700050354004,0.16664500534534454
1788108370924246300,9.315246337890626,-4.26517915725708,-0.4789240062236786,0.30261901021003723
1788108370934334500,9.32533447265625,-2.994265079498291,-0.8748239874839783,0.4151430130004883
1788108370944429300,9.33542919921875,-2.0274291038513184,-1.246662974357605,0.42216500639915466
1788108370954523400,9.3455234375,-1.4729080200195312,-1.547937035560608,0.5338990092277527
1788108370964621800,9.355621826171875,-1.3891619443893433,-1.7770440578460693,0.6879420280456543
1788108370974717000,9.365717041015625,-2.093017101287842,-1.9798979759216309,1.0425570011138916
1788108370984810800,9.375810791015626,-2.5547099113464355,-1.8738340139389038,1.1880700588226318
1788108370994900200,9.385900146484374,-3.451904058456421,-1.7237440347671509,1.2910720109939575
1788108371005001000,9.3960009765625,-4.314143180847168,-1.489197015762329,1.273218035697937
1788108371015085300,9.406085205078124,-4.960117816925049,-1.2727299928665161,1.1473170518875122
1788108371025185300,9.416185302734375,-5.394556999206543,-0.9967730045318604,0.8951810002326965
1788108371035276300,9.4262763671875,-5.71853494644165,-0.8888199925422668,0.8233420252799988
1788108371045371100,9.43637109375,-5.723620891571045,-0.825967013835907,0.9893019795417786
1788108371055462000,9.4464619140625,-5.300736904144287,-0.8205580115318298,1.0783380270004272
1788108371065552600,9.456552734375,-4.554152965545654,-0.8840569853782654,1.2356599569320679
1788108371075643400,9.466643310546875,-3.572374105453491,-0.960273027420044,1.0233269929885864
1788108371085733400,9.4767333984375,-2.755215883255005,-0.8764359951019287,0.41660401225090027
1788108371095830500,9.48683056640625,-2.0431480407714844,-0.7871649861335754,-0.18643200397491455
1788108371105927700,9.496927734375,-1.2348480224609375,-0.6689479947090149,-0.7576460242271423
1788108371116017200,9.50701708984375,-0.7259349822998047,-0.574720025062561,-1.10099196434021
1788108371126113800,9.51711376953125,-0.3996730148792267,-0.4451729953289032,-1.210832953453064
1788108371136204500,9.52720458984375,-0.18300899863243103,-0.19799299538135529,-1.2281960248947144
1788108371146297600,9.537297607421875,-0.16960999369621277,0.011749000288546085,-1.1914399862289429
1788108371156390700,9.547390625,-0.08587700128555298,0.23263800144195557,-1.1620370149612427
1788108371166482000,9.55748193359375,-0.05341700091958046,0.4241810142993927,-1.1947779655456543
1788108371176578300,9.567578369140625,0.2583340108394623,0.6363549828529358,-1.1868870258331299
1788108371186679600,9.577679443359376,0.7704690098762512,0.7199280261993408,-0.9718430042266846
1788108371196777200,9.587777099609376,1.413195013999939,0.727167010307312,-0.7573710083961487
1788108371206869500,9.597869384765625,2.18937611579895,0.6608499884605408,-0.5814160108566284
1788108371216958500,9.60795849609375,3.041388988494873,0.7969110012054443,-0.603950023651123
1788108371227056600,9.618056640625,3.9117789268493652,0.7086780071258545,-0.5866829752922058
1788108371237157400,9.628157470703124,4.5384440422058105,0.7286800146102905,-0.565949022769928
1788108371247248400,9.638248291015625,4.987119197845459,0.8683909773826599,-0.5959479808807373
1788108371257345300,9.64834521484375,5.248178005218506,1.0469599962234497,-0.555387020111084
1788108371267443500,9.658443359375,4.984186172485352,1.1708179712295532,-0.27764999866485596
1788108371277527000,9.668527099609374,4.4755401611328125,1.3546470403671265,-0.0026140001136809587
1788108371287618000,9.6786181640625,3.796444892883301,1.606024980545044,0.21678000688552856
1788108371297706200,9.688706298828125,2.91314697265625,1.8028409481048584,0.4456839859485626
1788108371307795200,9.698795166015625,2.1898601055145264,1.903331995010376,0.7265790104866028
1788108371317884700,9.708884765625,1.6855109930038452,1.9863179922103882,0.8746669888496399
1788108371327973600,9.7189736328125,1.3185219764709473,2.013434886932373,0.8627520203590393
1788108371338065700,9.729065673828124,1.1565829515457153,1.8672480583190918,0.8415380120277405
1788108371348158500,9.739158447265625,1.048095941543579,1.6694129705429077,0.8147130012512207
1788108371358254000,9.749254150390625,0.7499439716339111,1.5036900043487549,0.8925870060920715
1788108371368351200,9.759351318359375,0.2954300045967102,1.3589999675750732,0.8423629999160767
1788108371378442500,9.7694423828125,-0.2304760068655014,1.1672389507293701,0.5418580174446106
1788108371388533000,9.779532958984374,-0.7713069915771484,1.1033170223236084,0.20533299446105957
1788108371398629600,9.789629638671874,-1.306656002998352,0.9842410087585449,-0.11794599890708923
1788108371408723500,9.799723388671875,-1.8139079809188843,0.8810979723930359,-0.503288984298706
1788108371418814200,9.809814208984376,-2.362175941467285,0.8278340101242065,-0.8226510286331177
1788108371428904000,9.819904052734374,-2.971266984939575,0.676639974117279,-0.7393969893455505
1788108371438997800,9.829997802734376,-3.3338379859924316,0.5691199898719788,-0.5607290267944336
1788108371449086000,9.8400859375,-3.459505081176758,0.491237998008728,-0.4819509983062744
1788108371459170800,9.8501708984375,-3.2978339195251465,0.3984920084476471,-0.47560200095176697
1788108371469264400,9.860264404296874,-2.805180072784424,0.2737419903278351,-0.6547110080718994
1788108371479359700,9.87035986328125,-2.1266379356384277,0.16752399504184723,-1.0560630559921265
1788108371489448200,9.8804482421875,-1.5421990156173706,0.08364599943161011,-1.454779028892517
1788108371499539000,9.8905390625,-1.2141849994659424,-0.015037000179290771,-1.6659610271453857
1788108371509637400,9.900637451171875,-1.0917129516601562,-0.144679993391037,-1.6321020126342773
1788108371519736600,9.910736572265625,-0.9791300296783447,-0.21288199722766876,-1.4789539575576782
1788108371529815800,9.92081591796875,-0.9762030243873596,-0.2806519865989685,-1.1593270301818848
1788108371539902200,9.930902099609375,-0.9555739760398865,-0.3231329917907715,-0.8972169756889343
1788108371549995000,9.9409951171875,-0.724265992641449,-0.21466000378131866,-0.8403580188751221
1788108371560088000,9.951088134765625,-0.41026800870895386,-0.22399500012397766,-0.8552280068397522
1788108371570178800,9.9611787109375,0.016648000106215477,-0.1737149953842163,-0.892831027507782
1788108371580273200,9.971273193359375,0.5562599897384644,-0.14227600395679474,-0.9882649779319763
1788108371590368500,9.981368408203124,0.8749279975891113,-0.10233999788761139,-0.9458960294723511
1788108371600472800,9.991472900390624,1.1219500303268433,-0.11866199970245361,-0.8464239835739136
1788108371610557400,10.001557373046875,1.2080830335617065,-0.1171879991889,-0.5761380195617676
1788108371620654800,10.01165478515625,1.0610259771347046,-0.15775099396705627,-0.20406599342823029
1788108371630745900,10.021745849609376,0.8048670291900635,-0.12328799813985825,-0.08555799722671509
1788108371640841000,10.031841064453126,0.6411399841308594,0.011343000456690788,-0.23657800257205963
1788108371650925000,10.041925048828125,0.3159100115299225,0.05821499973535538,-0.41852501034736633
1788108371661022500,10.0520224609375,-0.0018449999624863267,0.10660900175571442,-0.4944249987602234
1788108371671106600,10.0621064453125,-0.24418100714683533,0.2500289976596832,-0.5756030082702637
1788108371681195300,10.0721953125,-0.3451080024242401,0.337442010641098,-0.6887230277061462
1788108371691286500,10.08228662109375,-0.5503309965133667,0.37898701429367065,-0.6872490048408508
1788108371701383400,10.092383544921875,-0.7383559942245483,0.3794499933719635,-0.7013599872589111
1788108371711476700,10.102476806640626,-0.8615549802780151,0.523065984249115,-0.7688050270080566
1788108371721567200,10.112567138671874,-0.9990540146827698,0.5249969959259033,-0.7874490022659302
1788108371741755600,10.132755615234375,-1.1050059795379639,0.4776090085506439,-0.7678729891777039
1788108371751845400,10.142845458984375,-0.9116219878196716,0.502236008644104,-0.7977330088615417
1788108371761939500,10.152939453125,-0.5067710280418396,0.3736239969730377,-0.6999689936637878
1788108371772030500,10.163030517578125,-0.07147900015115738,0.3272610008716583,-0.6327499747276306
1788108371782126600,10.173126708984375,0.41366198658943176,0.3995949923992157,-0.7033129930496216
1788108371792213500,10.183213623046875,0.8989279866218567,0.41304901242256165,-0.7910450100898743
1788108371802323700,10.19332373046875,1.2390350103378296,0.4134019911289215,-0.5958930253982544
1788108371812416500,10.20341650390625,1.4266389608383179,0.31370899081230164,-0.4223270118236542
1788108371822503200,10.213503173828125,1.6287480592727661,0.2556999921798706,-0.3534030020236969
1788108371832585700,10.223585693359375,1.84415602684021,0.22702300548553467,-0.4016999900341034
1788108371842684000,10.233683837890625,1.9669970273971558,0.20612600445747375,-0.5197529792785645
1788108371852770000,10.24377001953125,2.038219928741455,0.1745530068874359,-0.6153159737586975
1788108371862853600,10.253853515625,1.9402120113372803,0.19294999539852142,-0.6606969833374023
1788108371872942800,10.26394287109375,1.5648210048675537,0.23054000735282898,-0.6206160187721252
1788108371883035000,10.274034912109375,0.9660120010375977,0.22604399919509888,-0.43594399094581604
1788108371893122300,10.284122314453125,0.3692620098590851,0.22155700623989105,-0.31536799669265747
1788108371903218000,10.294218017578125,-0.21080100536346436,0.23841899633407593,-0.2066349983215332
1788108371913306400,10.304306396484375,-0.5766220092773438,0.25839799642562866,-0.03651599958539009
1788108371923399400,10.3143994140625,-0.8197280168533325,0.31551700830459595,0.0056870002299547195
1788108371933482000,10.32448193359375,-0.9872509837150574,0.25183600187301636,-0.018223000690340996
1788108371943570000,10.33456982421875,-1.0328739881515503,0.28421899676322937,-0.1337990015745163
1788108371953656300,10.34465625,-1.0121580362319946,0.33776500821113586,-0.24790899455547333
1788108371963744800,10.354744873046876,-1.0819170475006104,0.24275599420070648,-0.27738699316978455
1788108371973834200,10.364834228515624,-1.1372569799423218,0.23193000257015228,-0.25530898571014404
1788108371983923200,10.374923095703124,-1.074342966079712,0.1740809977054596,-0.16704800724983215
1788108371994005200,10.385005126953125,-0.9823349714279175,0.11826600134372711,-0.12134499847888947
1788108372004103400,10.395103515625,-0.9856060147285461,0.11441999673843384,-0.14163100719451904
1788108372014195500,10.405195556640624,-0.9031320214271545,0.08427699655294418,-0.2336840033531189
1788108372024297700,10.415297607421875,-0.7150639891624451,0.1477939933538437,-0.4472549855709076
1788108372034401500,10.425401611328125,-0.6127809882164001,0.14079299569129944,-0.5987930297851562
1788108372044502000,10.435501953125,-0.5031960010528564,0.10933700203895569,-0.6613860130310059
1788108372054603300,10.445603271484375,-0.40022599697113037,0.02499300055205822,-0.6537190079689026
1788108372064703500,10.455703369140625,-0.23781999945640564,0.00342700001783669,-0.654121994972229
1788108372074798600,10.465798583984375,-0.041113000363111496,-0.030906999483704567,-0.7040749788284302
1788108372084892200,10.47589208984375,0.13985900580883026,-0.022261999547481537,-0.49581700563430786
1788108372094985000,10.48598486328125,0.44112199544906616,-0.007009999826550484,-0.4547559916973114
1788108372105083600,10.496083740234376,0.6911929845809937,-0.030427999794483185,-0.5418379902839661
1788108372115164400,10.506164306640626,0.9298279881477356,-0.07476700097322464,-0.7356789708137512
1788108372125264600,10.5162646484375,1.1164849996566772,-0.04900500178337097,-0.8402259945869446
1788108372135356400,10.5263564453125,1.2558109760284424,-0.04510499909520149,-0.7301149964332581
1788108372145447200,10.536447265625,1.2852380275726318,0.03977999836206436,-0.7747979760169983
1788108372155541500,10.54654150390625,1.15174400806427,0.1472969949245453,-0.9443410038948059
1788108372165634300,10.55663427734375,0.7545080184936523,0.30765300989151,-1.0734349489212036
1788108372175723500,10.5667236328125,0.20433500409126282,0.44602298736572266,-1.0475610494613647
1788108372185811500,10.5768115234375,-0.3198409974575043,0.571927011013031,-0.8483380079269409
1788108372195896800,10.586896728515624,-0.6398299932479858,0.6538649797439575,-0.6907389760017395
1788108372205992700,10.59699267578125,-0.8784250020980835,0.7323079705238342,-0.6731380224227905
1788108372216072400,10.607072509765626,-1.0639640092849731,0.7856349945068359,-0.5918350219726562
1788108372226170400,10.61717041015625,-1.148941993713379,0.7451270222663879,-0.4032149910926819
1788108372236257800,10.6272578125,-0.8441969752311707,0.7737110257148743,-0.366567999124527
1788108372246354200,10.637354248046876,-0.4609279930591583,0.7605950236320496,-0.48117300868034363
1788108372256451600,10.64745166015625,-0.22109100222587585,0.7071840167045593,-0.6513950228691101
1788108372266546000,10.6575458984375,0.04153500124812126,0.5630789995193481,-0.6436319947242737
1788108372276634400,10.66763427734375,0.2626030147075653,0.42642098665237427,-0.5880529880523682
1788108372286728700,10.677728759765625,0.43634000420570374,0.3177509903907776,-0.5155829787254333
1788108372296814800,10.68781494140625,0.60384601354599,0.19978700578212738,-0.3499020040035248
1788108372306914300,10.697914306640625,0.8477460145950317,0.04755299910902977,-0.1873749941587448
1788108372317005600,10.708005615234375,1.1421029567718506,0.05834300071001053,-0.13521499931812286
1788108372327095800,10.718095703125,1.2536159753799438,0.08098399639129639,0.03428100049495697
1788108372337181200,10.72818115234375,1.2490789890289307,0.08717600256204605,0.2043370008468628
1788108372347274000,10.73827392578125,1.2373520135879517,0.15105600655078888,0.26201799511909485
1788108372357354000,10.74835400390625,1.1680409908294678,0.26782500743865967,0.2373490035533905
1788108372367442400,10.7584423828125,0.8649449944496155,0.3573710024356842,0.23876400291919708
1788108372377523000,10.76852294921875,0.5405849814414978,0.4648370146751404,0.33316799998283386
1788108372387612400,10.7786123046875,0.18704700469970703,0.4979720115661621,0.3522909879684448
1788108372397702100,10.7887021484375,-0.23114199936389923,0.5733309984207153,0.359935998916626
1788108372407795500,10.79879541015625,-0.554144024848938,0.6265469789505005,0.3434410095214844
1788108372417883400,10.80888330078125,-0.6039890050888062,0.6837819814682007,0.3366990089416504
1788108372427971600,10.8189716796875,-0.5302410125732422,0.6254540085792542,0.3903909921646118
1788108372438055000,10.829054931640625,-0.3858189880847931,0.5894060134887695,0.4568530023097992
1788108372448147200,10.839147216796874,-0.16140499711036682,0.5000669956207275,0.35781800746917725
1788108372458234000,10.849234130859376,0.1084280014038086,0.38925600051879883,0.20310500264167786
1788108372468321300,10.8593212890625,0.23360499739646912,0.2765749990940094,0.04451100155711174
1788108372478414800,10.869414794921875,0.1456110030412674,0.18041299283504486,-0.026667000725865364
1788108372488507100,10.879507080078126,-0.03646399825811386,0.05286300182342529,0.012601000256836414
1788108372498583600,10.88958349609375,-0.2858729958534241,-0.01739400066435337,0.021417999640107155
1788108372508683800,10.899683837890626,-0.5624439716339111,-0.023034999147057533,-0.02588699944317341
1788108372518774800,10.90977490234375,-0.9216470122337341,-0.06197499856352806,0.00003899999865097925
1788108372528869600,10.91986962890625,-1.1817829608917236,-0.0537169985473156,0.00506300013512373
1788108372538955500,10.92995556640625,-1.525575041770935,-0.051989998668432236,0.01235899981111288
1788108372549036300,10.940036376953126,-1.8856350183486938,-0.005657999776303768,-0.0047160000540316105
1788108372559134700,10.950134765625,-2.2428109645843506,-0.008098999969661236,0.05384499952197075
1788108372569223200,10.96022314453125,-2.6690080165863037,0.01618799939751625,0.08936399966478348
1788108372579318800,10.97031884765625,-2.820275068283081,0.10131599754095078,0.024181999266147614
1788108372589407500,10.980407470703126,-2.9994471073150635,0.10039199888706207,-0.04787199944257736
1788108372599498500,10.99049853515625,-3.1794939041137695,0.07606200128793716,-0.07997400313615799
1788108372609585000,11.0005849609375,-3.1968870162963867,0.10865499824285507,-0.10593099892139435
1788108372619687700,11.010687744140625,-2.92254900932312,0.08990199863910675,-0.20346200466156006
1788108372629770000,11.02077001953125,-2.3982648849487305,0.10495399683713913,-0.40106201171875
1788108372639864000,11.030864013671875,-1.8286950588226318,0.06333299726247787,-0.5019800066947937
1788108372649951000,11.040950927734375,-1.2239320278167725,0.0303179994225502,-0.5348759889602661
1788108372660044800,11.051044921875,-0.5415170192718506,0.004058000165969133,-0.5061429738998413
1788108372670140000,11.061139892578124,0.07910799980163574,-0.06823000311851501,-0.4404959976673126
1788108372680238800,11.07123876953125,0.574662983417511,-0.14865900576114655,-0.41712599992752075
1788108372690329000,11.0813291015625,1.115921974182129,-0.07109899818897247,-0.33235299587249756
1788108372700422000,11.091421875,1.5201159715652466,0.0919020026922226,-0.3278140127658844
1788108372710513200,11.10151318359375,1.583814024925232,0.2679379880428314,-0.38569799065589905
1788108372720615200,11.111615234375,1.1873650550842285,0.40083301067352295,-0.40587300062179565
1788108372730706700,11.121706787109375,0.5527340173721313,0.582709014415741,-0.3270519971847534
1788108372740799700,11.1317998046875,-0.04680300131440163,0.7973039746284485,-0.3281410038471222
1788108372750890500,11.141890380859374,-0.7414889931678772,0.9995539784431458,-0.3218280076980591
1788108372760990000,11.151989990234375,-1.4257290363311768,1.1292829513549805,-0.2827039957046509
1788108372771076600,11.16207666015625,-1.8698559999465942,1.2321020364761353,-0.21309900283813477
1788108372781173000,11.172173095703124,-1.9693779945373535,1.3159420490264893,-0.21722599864006042
1788108372791261400,11.182261474609374,-1.808019995689392,1.266922950744629,-0.22470399737358093
1788108372801354200,11.192354248046875,-1.4371089935302734,1.1808979511260986,-0.09558399766683578
1788108372811446500,11.202446533203124,-0.9442350268363953,1.0066670179367065,0.08380699902772903
1788108372821542000,11.2125419921875,-0.43745699524879456,0.8288360238075256,0.217522993683815
1788108372831635000,11.222635009765625,0.2517710030078888,0.7198560237884521,0.26412901282310486
1788108372841726200,11.232726318359376,0.6930260062217712,0.6494719982147217,0.30125999450683594
1788108372851815700,11.242815673828124,1.0096479654312134,0.5807819962501526,0.23887400329113007
1788108372861908700,11.25290869140625,1.272001028060913,0.562952995300293,0.18350200355052948
1788108372872007200,11.263007080078125,1.3171180486679077,0.5322999954223633,0.25215500593185425
1788108372882106000,11.273106201171874,0.9726449847221375,0.5748109817504883,0.31728100776672363
1788108372892197000,11.283197021484375,0.49799200892448425,0.6448360085487366,0.39803001284599304
1788108372902289000,11.293288818359375,0.0009560000034980476,0.6721749901771545,0.5396130084991455
1788108372912380000,11.3033798828125,-0.4565249979496002,0.736873984336853,0.6961389780044556
1788108372922468900,11.31346875,-0.6944429874420166,0.7624679803848267,0.8599179983139038
1788108372932564000,11.32356396484375,-0.8654050230979919,0.7644500136375427,0.9176750183105469
1788108372942649600,11.333649658203125,-1.0501450300216675,0.7067379951477051,0.926921010017395
1788108372952738600,11.343738525390625,-1.082345962524414,0.6293550133705139,0.8989859819412231
1788108372962830000,11.353830078125,-0.8904160261154175,0.5852389931678772,0.8064590096473694
1788108372972916500,11.36391650390625,-0.8342850208282471,0.5491589903831482,0.6985549926757812
1788108372982998800,11.373998779296874,-0.9054620265960693,0.4571149945259094,0.6685799956321716
1788108372993084400,11.38408447265625,-0.7648739814758301,0.3904699981212616,0.6595439910888672
1788108373003178800,11.3941787109375,-0.6931660175323486,0.3870539963245392,0.6100029945373535
1788108373013262600,11.4042626953125,-0.624625027179718,0.32371100783348083,0.6436780095100403
1788108373023353600,11.414353515625,-0.47513899207115173,0.3243330121040344,0.65072101354599
1788108373033437000,11.42443701171875,-0.46154001355171204,0.35926300287246704,0.5883870124816895
1788108373043526700,11.434526611328126,-0.6058710217475891,0.4090130031108856,0.4840480089187622
1788108373053610500,11.444610595703125,-0.7547000050544739,0.5340570211410522,0.38795900344848633
1788108373063708700,11.454708740234375,-1.0304689407348633,0.5556449890136719,0.4624289870262146
1788108373073799200,11.464799072265626,-1.332584023475647,0.49737098813056946,0.6949390172958374
1788108373083893500,11.4748935546875,-1.2892099618911743,0.5655630230903625,0.9192469716072083
1788108373093977900,11.484977783203124,-1.1678030490875244,0.5523099899291992,1.0862400531768799
1788108373104076000,11.495075927734375,-1.0909899473190308,0.5107889771461487,1.172942042350769
1788108373114159900,11.505159912109375,-0.7326509952545166,0.42860499024391174,1.1434500217437744
1788108373124257800,11.5152578125,-0.3354800045490265,0.48486098647117615,1.1080869436264038
1788108373134348800,11.525348876953124,-0.014839000068604946,0.40183699131011963,1.12254798412323
1788108373144438000,11.53543798828125,0.2599399983882904,0.3570060133934021,1.1681779623031616
1788108373154526200,11.545526123046875,0.489529013633728,0.3036450147628784,1.2646839618682861
1788108373164628200,11.555628173828126,0.7082279920578003,0.3894079923629761,1.2964600324630737
1788108373174725000,11.56572509765625,0.825098991394043,0.4519290030002594,1.259078025817871
1788108373184827400,11.575827392578125,0.6724039912223816,0.5392100214958191,1.254233956336975
1788108373194920000,11.585919921875,0.6232960224151611,0.5877709984779358,1.220687985420227
1788108373205016000,11.59601611328125,0.5239710211753845,0.6902409791946411,1.179224967956543
1788108373215110000,11.60610986328125,0.49939098954200745,0.6828870177268982,1.1500409841537476
1788108373225206500,11.61620654296875,0.5104550123214722,0.7256559729576111,1.065101981163025
1788108373235299000,11.626299072265626,0.46987199783325195,0.7550179958343506,0.9746099710464478
1788108373245396700,11.636396728515624,0.5272979736328125,0.7834810018539429,0.9169949889183044
1788108373255490600,11.646490478515625,0.4283429980278015,0.815530002117157,0.846185028553009
1788108373265590000,11.656590087890624,0.33122900128364563,0.8359040021896362,0.8032479882240295
1788108373275684000,11.66668408203125,0.1252480000257492,0.9036319851875305,0.6730070114135742
1788108373285783800,11.67678369140625,0.08759099990129471,0.9415720105171204,0.6240770220756531
1788108373295880700,11.686880615234376,0.03659500181674957,1.0661649703979492,0.5001569986343384
1788108373305976600,11.6969765625,-0.0648529976606369,1.1218700408935547,0.4030599892139435
1788108373316073200,11.7070732421875,-0.07019200176000595,1.1736500263214111,0.43231698870658875
1788108373326161200,11.7171611328125,-0.0017480000387877226,1.2034169435501099,0.4371260106563568
1788108373336264700,11.7272646484375,0.23267699778079987,1.3358449935913086,0.3922249972820282
1788108373346357000,11.73735693359375,0.498773992061615,1.3235830068588257,0.47637298703193665
1788108373356455400,11.747455322265624,0.7138199806213379,1.3581889867782593,0.5367000102996826
1788108373366547000,11.757546875,0.8341709971427917,1.3706300258636475,0.5820689797401428
1788108373376634600,11.767634521484375,1.0852010250091553,1.4176559448242188,0.5327799916267395
1788108373386717400,11.777717529296876,1.3234779834747314,1.4805649518966675,0.5282300114631653
1788108373396810500,11.787810546875,1.4914629459381104,1.4216430187225342,0.5484079718589783
1788108373406899700,11.797899658203125,1.5224419832229614,1.3759089708328247,0.5725970268249512
1788108373416993300,11.8079931640625,1.8424750566482544,1.386335015296936,0.5870500206947327
1788108373427086800,11.8180869140625,2.069883108139038,1.296875,0.6923710107803345
1788108373437187600,11.8281875,2.0408949851989746,1.1930999755859375,0.9054470062255859
1788108373447285200,11.83828515625,2.0182769298553467,1.150575041770935,1.0331850051879883
1788108373457375000,11.848375,1.9571139812469482,1.129480004310608,1.1372090578079224
1788108373467465500,11.858465576171875,1.627737045288086,1.1058249473571777,1.3076809644699097
1788108373477547800,11.8685478515625,1.3321579694747925,1.1209449768066406,1.4022170305252075
1788108373487637200,11.87863720703125,1.0730969905853271,1.1830110549926758,1.3066489696502686
1788108373497724200,11.88872412109375,0.5658770203590393,1.2367810010910034,1.092628002166748
1788108373507814400,11.898814453125,0.09610600024461746,1.323490023612976,0.8795809745788574
1788108373517902800,11.90890283203125,-0.45871299505233765,1.3849109411239624,0.7278919816017151
1788108373527990000,11.918989990234374,-1.109025001525879,1.3711600303649902,0.7482249736785889
1788108373538078700,11.92907861328125,-1.8304699659347534,1.2941869497299194,0.9291830062866211
1788108373548170000,11.939169921875,-2.2163920402526855,1.25729501247406,1.089468002319336
1788108373558263600,11.949263671875,-2.3512558937072754,1.2063449621200562,1.1060839891433716
1788108373568344000,11.959343994140625,-2.3297369480133057,1.2185369729995728,0.9141730070114136
1788108373578436400,11.969436279296875,-2.308150053024292,1.2026230096817017,0.8027089834213257
1788108373588527600,11.979527587890624,-2.3764779567718506,1.1316369771957397,0.6154509782791138
1788108373598623000,11.989623046875,-2.435987949371338,1.051177978515625,0.529030978679657
1788108373608714200,11.99971435546875,-2.401880979537964,0.9368690252304077,0.5907080173492432
1788108373618808300,12.009808349609376,-2.229996919631958,0.8634480237960815,0.6216390132904053
1788108373628901400,12.0199013671875,-1.8462899923324585,0.8228669762611389,0.5928750038146973
1788108373639003100,12.030003173828124,-1.4484119415283203,0.8262040019035339,0.3592050075531006
1788108373649092600,12.040092529296874,-1.1567070484161377,0.8104270100593567,0.1354919970035553
1788108373659187200,12.050187255859376,-0.9385610222816467,0.8079130053520203,0.018378999084234238
1788108373669276700,12.060276611328124,-0.8007699847221375,0.8598470091819763,-0.04475000128149986
1788108373679363600,12.070363525390626,-0.7920730113983154,0.8094890117645264,0.0901700034737587
1788108373689455600,12.08045556640625,-0.8134099841117859,0.7135279774665833,0.21726499497890472
1788108373699536400,12.090536376953125,-0.7529749870300293,0.6605759859085083,0.3952310085296631
1788108373709629700,12.100629638671874,-0.432002991437912,0.6426910161972046,0.4837439954280853
1788108373719728000,12.11072802734375,-0.042810000479221344,0.6885190010070801,0.448199987411499
1788108373729814500,12.120814453125,0.5652210116386414,0.6904230117797852,0.43212100863456726
1788108373739902000,12.13090185546875,1.2003509998321533,0.698822021484375,0.36946699023246765
1788108373749994000,12.140993896484375,1.6416620016098022,0.7780849933624268,0.29425498843193054
1788108373760084000,12.151083984375,1.8814400434494019,0.7881749868392944,0.38842999935150146
1788108373770175500,12.161175537109376,1.7831419706344604,0.8040000200271606,0.4819839894771576
1788108373780266500,12.1712666015625,1.413849949836731,0.849174976348877,0.5153110027313232
1788108373790359300,12.181359375,1.0026119947433472,0.8567609786987305,0.48880699276924133
1788108373800454400,12.191454345703125,0.44536900520324707,0.9935809969902039,0.352185994386673
1788108373810538200,12.201538330078124,0.05406299978494644,1.1326960325241089,0.16014699637889862
1788108373820640500,12.211640625,-0.3539319932460785,1.1648650169372559,0.04515799880027771
1788108373830736400,12.221736328125,-0.8103070259094238,1.1754120588302612,-0.05452600121498108
1788108373840838400,12.23183837890625,-1.0773860216140747,1.169530987739563,-0.03653300181031227
1788108373850934000,12.24193408203125,-1.3270790576934814,1.1577589511871338,0.006147999782115221
1788108373861028900,12.25202880859375,-1.4606729745864868,1.2049920558929443,-0.02244199998676777
1788108373871120600,12.26212060546875,-1.5156329870224,1.1699190139770508,-0.1057400032877922
1788108373881217500,12.272217529296874,-1.5559329986572266,1.109840989112854,-0.2101140022277832
1788108373891306000,12.282305908203124,-1.5013580322265625,1.0642809867858887,-0.33594900369644165
1788108373901401600,12.292401611328126,-1.4154150485992432,1.0676029920578003,-0.3628210127353668
1788108373911486700,12.30248681640625,-1.1533050537109375,0.9993240237236023,-0.2811580002307892
1788108373921571800,12.31257177734375,-0.8824700117111206,0.9594339728355408,-0.24068400263786316
1788108373931664600,12.32266455078125,-0.7777090072631836,0.9199090003967285,-0.207736998796463
1788108373941759000,12.332759033203125,-0.7560009956359863,0.8682479858398438,-0.2649939954280853
1788108373951845400,12.342845458984375,-0.5836520195007324,0.8719109892845154,-0.33749300241470337
1788108373961940200,12.352940185546874,-0.40190500020980835,0.6417009830474854,-0.11951600015163422
1788108373972036400,12.363036376953126,-0.073062002658844,0.38492700457572937,0.1106019988656044
1788108373982130200,12.373130126953125,0.5873810052871704,0.2302429974079132,0.34515100717544556
1788108373992220700,12.383220703125,1.4165899753570557,0.04383400082588196,0.4822709858417511
1788108374002327600,12.39332763671875,2.0402920246124268,0.016433000564575195,0.4303649961948395
1788108374012420400,12.40342041015625,2.4013419151306152,-0.025350000709295273,0.32574498653411865
1788108374022511400,12.413511474609376,2.0782270431518555,-0.018918000161647797,0.24051299691200256
1788108374032596500,12.423596435546875,1.3760930299758911,-0.022079000249505043,0.23658999800682068
1788108374042686500,12.4336865234375,0.33241400122642517,0.014038000255823135,0.40894100069999695
1788108374052772000,12.443772216796875,-0.9510400295257568,0.046932000666856766,0.4479939937591553
1788108374062940200,12.453940185546875,-2.2009360790252686,0.15553799271583557,0.5138400197029114
1788108374073029000,12.464029052734375,-3.2440249919891357,0.19170300662517548,0.6777570247650146
1788108374083122000,12.474121826171874,-3.866990089416504,0.3767949938774109,0.770700991153717
1788108374093207000,12.48420703125,-4.145849227905273,0.4980820119380951,0.8281639814376831
1788108374103297300,12.49429736328125,-4.035260200500488,0.5065180063247681,0.9159470200538635
1788108374113383000,12.5043828125,-3.7935938835144043,0.5730699896812439,0.9329360127449036
1788108374123475200,12.51447509765625,-3.648292064666748,0.5844860076904297,0.837448000907898
1788108374133565000,12.52456494140625,-3.3522961139678955,0.5469840168952942,0.753242015838623
1788108374143649000,12.53464892578125,-2.845233917236328,0.5759230256080627,0.6858670115470886
1788108374153733400,12.5447333984375,-2.350611925125122,0.6026300191879272,0.5653640031814575
1788108374163832000,12.55483203125,-1.7284150123596191,0.7033900022506714,0.3630799949169159
1788108374173914600,12.56491455078125,-1.2919319868087769,0.807699978351593,0.2104170024394989
1788108374184009700,12.575009765625,-1.0299090147018433,0.8475059866905212,0.14720499515533447
1788108374194089000,12.5850888671875,-0.9533920288085938,0.8745539784431458,0.08052700012922287
1788108374204183800,12.595183837890625,-0.6840490102767944,0.8420829772949219,0.11041799932718277
1788108374214283000,12.605282958984375,-0.3721120059490204,0.7525849938392639,0.1800449937582016
1788108374224382200,12.61538232421875,-0.02510100044310093,0.6460210084915161,0.26885199546813965
1788108374234478600,12.625478515625,0.5171890258789062,0.5124130249023438,0.41577500104904175
1788108374244563500,12.6355634765625,1.0634030103683472,0.5141680240631104,0.4666619896888733
1788108374254662100,12.645662109375,1.5449750423431396,0.5927519798278809,0.4549669921398163
1788108374264761600,12.65576171875,1.8024990558624268,0.6264600157737732,0.3183960020542145
1788108374274853000,12.66585302734375,1.8538049459457397,0.6487380266189575,0.17434300482273102
1788108374284954000,12.6759541015625,1.7579890489578247,0.7697160243988037,0.1302340030670166
1788108374295044900,12.686044921875,1.5512009859085083,0.8975780010223389,0.19251799583435059
1788108374305139000,12.696138916015625,1.2197840213775635,1.0654009580612183,0.2404100000858307
1788108374315233000,12.70623291015625,0.9483929872512817,1.1953519582748413,0.2436390072107315
1788108374325330000,12.716329833984375,0.8796319961547852,1.3303879499435425,0.2137410044670105
1788108374335415800,12.726415771484374,1.0488109588623047,1.4560810327529907,0.1683260053396225
1788108374345512200,12.73651220703125,1.1546540260314941,1.5172109603881836,0.12994599342346191
1788108374355606000,12.74660595703125,1.2523629665374756,1.4538040161132812,0.23022900521755219
1788108374365701000,12.756701171875,1.459712028503418,1.4629039764404297,0.39617499709129333
1788108374375791000,12.766791015625,1.8234699964523315,1.4539810419082642,0.6715360283851624
1788108374385884200,12.77688427734375,2.100843906402588,1.5106450319290161,0.8829389810562134
1788108374395969000,12.786968994140626,2.2813329696655273,1.5814330577850342,1.007539987564087
1788108374406077700,12.79707763671875,2.428049087524414,1.7349120378494263,0.9252769947052002
1788108374416172300,12.80717236328125,2.1196179389953613,1.8330260515213013,0.7580260038375854
1788108374426267600,12.817267578125,1.6327680349349976,1.8573089838027954,0.6892179846763611
1788108374436354000,12.82735400390625,1.2249979972839355,1.868567943572998,0.8561869859695435
1788108374446456800,12.837456787109375,0.9074540138244629,1.8263969421386719,1.134788990020752
1788108374456546800,12.847546875,0.6338539719581604,1.6997439861297607,1.397057056427002
1788108374466640000,12.857639892578124,0.43514400720596313,1.643792986869812,1.4829310178756714
