time,seconds_elapsed,z,y,x
1788108361737998600,0.12899853515625,7.734355926513672,6.017662048339844,0.08663400262594223
1788108361748088300,0.13908837890625,7.729816913604736,6.023940086364746,0.045086998492479324
1788108361758190600,0.149190673828125,7.726202011108398,6.028748035430908,0.0027169999666512012
1788108361768278300,0.1592783203125,7.725907802581787,6.0290207862854,-0.03585999831557274
1788108361798561000,0.18956103515625,7.744844913482666,6.003222942352295,-0.13646499812602997
1788108361818748400,0.20974853515625,7.772931098937988,5.964786052703857,-0.20691099762916565
1788108361828839200,0.219839111328125,7.7877278327941895,5.943944931030273,-0.24660100042819977
1788108361838908400,0.229908447265625,7.803129196166992,5.922027111053467,-0.28426799178123474
1788108361848994600,0.23999462890625,7.817278861999512,5.901497840881348,-0.32014399766921997
1788108361859086800,0.2500869140625,7.827878952026367,5.885532855987549,-0.3533079922199249
1788108361869185800,0.260185791015625,7.835452079772949,5.873801231384277,-0.37968000769615173
1788108361879277300,0.27027734375,7.841002941131592,5.865315914154053,-0.3958989977836609
1788108361889368600,0.28036865234375,7.847689151763916,5.85621976852417,-0.3980239927768707
1788108361899462100,0.290462158203125,7.857670783996582,5.843626976013184,-0.3860180079936981
1788108361909561000,0.30056103515625,7.871625900268555,5.826387882232666,-0.3614319860935211
1788108361919647000,0.31064697265625,7.887721061706543,5.806550979614258,-0.3283959925174713
1788108361929749000,0.3207490234375,7.9039998054504395,5.7859721183776855,-0.29881399869918823
1788108361939834400,0.33083447265625,7.9186201095581055,5.767158031463623,-0.2745479941368103
1788108361949919700,0.340919677734375,7.930047035217285,5.752363204956055,-0.2543419897556305
1788108361960008200,0.35100830078125,7.934769153594971,5.746370792388916,-0.242139995098114
1788108361970104600,0.3611044921875,7.933834075927734,5.748056888580322,-0.23250700533390045
1788108361980198100,0.3711982421875,7.928518772125244,5.755920886993408,-0.21905599534511566
1788108361990296000,0.381296142578125,7.917539119720459,5.771547794342041,-0.2043990045785904
1788108362000385300,0.39138525390625,7.898777961730957,5.797574043273926,-0.19346900284290314
1788108362010480000,0.401480224609375,7.872105121612549,5.833835124969482,-0.19046500325202942
1788108362020567800,0.41156787109375,7.839114189147949,5.878005027770996,-0.1933470070362091
1788108362030663700,0.42166357421875,7.801361083984375,5.927934169769287,-0.19581100344657898
1788108362040760000,0.431760009765625,7.761719226837158,5.979715824127197,-0.19676600396633148
1788108362050861000,0.441861083984375,7.722500801086426,6.0302019119262695,-0.19897900521755219
1788108362060950300,0.4519501953125,7.685628890991211,6.0768327713012695,-0.20780900120735168
1788108362071037400,0.462037353515625,7.652378082275391,6.118300914764404,-0.2179660052061081
1788108362081128200,0.472128173828125,7.627193927764893,6.150193214416504,-0.2025880068540573
1788108362091219200,0.48221923828125,7.605441093444824,6.1771440505981445,-0.200423002243042
1788108362101306400,0.492306396484375,7.59050989151001,6.195306777954102,-0.2056419998407364
1788108362111397600,0.502397705078125,7.577881813049316,6.210066795349121,-0.22533400356769562
1788108362121488400,0.51248828125,7.567671775817871,6.221523761749268,-0.25108999013900757
1788108362131591200,0.522591064453125,7.562535762786865,6.226840972900391,-0.2729890048503876
1788108362141691400,0.53269140625,7.56374979019165,6.225372791290283,-0.272693008184433
1788108362151787800,0.542787841796875,7.571101188659668,6.217708110809326,-0.24200500547885895
1788108362161884400,0.552884521484375,7.589361190795898,6.197384834289551,-0.18453699350357056
1788108362171973400,0.562973388671875,7.605926036834717,6.178250789642334,-0.13840000331401825
1788108362182059000,0.57305908203125,7.619682788848877,6.161830902099609,-0.11086799949407578
1788108362192160300,0.58316015625,7.634076118469238,6.1443281173706055,-0.0900849997997284
1788108362202251300,0.593251220703125,7.6465067863464355,6.128942012786865,-0.08358000218868256
1788108362212347100,0.60334716796875,7.656921863555908,6.115939140319824,-0.08284799754619598
1788108362222441000,0.61344091796875,7.666831016540527,6.103529930114746,-0.08149299770593643
1788108362232530000,0.623530029296875,7.679121017456055,6.088234901428223,-0.06711799651384354
1788108362242622500,0.63362255859375,7.694332122802734,6.069235801696777,-0.04040300101041794
1788108362252715800,0.6437158203125,7.711921215057373,6.047004222869873,-0.004364000167697668
1788108362262808800,0.653808837890625,7.7294111251831055,6.024550914764404,0.03174300119280815
1788108362272897300,0.663897216796875,7.745540142059326,6.003592014312744,0.05897499993443489
1788108362282987000,0.673987060546875,7.7609381675720215,5.983457088470459,0.07782000303268433
1788108362293085700,0.684085693359375,7.775989055633545,5.963727951049805,0.08931300044059753
1788108362303174100,0.694174072265625,7.791497230529785,5.943358898162842,0.0951320007443428
1788108362313266700,0.7042666015625,7.807706832885742,5.921963214874268,0.1002660021185875
1788108362323357000,0.71435693359375,7.825222015380859,5.898533821105957,0.11467699706554413
1788108362333451500,0.724451416015625,7.844502925872803,5.87233304977417,0.13943099975585938
1788108362343547000,0.734546875,7.864045143127441,5.845277786254883,0.1715250015258789
1788108362353656800,0.74465673828125,7.883212089538574,5.818317890167236,0.2050590068101883
1788108362363747600,0.75474755859375,7.899929046630859,5.794597148895264,0.2320539951324463
1788108362373842200,0.76484228515625,7.9103899002075195,5.779585838317871,0.24921800196170807
1788108362383938000,0.77493798828125,7.912239074707031,5.776712894439697,0.257099986076355
1788108362394033200,0.785033203125,7.905363082885742,5.785822868347168,0.2635450065135956
1788108362404122600,0.79512255859375,7.8917741775512695,5.8036627769470215,0.2781279981136322
1788108362414233000,0.805233154296875,7.875246047973633,5.824868202209473,0.30234500765800476
1788108362424313600,0.815313720703125,7.859626770019531,5.844149112701416,0.33494099974632263
1788108362434414800,0.825414794921875,7.847314834594727,5.85845422744751,0.37171900272369385
1788108362444507100,0.835507080078125,7.838065147399902,5.8685407638549805,0.4061119854450226
1788108362454609000,0.84560888671875,7.830416202545166,5.876877784729004,0.4323199987411499
1788108362464701400,0.855701416015625,7.822319984436035,5.886623859405518,0.4460639953613281
1788108362474794500,0.86579443359375,7.812314987182617,5.89975118637085,0.4479779899120331
1788108362484884000,0.875884033203125,7.801368236541748,5.914481163024902,0.4444670081138611
1788108362494973400,0.885973388671875,7.790960788726807,5.928160190582275,0.44486600160598755
1788108362505064000,0.89606396484375,7.783168792724609,5.937575817108154,0.4555180072784424
1788108362515172000,0.906172119140625,7.780394077301025,5.93971586227417,0.47458401322364807
1788108362525257200,0.91625732421875,7.783019065856934,5.934603214263916,0.4951539933681488
1788108362535350300,0.926350341796875,7.78955078125,5.92478084564209,0.5097870230674744
1788108362545439200,0.936439208984375,7.798419952392578,5.912619113922119,0.515392005443573
1788108362555555300,0.946555419921875,7.809220790863037,5.898315906524658,0.515736997127533
1788108362565644300,0.956644287109375,7.819674015045166,5.88456392288208,0.5144249796867371
1788108362575733500,0.9667333984375,7.829712867736816,5.871094226837158,0.5155709981918335
1788108362585820400,0.9768203125,7.84056282043457,5.855954170227051,0.5228779911994934
1788108362595906800,0.98690673828125,7.852914810180664,5.8381571769714355,0.5363759994506836
1788108362605992200,0.9969921875,7.866659164428711,5.818062782287598,0.5529299974441528
1788108362616095000,1.007094970703125,7.881744861602783,5.7960100173950195,0.5695589780807495
1788108362626181600,1.017181640625,7.897031784057617,5.773571014404297,0.5854020118713379
1788108362636265500,1.027265380859375,7.910085201263428,5.754839897155762,0.5936400294303894
1788108362646358000,1.03735791015625,7.9188690185546875,5.743297100067139,0.5882710218429565
1788108362656451000,1.047451171875,7.922737121582031,5.739649772644043,0.5715619921684265
1788108362666536400,1.057536376953125,7.922204971313477,5.742425918579102,0.5506510138511658
1788108362676619800,1.067619873046875,7.919617176055908,5.747592926025391,0.5336629748344421
1788108362686709800,1.077709716796875,7.918319225311279,5.750201225280762,0.5247970223426819
1788108362696809200,1.087809326171875,7.920622825622559,5.747024059295654,0.5248029828071594
1788108362706909700,1.09790966796875,7.927149772644043,5.737397193908691,0.5315300226211548
1788108362716999200,1.107999267578125,7.9380059242248535,5.721461772918701,0.5412600040435791
1788108362727089400,1.11808935546875,7.952326774597168,5.700940132141113,0.5474990010261536
1788108362737174000,1.128174072265625,7.968204975128174,5.67840576171875,0.5508040189743042
1788108362747265500,1.138265625,7.984348773956299,5.656092166900635,0.5465450286865234
1788108362757343700,1.14834375,7.9989800453186035,5.636383056640625,0.5361719727516174
1788108362767439600,1.158439697265625,8.010345458984375,5.621620178222656,0.5212969779968262
1788108362777519900,1.168519775390625,8.017190933227539,5.613570213317871,0.5024899840354919
1788108362787617800,1.17861767578125,8.01924991607666,5.612287998199463,0.48357200622558594
1788108362797709600,1.18870947265625,8.017190933227539,5.616592884063721,0.4674299955368042
1788108362807804400,1.198804443359375,8.013910293579102,5.621963024139404,0.4590269923210144
1788108362817890600,1.208890625,8.012572288513184,5.623778820037842,0.4602159857749939
1788108362827981800,1.21898193359375,8.01596736907959,5.618373870849609,0.4670200049877167
1788108362838073600,1.229073486328125,8.023894309997559,5.606441974639893,0.4742799997329712
1788108362848173300,1.23917333984375,8.033881187438965,5.591905117034912,0.47675299644470215
1788108362858264600,1.2492646484375,8.041816711425781,5.580854892730713,0.47251200675964355
1788108362868350000,1.259349853515625,8.045551300048828,5.576642036437988,0.45841100811958313
1788108362878438100,1.269438232421875,8.044365882873535,5.580259799957275,0.4346109926700592
1788108362888530200,1.2795302734375,8.036988258361816,5.593019008636475,0.40616199374198914
1788108362898622200,1.289622314453125,8.023351669311523,5.614402770996094,0.3799329996109009
1788108362908715800,1.2997158203125,8.003491401672363,5.643887042999268,0.36154699325561523
1788108362918806300,1.30980615234375,7.978495121002197,5.6794939041137695,0.35634300112724304
1788108362928896800,1.319896728515625,7.95078182220459,5.717535018920898,0.36717501282691956
1788108362938991900,1.329991943359375,7.923734188079834,5.753334999084473,0.39184901118278503
1788108362949083000,1.340082763671875,7.900689125061035,5.782686233520508,0.42381298542022705
1788108362959182000,1.35018212890625,7.883058071136475,5.804262161254883,0.45596298575401306
1788108362969276200,1.360276123046875,7.8714518547058105,5.8177409172058105,0.48392799496650696
1788108362979374300,1.370374267578125,7.865924835205078,5.823491096496582,0.5041509866714478
1788108362989469400,1.380469482421875,7.866988182067871,5.820819854736328,0.5182809829711914
1788108362999560200,1.390560302734375,7.873727798461914,5.810575008392334,0.5306860208511353
1788108363009644500,1.40064453125,7.882900238037109,5.796621799468994,0.5468369722366333
1788108363019737000,1.410737060546875,7.891911029815674,5.782314777374268,0.567978024482727
1788108363029825000,1.420824951171875,7.899815082550049,5.7690958976745605,0.5919479727745056
1788108363039921700,1.430921630859375,7.906406879425049,5.7572197914123535,0.6189680099487305
1788108363050008000,1.441008056640625,7.912186145782471,5.745832920074463,0.6501070261001587
1788108363060102000,1.451101806640625,7.9184160232543945,5.732967853546143,0.6868379712104797
1788108363070194700,1.461194580078125,7.92648983001709,5.717544078826904,0.7213950157165527
1788108363080292600,1.471292724609375,7.936500072479248,5.699868202209473,0.7506250143051147
1788108363090380300,1.48138037109375,7.946127891540527,5.68356990814209,0.7720739841461182
1788108363100479000,1.49147900390625,7.952730178833008,5.672284126281738,0.7869330048561096
1788108363110562300,1.501562255859375,7.951329231262207,5.672131061553955,0.80205899477005
1788108363120649700,1.511649658203125,7.940240859985352,5.686047077178955,0.8132820129394531
1788108363130742000,1.521741943359375,7.920180797576904,5.713147163391113,0.8189100027084351
1788108363140843500,1.531843505859375,7.892676830291748,5.748991012573242,0.8335469961166382
1788108363150935800,1.541935791015625,7.860682010650635,5.7878007888793945,0.8666549921035767
1788108363161032000,1.552031982421875,7.8280158042907715,5.8248748779296875,0.9127200245857239
1788108363171118000,1.5621181640625,7.797628879547119,5.858008861541748,0.9595419764518738
1788108363181211600,1.572211669921875,7.771312236785889,5.885227203369141,1.0053730010986328
1788108363191306800,1.582306640625,7.749216079711914,5.906767845153809,1.0487209558486938
1788108363201400000,1.592400146484375,7.732149124145508,5.92262601852417,1.0845999717712402
1788108363211487700,1.60248779296875,7.719442844390869,5.934438228607178,1.110224962234497
1788108363221587200,1.612587158203125,7.709565162658691,5.943684101104736,1.1292749643325806
1788108363231684400,1.622684326171875,7.7011518478393555,5.951089859008789,1.147523045539856
1788108363241779700,1.63277978515625,7.693119049072266,5.957488059997559,1.1680020093917847
1788108363251869400,1.642869384765625,7.684502124786377,5.963995933532715,1.1912809610366821
1788108363261963800,1.6529638671875,7.6741461753845215,5.9717020988464355,1.2191139459609985
1788108363272055800,1.663055908203125,7.663186073303223,5.979201793670654,1.2508740425109863
1788108363282148400,1.6731484375,7.6535868644714355,5.984316825866699,1.2847399711608887
1788108363292242000,1.683241943359375,7.646295070648193,5.986076831817627,1.319491982460022
1788108363302338600,1.693338623046875,7.6418890953063965,5.984074115753174,1.3536560535430908
1788108363322514000,1.713513916015625,7.644252777099609,5.96845817565918,1.4081690311431885
1788108363332597000,1.723596923828125,7.649394989013672,5.959167003631592,1.4195270538330078
1788108363342689300,1.733689208984375,7.654514789581299,5.95336389541626,1.4162969589233398
1788108363352784000,1.743783935546875,7.656661033630371,5.954745769500732,1.3987809419631958
1788108363362877700,1.753877685546875,7.6525092124938965,5.966330051422119,1.3718760013580322
1788108363372973600,1.7639736328125,7.640824794769287,5.986793041229248,1.3476179838180542
1788108363393154300,1.784154296875,7.598488807678223,6.046738147735596,1.319074034690857
1788108363403242500,1.794242431640625,7.57293176651001,6.078641891479492,1.31938898563385
1788108363413335800,1.804335693359375,7.548870086669922,6.106418132781982,1.3289999961853027
1788108363423434000,1.81443408203125,7.529301166534424,6.127334117889404,1.3436280488967896
1788108363433519900,1.824519775390625,7.51554012298584,6.14227294921875,1.3524500131607056
1788108363443611100,1.834611083984375,7.5067877769470215,6.153347969055176,1.3507349491119385
1788108363453710000,1.8447099609375,7.500819206237793,6.163019180297852,1.3397190570831299
1788108363463800800,1.85480078125,7.496251106262207,6.171998977661133,1.3238539695739746
1788108363473880300,1.86488037109375,7.492578029632568,6.179093837738037,1.3114869594573975
1788108363483982300,1.874982421875,7.491053104400635,6.181465148925781,1.3090449571609497
1788108363494073000,1.885072998046875,7.4936370849609375,6.177495956420898,1.3129620552062988
1788108363504167400,1.89516748046875,7.500290870666504,6.167387962341309,1.3224780559539795
1788108363514251500,1.90525146484375,7.511972904205322,6.151266098022461,1.3312510251998901
1788108363524340200,1.91534033203125,7.5272297859191895,6.131671905517578,1.3354439735412598
1788108363534429700,1.9254296875,7.544242858886719,6.111227035522461,1.333158016204834
1788108363544513000,1.935512939453125,7.560863018035889,6.092267990112305,1.3257499933242798
1788108363554606300,1.9456064453125,7.575901031494141,6.076035976409912,1.314350962638855
1788108363564700700,1.95570068359375,7.587474822998047,6.063849925994873,1.303805947303772
1788108363574782200,1.9657822265625,7.595437049865723,6.055475234985352,1.2963579893112183
1788108363584879000,1.975879150390625,7.599563121795654,6.05147123336792,1.2908649444580078
1788108363595015700,1.986015625,7.592676162719727,6.057254791259766,1.3041820526123047
1788108363605117000,1.996116943359375,7.590649127960205,6.059457778930664,1.3057600259780884
1788108363615208200,2.006208251953125,7.595411777496338,6.057027816772461,1.2892240285873413
1788108363625306400,2.016306396484375,7.59137487411499,6.0636491775512695,1.281864047050476
1788108363635392500,2.026392578125,7.58498477935791,6.073692798614502,1.2721190452575684
1788108363645491700,2.03649169921875,7.565712928771973,6.095250129699707,1.2837189435958862
1788108363655569000,2.04656884765625,7.5524702072143555,6.112096786499023,1.2815840244293213
1788108363665661400,2.056661376953125,7.5399250984191895,6.129714012145996,1.271267056465149
1788108363675752700,2.066752685546875,7.520849227905273,6.155158042907715,1.261275053024292
1788108363685846000,2.076845947265625,7.4986958503723145,6.184657096862793,1.2488470077514648
1788108363695933200,2.08693310546875,7.474528789520264,6.215546131134033,1.2403260469436646
1788108363706044700,2.097044677734375,7.449368953704834,6.244922161102295,1.2441200017929077
1788108363716129800,2.1071298828125,7.42775821685791,6.266902923583984,1.262673020362854
1788108363726230000,2.11722998046875,7.414907932281494,6.276747226715088,1.289033055305481
1788108363736320500,2.127320556640625,7.413463115692139,6.274138927459717,1.3098549842834473
1788108363746424600,2.137424560546875,7.4222331047058105,6.261993885040283,1.318276047706604
1788108363756516000,2.14751611328125,7.438296794891357,6.2436041831970215,1.3149820566177368
1788108363766611500,2.157611572265625,7.457100868225098,6.22261905670166,1.3079249858856201
1788108363776704000,2.1677041015625,7.473602771759033,6.2045159339904785,1.2997089624404907
1788108363786801700,2.1778017578125,7.485544204711914,6.1900858879089355,1.2998019456863403
1788108363796898600,2.187898681640625,7.496442794799805,6.174990177154541,1.308743953704834
1788108363806992400,2.197992431640625,7.50714111328125,6.159259796142578,1.3214819431304932
1788108363817082600,2.20808251953125,7.517942905426025,6.143733024597168,1.3323060274124146
1788108363827183600,2.21818359375,7.5291290283203125,6.1284499168396,1.3395049571990967
1788108363837262600,2.2282626953125,7.540809154510498,6.11273717880249,1.3455979824066162
1788108363847356400,2.2383564453125,7.552490234375,6.09807014465332,1.3466390371322632
1788108363857454800,2.248454833984375,7.563263893127441,6.085437774658203,1.3432999849319458
1788108363867545000,2.258545166015625,7.572216987609863,6.075918197631836,1.3359379768371582
1788108363877642000,2.26864208984375,7.5782270431518555,6.07185697555542,1.3202320337295532
1788108363887738400,2.27873828125,7.578886985778809,6.074556827545166,1.3039369583129883
1788108363897826300,2.288826416015625,7.574260234832764,6.083041191101074,1.2911909818649292
1788108363907917000,2.2989169921875,7.566067218780518,6.094279766082764,1.286234974861145
1788108363918005200,2.309005126953125,7.5570149421691895,6.105311870574951,1.2871299982070923
1788108363928102000,2.319101806640625,7.550372123718262,6.112576961517334,1.2916109561920166
1788108363938192100,2.329192138671875,7.547526836395264,6.114956855773926,1.2969609498977661
1788108363948293400,2.33929345703125,7.549755096435547,6.112182140350342,1.297091007232666
1788108363958381800,2.3493818359375,7.555478096008301,6.107443809509277,1.2860280275344849
1788108363968472300,2.359472412109375,7.562932014465332,6.102295875549316,1.2665009498596191
1788108363978567400,2.3695673828125,7.570845127105713,6.098288059234619,1.2382179498672485
1788108363988667600,2.379667724609375,7.578309059143066,6.093857765197754,1.2141289710998535
1788108363998763800,2.389763671875,7.587038993835449,6.086213111877441,1.1978479623794556
1788108364008878300,2.39987841796875,7.597068786621094,6.074685096740723,1.192803978919983
1788108364018963200,2.409963134765625,7.611029148101807,6.056663990020752,1.1954330205917358
1788108364029055500,2.420055419921875,7.628993988037109,6.0331711769104,1.199700951576233
1788108364039148500,2.4301484375,7.650659084320068,6.005593776702881,1.200132966041565
1788108364049241600,2.44024169921875,7.672472953796387,5.979423999786377,1.191512942314148
1788108364059328800,2.450328857421875,7.692533016204834,5.95632791519165,1.1777440309524536
1788108364069427200,2.46042724609375,7.711029052734375,5.934755802154541,1.165626049041748
1788108364079517700,2.470517578125,7.727511882781982,5.915308952331543,1.1552989482879639
1788108364089632300,2.48063232421875,7.741611957550049,5.898381233215332,1.1474039554595947
1788108364099721200,2.49072119140625,7.7523698806762695,5.885427951812744,1.141266942024231
1788108364109807900,2.500807861328125,7.760735034942627,5.876307010650635,1.131392002105713
1788108364119892200,2.510892333984375,7.766095161437988,5.871344089508057,1.1203049421310425
1788108364129988400,2.52098828125,7.769888877868652,5.868188858032227,1.1104860305786133
1788108364140082700,2.531082763671875,7.772487163543701,5.867599010467529,1.0953290462493896
1788108364150171400,2.54117138671875,7.774485111236572,5.869688987731934,1.0696320533752441
1788108364160258300,2.55125830078125,7.775585174560547,5.874724864959717,1.0333679914474487
1788108364170351900,2.561351806640625,7.773636817932129,5.8856401443481445,0.9848089814186096
1788108364190521600,2.581521484375,7.755512237548828,5.925008773803711,0.8867179751396179
1788108364200612900,2.59161279296875,7.743174076080322,5.9464569091796875,0.8502110242843628
1788108364210709200,2.601709228515625,7.732173919677734,5.96415376663208,0.8260290026664734
1788108364220799500,2.611799560546875,7.725283145904541,5.9752302169799805,0.8103209733963013
1788108364230891000,2.62189111328125,7.724606990814209,5.9777960777282715,0.7977089881896973
1788108364240975600,2.6319755859375,7.73002290725708,5.972629070281982,0.7839130163192749
1788108364251064300,2.642064208984375,7.740062236785889,5.961709976196289,0.7677630186080933
1788108364261150200,2.652150146484375,7.754258155822754,5.945347785949707,0.7512339949607849
1788108364271242200,2.6622421875,7.7716569900512695,5.924176216125488,0.7385860085487366
1788108364281333000,2.6723330078125,7.791331768035889,5.898773193359375,0.7345889806747437
1788108364291414500,2.68241455078125,7.813809871673584,5.8681230545043945,0.7412890195846558
1788108364301502500,2.69250244140625,7.837493896484375,5.83447790145874,0.756725013256073
1788108364311591400,2.70259130859375,7.861695766448975,5.799760818481445,0.7723360061645508
1788108364321676800,2.7126767578125,7.885799884796143,5.765397071838379,0.7838050127029419
1788108364331773700,2.722773681640625,7.906548023223877,5.737053871154785,0.782738983631134
1788108364341854700,2.732854736328125,7.920470237731934,5.719550132751465,0.7699900269508362
1788108364351946200,2.7429462890625,7.925117015838623,5.716152191162109,0.747065007686615
1788108364362029000,2.753029052734375,7.919246196746826,5.727508068084717,0.721934974193573
1788108364372124400,2.76312451171875,7.905045032501221,5.749733924865723,0.7005900144577026
1788108364382210300,2.773210205078125,7.885231971740723,5.778676986694336,0.6855800151824951
1788108364392304400,2.783304443359375,7.86210298538208,5.811051845550537,0.6774700284004211
1788108364402391800,2.793391845703125,7.838161945343018,5.843505859375,0.6757599711418152
1788108364412488200,2.80348828125,7.817489147186279,5.870182991027832,0.6839609742164612
1788108364422575000,2.8135751953125,7.804312229156494,5.885350227355957,0.7038220167160034
1788108364432678000,2.823677978515625,7.802239894866943,5.884766101837158,0.731145977973938
1788108364442773200,2.833773193359375,7.812428951263428,5.868227005004883,0.7548919916152954
1788108364452863000,2.843863037109375,7.830256938934326,5.842735767364502,0.7677729725837708
1788108364462946000,2.853946044921875,7.851236820220947,5.81498384475708,0.7642419934272766
1788108364473044000,2.8640439453125,7.869373798370361,5.7928009033203125,0.7459059953689575
1788108364483141600,2.8741416015625,7.879993915557861,5.781459808349609,0.7213799953460693
1788108364493239000,2.884239013671875,7.882847785949707,5.780245780944824,0.6996170282363892
1788108364503333000,2.8943330078125,7.876997947692871,5.789492130279541,0.688959002494812
1788108364513428200,2.90442822265625,7.866237163543701,5.803569793701172,0.6934589743614197
1788108364523522000,2.91452197265625,7.853596210479736,5.818966865539551,0.7075560092926025
1788108364533608700,2.924608642578125,7.8395161628723145,5.836589813232422,0.7184399962425232
1788108364543700200,2.9347001953125,7.823184967041016,5.858425140380859,0.7187719941139221
1788108364553795300,2.94479541015625,7.803494930267334,5.885702133178711,0.7098990082740784
1788108364563873300,2.954873291015625,7.783191204071045,5.913262844085693,0.7036970257759094
1788108364573961700,2.964961669921875,7.7655348777771,5.935967922210693,0.7076669931411743
1788108364584057600,2.9750576171875,7.7527852058410645,5.950851917266846,0.7222409844398499
1788108364594147000,2.98514697265625,7.747282028198242,5.955402851104736,0.7435029745101929
1788108364604233200,2.995233154296875,7.75015115737915,5.948561191558838,0.7679219841957092
1788108364614350800,3.005350830078125,7.760647773742676,5.932109832763672,0.7889549732208252
1788108364624438800,3.015438720703125,7.778658866882324,5.906179904937744,0.8059350252151489
1788108364634539000,3.0255390625,7.802699089050293,5.8725762367248535,0.8189250230789185
1788108364644625400,3.03562548828125,7.831011772155762,5.832977771759033,0.8316559791564941
1788108364654713300,3.04571337890625,7.862524032592773,5.787615776062012,0.8510079979896545
1788108364664796700,3.055796630859375,7.896561145782471,5.736846923828125,0.8791499733924866
1788108364674884900,3.065884765625,7.933412075042725,5.680421829223633,0.9131280183792114
1788108364684976400,3.075976318359375,7.971375942230225,5.621065139770508,0.9491009712219238
1788108364695060200,3.086060302734375,8.008461952209473,5.5626912117004395,0.9803370237350464
1788108364705154000,3.096154052734375,8.042617797851562,5.509265899658203,1.0021350383758545
1788108364715250700,3.106250732421875,8.071076393127441,5.465775966644287,1.0114389657974243
1788108364725349000,3.11634912109375,8.092307090759277,5.434321880340576,1.0113270282745361
1788108364735445800,3.12644580078125,8.105731010437012,5.415661811828613,1.003859043121338
1788108364745539800,3.136539794921875,8.112213134765625,5.4067769050598145,0.9993870258331299
1788108364755631600,3.146631591796875,8.113848686218262,5.403679847717285,1.0028280019760132
1788108364765720300,3.15672021484375,8.11275577545166,5.4037628173828125,1.0111759901046753
1788108364775815000,3.16681494140625,8.110252380371094,5.405840873718262,1.0201640129089355
1788108364785898000,3.17689794921875,8.107912063598633,5.408331871032715,1.0255149602890015
1788108364795994400,3.186994384765625,8.105892181396484,5.412085056304932,1.0216970443725586
1788108364806086100,3.197086181640625,8.102997779846191,5.418960094451904,1.0081089735031128
1788108364816173600,3.207173583984375,8.098291397094727,5.429760932922363,0.9876139760017395
1788108364826265600,3.217265625,8.09101676940918,5.444328784942627,0.9668059945106506
1788108364836358000,3.22735791015625,8.081751823425293,5.461121082305908,0.949413001537323
1788108364846454300,3.237454345703125,8.072308540344238,5.4768500328063965,0.9391250014305115
1788108364856543700,3.247543701171875,8.06552505493164,5.486905097961426,0.9386810064315796
1788108364866624500,3.25762451171875,8.062971115112305,5.489509105682373,0.9454290270805359
1788108364876714500,3.267714599609375,8.064789772033691,5.485383987426758,0.95381098985672
1788108364886816300,3.277816162109375,8.07030200958252,5.476583957672119,0.9577440023422241
1788108364896908000,3.287907958984375,8.07739543914795,5.466606140136719,0.9549379944801331
1788108364907000300,3.298000244140625,8.082685470581055,5.461109161376953,0.941536009311676
1788108364917092000,3.308092041015625,8.082806587219238,5.465450763702393,0.914903998374939
1788108364927196000,3.31819580078125,8.074224472045898,5.484029769897461,0.8788179755210876
1788108364937280800,3.32828076171875,8.057687759399414,5.513935089111328,0.8427010178565979
1788108364947370500,3.33837060546875,8.035537719726562,5.550331115722656,0.8148080110549927
1788108364957455000,3.348455078125,8.010490417480469,5.5889410972595215,0.7973340153694153
1788108364967547100,3.358547119140625,7.98599910736084,5.625226020812988,0.7878180146217346
1788108364977639000,3.368638916015625,7.9657368659973145,5.654603958129883,0.7825790047645569
1788108364987737300,3.3787373046875,7.95144510269165,5.675867080688477,0.7739610075950623
1788108364997830700,3.38883056640625,7.942577838897705,5.690420150756836,0.7580260038375854
1788108365007922400,3.39892236328125,7.937140941619873,5.700902938842773,0.735850989818573
1788108365018015500,3.409015380859375,7.935577869415283,5.706286907196045,0.7105200290679932
1788108365028107000,3.41910693359375,7.938045024871826,5.705502986907959,0.6888980269432068
1788108365038200000,3.429199951171875,7.944255828857422,5.698766231536865,0.6729649901390076
1788108365048293400,3.43929345703125,7.9545111656188965,5.68569803237915,0.6622290015220642
1788108365058384000,3.4493837890625,7.9676737785339355,5.668004989624023,0.6556479930877686
1788108365068479500,3.4594794921875,7.982598781585693,5.647489070892334,0.6511780023574829
1788108365078577700,3.46957763671875,7.9969000816345215,5.62770414352417,0.6469359993934631
1788108365088673000,3.479673095703125,8.008597373962402,5.611551761627197,0.642516016960144
1788108365098768400,3.489768310546875,8.016632080078125,5.600648880004883,0.6374620199203491
1788108365108859000,3.49985888671875,8.019522666931152,5.597214221954346,0.6312170028686523
1788108365118953000,3.509952880859375,8.017528533935547,5.60070276260376,0.6256049871444702
1788108365129042700,3.520042724609375,8.009100914001465,5.613563060760498,0.6182569861412048
1788108365139135500,3.530135498046875,7.9948577880859375,5.634487152099609,0.6122000217437744
1788108365149222000,3.540221923828125,7.976953029632568,5.660040855407715,0.6100450158119202
1788108365159314400,3.550314453125,7.958530902862549,5.685826778411865,0.6108199954032898
1788108365169403600,3.560403564453125,7.942464828491211,5.707522869110107,0.6176270246505737
1788108365179492000,3.5704921875,7.929981231689453,5.723610877990723,0.6290439963340759
1788108365189584400,3.58058447265625,7.921915054321289,5.732975006103516,0.6452010273933411
1788108365199679700,3.5906796875,7.919068813323975,5.73466682434082,0.6647809743881226
1788108365209775400,3.600775390625,7.921023845672607,5.729214191436768,0.6881229877471924
1788108365219871200,3.610871337890625,7.9259867668151855,5.718821048736572,0.7167729735374451
1788108365229963800,3.6209638671875,7.931211948394775,5.7069220542907715,0.752934992313385
1788108365240074200,3.63107421875,7.933767795562744,5.6971001625061035,0.798973023891449
1788108365250168800,3.6411689453125,7.929163932800293,5.694690227508545,0.8595749735832214
1788108365260255700,3.651255859375,7.917121887207031,5.702013969421387,0.9198949933052063
1788108365270343200,3.66134326171875,7.900150775909424,5.716276168823242,0.9756190180778503
1788108365280439600,3.671439453125,7.878100872039795,5.737618923187256,1.0272560119628906
1788108365290521300,3.681521240234375,7.854215145111084,5.762564182281494,1.0696489810943604
1788108365300611800,3.69161181640625,7.832592010498047,5.785478115081787,1.1039570569992065
1788108365310700000,3.701699951171875,7.814148902893066,5.804878234863281,1.1324659585952759
1788108365320799500,3.711799560546875,7.80118989944458,5.817144870758057,1.1585570573806763
1788108365330883800,3.7218837890625,7.7941389083862305,5.821715831756592,1.1828140020370483
1788108365340973800,3.731973876953125,7.792422771453857,5.820108890533447,1.2018840312957764
1788108365351062000,3.74206201171875,7.793510913848877,5.816057205200195,1.2143349647521973
1788108365361154300,3.752154296875,7.798656940460205,5.8071699142456055,1.2238099575042725
1788108365371239000,3.762239013671875,7.807520866394043,5.793115139007568,1.2338720560073853
1788108365381326600,3.77232666015625,7.821029186248779,5.7723069190979,1.245784044265747
1788108365391414800,3.782414794921875,7.839849948883057,5.744194030761719,1.2573649883270264
1788108365401505500,3.792505615234375,7.8640971183776855,5.708250045776367,1.269577980041504
1788108365411588900,3.8025888671875,7.895040035247803,5.66425895690918,1.2745660543441772
1788108365421679600,3.8126796875,7.932021141052246,5.614501953125,1.2650940418243408
1788108365431767800,3.822767822265625,7.9695539474487305,5.566483020782471,1.2411479949951172
1788108365441858000,3.832858154296875,7.998964786529541,5.532219886779785,1.204624056816101
1788108365451940000,3.842940185546875,8.014106750488281,5.519686222076416,1.1606709957122803
1788108365462037000,3.853037109375,8.01330852508545,5.530821800231934,1.1121490001678467
1788108365472124400,3.86312451171875,8.000177383422852,5.55802583694458,1.070283055305481
1788108365482207500,3.87320751953125,7.980992794036865,5.590330123901367,1.044963002204895
1788108365492289800,3.883289794921875,7.960144996643066,5.621945858001709,1.0342910289764404
1788108365502384400,3.89338427734375,7.942495822906494,5.647502899169922,1.0307899713516235
1788108365512471800,3.903471923828125,7.931947231292725,5.662652969360352,1.0288670063018799
1788108365522562600,3.9135625,7.929055213928223,5.666619777679443,1.0293220281600952
1788108365532658700,3.92365869140625,7.934544086456299,5.6586689949035645,1.0307610034942627
1788108365542760700,3.9337607421875,7.947889804840088,5.639986038208008,1.0303560495376587
1788108365552852200,3.943852294921875,7.968891143798828,5.611869812011719,1.0216020345687866
1788108365562948400,3.9539482421875,7.993741989135742,5.579745769500732,1.0032440423965454
1788108365573046000,3.9640458984375,8.020698547363281,5.544906139373779,0.9810389876365662
1788108365583141600,3.9741416015625,8.044853210449219,5.516462802886963,0.9428579807281494
1788108365593228500,3.984228515625,8.062586784362793,5.497763156890869,0.8996019959449768
1788108365603326000,3.994325927734375,8.072466850280762,5.489813804626465,0.8586400151252747
1788108365613419300,4.004419189453125,8.073469161987305,5.493778228759766,0.8231040239334106
1788108365623511600,4.014511474609375,8.066573143005371,5.507466793060303,0.7988839745521545
1788108365633597200,4.02459716796875,8.052760124206543,5.529273986816406,0.7875459790229797
1788108365643695900,4.03469580078125,8.035378456115723,5.553849220275879,0.792119026184082
1788108365653792800,4.044792724609375,8.016999244689941,5.578158855438232,0.8073790073394775
1788108365663880700,4.054880615234375,7.999259948730469,5.601050853729248,0.8246809840202332
1788108365673973200,4.06497314453125,7.983576774597168,5.621523857116699,0.837228000164032
1788108365684069600,4.075069580078125,7.971776962280273,5.637463092803955,0.8424890041351318
1788108365694165200,4.085165283203125,7.964266777038574,5.648382186889648,0.8403459787368774
1788108365704261600,4.09526171875,7.961613178253174,5.652860164642334,0.8353790044784546
1788108365714350300,4.105350341796875,7.965219974517822,5.648512840270996,0.8303859829902649
1788108365724447700,4.11544775390625,7.975563049316406,5.634729862213135,0.8247439861297607
1788108365734533600,4.12553369140625,7.990396976470947,5.614695072174072,0.8177840113639832
1788108365744623900,4.135623779296875,8.005382537841797,5.594888210296631,0.8069239854812622
1788108365754716700,4.145716552734375,8.018306732177734,5.577946186065674,0.7957580089569092
1788108365764801300,4.15580126953125,8.029825210571289,5.563150882720947,0.7831069827079773
1788108365774890800,4.165890869140625,8.03919506072998,5.551775932312012,0.7675510048866272
1788108365784988700,4.17598876953125,8.04545783996582,5.545121192932129,0.7497919797897339
1788108365795072000,4.186072021484375,8.04820442199707,5.543651103973389,0.7309899926185608
1788108365805160700,4.19616064453125,8.047409057617188,5.547293186187744,0.7118319869041443
1788108365815252500,4.20625244140625,8.043827056884766,5.554864883422852,0.6930540204048157
1788108365825348400,4.216348388671875,8.038653373718262,5.564536094665527,0.6753000020980835
1788108365835434000,4.22643408203125,8.033543586730957,5.573883056640625,0.6587839722633362
1788108365845531100,4.23653125,8.029560089111328,5.581297874450684,0.644402027130127
1788108365855620000,4.2466201171875,8.027036666870117,5.586281776428223,0.6325460076332092
1788108365865709300,4.256709228515625,8.026612281799316,5.587862968444824,0.6238980293273926
1788108365875798800,4.266798828125,8.027286529541016,5.587320804595947,0.620074987411499
1788108365885886500,4.276886474609375,8.028556823730469,5.585886001586914,0.6165930032730103
1788108365895976400,4.2869765625,8.031477928161621,5.582310199737549,0.6108800172805786
1788108365906067500,4.2970673828125,8.035991668701172,5.576704978942871,0.6026589870452881
1788108365916160800,4.307160888671875,8.043697357177734,5.566620826721191,0.5930110216140747
1788108365926251800,4.317251708984375,8.054830551147461,5.551279067993164,0.5856379866600037
1788108365936350000,4.327349853515625,8.068416595458984,5.531782150268555,0.5830870270729065
1788108365946442000,4.33744189453125,8.084127426147461,5.508512020111084,0.5858209729194641
1788108365956539100,4.3475390625,8.102320671081543,5.480776786804199,0.5945159792900085
1788108365966627300,4.35762744140625,8.124869346618652,5.445562839508057,0.6102020144462585
1788108365976727300,4.367727294921875,8.154363632202148,5.3990092277526855,0.630128026008606
1788108365986816800,4.377816650390625,8.190191268920898,5.341928958892822,0.6515769958496094
1788108365996910600,4.38791064453125,8.230491638183594,5.277443885803223,0.6690070033073425
1788108366006993700,4.39799365234375,8.270437240600586,5.2136969566345215,0.6761720180511475
1788108366017088300,4.408088134765625,8.305793762207031,5.157827854156494,0.6712509989738464
1788108366027176200,4.41817626953125,8.331663131713867,5.117739200592041,0.6573770046234131
1788108366037277400,4.42827734375,8.346559524536133,5.095426082611084,0.6415519714355469
1788108366047375000,4.438375,8.349783897399902,5.091308116912842,0.6321899890899658
1788108366057478400,4.448478515625,8.34408187866211,5.100503921508789,0.6333330273628235
1788108366067599000,4.45859912109375,8.332426071166992,5.118301868438721,0.6431459784507751
1788108366077693700,4.468693603515625,8.31672191619873,5.142078876495361,0.6566600203514099
1788108366087783700,4.47878369140625,8.299617767333984,5.168199062347412,0.6678709983825684
1788108366097878000,4.4888779296875,8.281111717224121,5.197713851928711,0.6685360074043274
1788108366107963100,4.498963134765625,8.260458946228027,5.232212066650391,0.6547650098800659
1788108366118058000,4.50905810546875,8.238759994506836,5.269144058227539,0.6315839886665344
1788108366128146000,4.51914599609375,8.219444274902344,5.3021721839904785,0.6063569784164429
1788108366138237000,4.52923681640625,8.207559585571289,5.322693824768066,0.5872730016708374
1788108366148328700,4.53932861328125,8.207697868347168,5.323369026184082,0.579168975353241
1788108366158440000,4.54943994140625,8.221673011779785,5.301753997802734,0.5792019963264465
1788108366168531500,4.559531494140625,8.248184204101562,5.26079797744751,0.5756739974021912
1788108366178621000,4.569620849609375,8.28442096710205,5.2051591873168945,0.5610359907150269
1788108366188711700,4.579711669921875,8.327348709106445,5.1389689445495605,0.5349680185317993
1788108366198807300,4.589807373046875,8.37398624420166,5.066096782684326,0.500976026058197
1788108366208901600,4.599901611328125,8.42092227935791,4.991464138031006,0.4619449973106384
1788108366218993000,4.609992919921875,8.463301658630371,4.92285680770874,0.4219079911708832
1788108366229077500,4.620077392578125,8.497913360595703,4.866055965423584,0.383417010307312
1788108366239176400,4.630176513671875,8.524435043334961,4.821963787078857,0.35026198625564575
1788108366249268200,4.640268310546875,8.544249534606934,4.788634777069092,0.3235569894313812
1788108366259367400,4.650367431640625,8.558656692504883,4.764063835144043,0.3051320016384125
1788108366269453600,4.66045361328125,8.568988800048828,4.746106147766113,0.2947950065135956
1788108366279535000,4.67053515625,8.577293395996094,4.731445789337158,0.2889760136604309
1788108366289624000,4.6806240234375,8.586191177368164,4.71550989151001,0.2851710021495819
1788108366299712800,4.690712646484375,8.598118782043457,4.693841934204102,0.2831059992313385
1788108366309799400,4.70079931640625,8.614117622375488,4.664292812347412,0.28525999188423157
1788108366319896600,4.710896484375,8.634186744689941,4.626465797424316,0.2943730056285858
1788108366329989600,4.72098974609375,8.65858268737793,4.579469203948975,0.3119939863681793
1788108366340084700,4.731084716796875,8.687952041625977,4.521819114685059,0.33566799759864807
1788108366350177800,4.741177734375,8.721893310546875,4.453890800476074,0.362529993057251
1788108366360268000,4.75126806640625,8.760194778442383,4.375649929046631,0.39063501358032227
1788108366370364200,4.7613642578125,8.802144050598145,4.28814697265625,0.41718798875808716
1788108366380455000,4.771454833984375,8.847102165222168,4.192287921905518,0.4399090111255646
1788108366390536400,4.781536376953125,8.894560813903809,4.088848114013672,0.45615899562835693
1788108366400630000,4.791630126953125,8.942181587219238,3.9825360774993896,0.4656029939651489
1788108366410722600,4.80172265625,8.98727798461914,3.878812074661255,0.4728820025920868
1788108366420818200,4.811818115234375,9.027491569519043,3.783397912979126,0.4799259901046753
1788108366430907600,4.82190771484375,9.061431884765625,3.700666904449463,0.48531898856163025
1788108366440988000,4.83198779296875,9.088282585144043,3.633544921875,0.4903840124607086
1788108366451074300,4.84207421875,9.106657028198242,3.5862340927124023,0.49774399399757385
1788108366461163500,4.85216357421875,9.116623878479004,3.5596001148223877,0.5063499808311462
1788108366471248600,4.86224853515625,9.120218276977539,3.5487759113311768,0.5175049901008606
1788108366481340700,4.872340576171875,9.120030403137207,3.547034978866577,0.532535970211029
1788108366491419600,4.882419677734375,9.118001937866211,3.5495240688323975,0.5503799915313721
1788108366501512200,4.89251220703125,9.11577033996582,3.552069902420044,0.570510983467102
1788108366511597800,4.902597900390625,9.11609935760498,3.548068046569824,0.5898860096931458
1788108366521689900,4.91268994140625,9.119187355041504,3.537532091140747,0.6052219867706299
1788108366531769900,4.922769775390625,9.12506103515625,3.5213510990142822,0.6110600233078003
1788108366541860600,4.932860595703125,9.132427215576172,3.5027849674224854,0.6077060103416443
1788108366551937800,4.942937744140625,9.139330863952637,3.486193895339966,0.5992439985275269
1788108366562030300,4.9530302734375,9.143933296203613,3.4753799438476562,0.5918089747428894
1788108366572115500,4.963115478515625,9.14670467376709,3.468869924545288,0.5871310234069824
1788108366582219300,4.97321923828125,9.148582458496094,3.464539051055908,0.5834779739379883
1788108366592320800,4.98332080078125,9.150330543518066,3.4610610008239746,0.5766540169715881
1788108366602413000,4.9934130859375,9.150833129882812,3.4611430168151855,0.5680930018424988
1788108366612500000,5.0035,9.148870468139648,3.4674289226531982,0.5613150000572205
1788108366622590000,5.01358984375,9.143633842468262,3.481811046600342,0.5576199889183044
1788108366632672800,5.0236728515625,9.135501861572266,3.5030789375305176,0.557686984539032
1788108366642768600,5.0337685546875,9.12614631652832,3.5269598960876465,0.560368001461029
1788108366652850400,5.043850341796875,9.117134094238281,3.5498719215393066,0.5623610019683838
1788108366662948000,5.053947998046875,9.109419822692871,3.569638967514038,0.5622640252113342
1788108366673038000,5.0640380859375,9.103515625,3.585115909576416,0.5594210028648376
1788108366683134500,5.074134521484375,9.099152565002441,3.5974009037017822,0.5515090227127075
1788108366693227500,5.0842275390625,9.095856666564941,3.6077051162719727,0.5384119749069214
1788108366703318000,5.094318115234375,9.092142105102539,3.619908094406128,0.518841028213501
1788108366713412900,5.104412841796875,9.086769104003906,3.6361939907073975,0.4987429976463318
1788108366723510500,5.114510498046875,9.082832336425781,3.644943952560425,0.5064870119094849
1788108366733588700,5.124588623046875,9.072732925415039,3.6733219623565674,0.4819520115852356
1788108366743680500,5.134680419921875,9.060223579406738,3.706295967102051,0.46442198753356934
1788108366753771300,5.144771240234375,9.045280456542969,3.7453200817108154,0.4421980082988739
1788108366763861800,5.15486181640625,9.028857231140137,3.786561965942383,0.4263269901275635
1788108366773947100,5.164947021484375,9.012755393981934,3.825705051422119,0.41740599274635315
1788108366784035600,5.17503564453125,8.999388694763184,3.8568780422210693,0.4189859926700592
1788108366794122200,5.185122314453125,8.991066932678223,3.8752520084381104,0.4279150068759918
1788108366804247600,5.19524755859375,8.989356994628906,3.878182888031006,0.4371899962425232
1788108366814336300,5.205336181640625,8.993560791015625,3.867763042449951,0.4429900050163269
1788108366824430600,5.2154306640625,9.001099586486816,3.85025691986084,0.44240498542785645
1788108366834577200,5.2255771484375,9.008904457092285,3.832292079925537,0.4395279884338379
1788108366844671000,5.2356708984375,9.01406478881836,3.8200180530548096,0.44057101011276245
1788108366854763300,5.24576318359375,9.015576362609863,3.8154261112213135,0.44931599497795105
1788108366864857600,5.255857666015625,9.013755798339844,3.817373037338257,0.46891599893569946
1788108366874954000,5.2659541015625,9.010765075683594,3.820862054824829,0.49713200330734253
1788108366885039400,5.276039306640625,9.009404182434082,3.8197169303894043,0.5295400023460388
1788108366895131100,5.286131103515625,9.012350082397461,3.8086769580841064,0.5581560134887695
1788108366905221600,5.2962216796875,9.024117469787598,3.7714529037475586,0.6176239848136902
1788108366915310300,5.306310302734375,9.041961669921875,3.7164969444274902,0.6860089898109436
1788108366925400300,5.316400390625,9.058107376098633,3.675899028778076,0.6917189955711365
1788108366935489300,5.3264892578125,9.07122802734375,3.6456658840179443,0.679623007774353
1788108366945579800,5.336579833984375,9.07943058013916,3.629878044128418,0.6541860103607178
1788108366955671800,5.346671875,9.079394340515137,3.6338839530944824,0.6320539712905884
1788108366965769700,5.356769775390625,9.070157051086426,3.6589009761810303,0.620248019695282
1788108366975864600,5.366864501953125,9.055070877075195,3.695827007293701,0.6217169761657715
1788108366985961500,5.37696142578125,9.038163185119629,3.7350189685821533,0.6334570050239563
1788108366996051200,5.38705126953125,9.023947715759277,3.7667388916015625,0.6481299996376038
1788108367006142000,5.397141845703125,9.014625549316406,3.7866721153259277,0.6615520119667053
1788108367016231700,5.407231689453125,9.011130332946777,3.7932140827178955,0.6716409921646118
1788108367026328300,5.417328369140625,9.013456344604492,3.7874770164489746,0.672773003578186
1788108367036429300,5.42742919921875,9.018974304199219,3.7761340141296387,0.6624850034713745
1788108367046518300,5.437518310546875,9.024688720703125,3.765317916870117,0.6460270285606384
1788108367056610800,5.44761083984375,9.028461456298828,3.758683919906616,0.6318439841270447
1788108367066702600,5.45770263671875,9.028336524963379,3.759584903717041,0.6282079815864563
1788108367076802600,5.467802490234375,9.024426460266113,3.7671000957489014,0.639316976070404
1788108367086904300,5.477904296875,9.018911361694336,3.7761590480804443,0.6632080078125
1788108367096988700,5.48798876953125,9.014607429504395,3.7815229892730713,0.690563976764679
1788108367107083300,5.498083251953125,9.013233184814453,3.7803258895874023,0.7147060036659241
1788108367117166300,5.508166259765625,9.015771865844727,3.7711050510406494,0.7311930060386658
1788108367127257000,5.518257080078125,9.02138614654541,3.7565300464630127,0.7369269728660583
1788108367137342000,5.528342041015625,9.027995109558105,3.7412331104278564,0.733843982219696
1788108367147443500,5.538443359375,9.032933235168457,3.730762004852295,0.7263320088386536
1788108367157526800,5.54852685546875,9.03404712677002,3.729846954345703,0.7171210050582886
1788108367167619800,5.558619873046875,9.03060245513916,3.73990797996521,0.7080680131912231
1788108367177712600,5.568712646484375,9.022395133972168,3.7609200477600098,0.7013390064239502
1788108367187806500,5.578806396484375,9.008844375610352,3.7932839393615723,0.7012460231781006
1788108367197891600,5.5888916015625,8.991891860961914,3.8323519229888916,0.7063770294189453
1788108367207987000,5.598987060546875,8.974686622619629,3.870642900466919,0.7163220047950745
1788108367218080000,5.609080078125,8.960516929626465,3.9012439250946045,0.7276430130004883
1788108367228186000,5.61918603515625,8.950739860534668,3.9217960834503174,0.7373819947242737
1788108367238272500,5.6292724609375,8.946694374084473,3.930238962173462,0.7415279746055603
1788108367248371200,5.63937109375,8.948360443115234,3.927232027053833,0.7373319864273071
1788108367258463200,5.649463134765625,8.953224182128906,3.9181389808654785,0.7266409993171692
1788108367268551200,5.65955126953125,8.958300590515137,3.9089739322662354,0.7132930159568787
1788108367278646300,5.669646240234375,8.961540222167969,3.903815984725952,0.7006949782371521
1788108367298843400,5.689843505859375,8.960453033447266,3.9078500270843506,0.6920869946479797
1788108367308937200,5.699937255859375,8.95864200592041,3.910754919052124,0.6991090178489685
1788108367319032600,5.710032470703125,8.958282470703125,3.909605026245117,0.7100520133972168
1788108367329125000,5.720125,8.959781646728516,3.9042348861694336,0.7206159830093384
1788108367339209700,5.730209716796875,8.96296501159668,3.8958120346069336,0.7265869975090027
1788108367349307000,5.740306884765625,8.966842651367188,3.8867828845977783,0.7270900011062622
1788108367359397000,5.750397216796875,8.97043228149414,3.878896951675415,0.724918007850647
1788108367369488000,5.76048779296875,8.973058700561523,3.8732988834381104,0.7223479747772217
1788108367379580000,5.770579833984375,8.974353790283203,3.8701748847961426,0.7230049967765808
1788108367389679600,5.7806796875,8.974474906921387,3.868907928466797,0.7282599806785583
1788108367399778000,5.790778076171875,8.974933624267578,3.866544008255005,0.7351419925689697
1788108367409871000,5.80087109375,8.976651191711426,3.86183500289917,0.7388910055160522
1788108367419960000,5.8109599609375,8.979217529296875,3.8570070266723633,0.7328850030899048
1788108367430049300,5.82104931640625,8.981284141540527,3.8549859523773193,0.71806800365448
1788108367440145700,5.831145751953125,8.981358528137207,3.858146905899048,0.699940025806427
1788108367450240000,5.841239990234375,8.978476524353027,3.867000102996826,0.6879540085792542
1788108367460340500,5.851340576171875,8.973833084106445,3.8781020641326904,0.6860420107841492
1788108367470432800,5.861432861328125,8.969011306762695,3.8878769874572754,0.6937350034713745
1788108367480520700,5.871520751953125,8.96580982208252,3.8928420543670654,0.707131028175354
1788108367500707600,5.89170751953125,8.972227096557617,3.87324595451355,0.7328969836235046
1788108367510802000,5.901802001953125,8.98265552520752,3.8482539653778076,0.7367929816246033
1788108367520891100,5.91189111328125,8.995698928833008,3.8181240558624268,0.7343779802322388
1788108367530973200,5.92197314453125,9.009005546569824,3.787777900695801,0.7284110188484192
1788108367541067300,5.9320673828125,9.020119667053223,3.7625489234924316,0.7215719819068909
1788108367551152400,5.94215234375,9.027153015136719,3.7463231086730957,0.7180290222167969
1788108367561238500,5.952238525390625,9.029236793518066,3.741353988647461,0.7177450060844421
1788108367571334000,5.962333984375,9.02558422088623,3.749664068222046,0.720287024974823
1788108367581421800,5.972421875,9.016619682312012,3.769742965698242,0.7277380228042603
1788108367591511000,5.982510986328125,9.004342079162598,3.7964179515838623,0.7409589886665344
1788108367601597200,5.99259716796875,8.990455627441406,3.825773000717163,0.7584019899368286
1788108367611682600,6.0026826171875,8.977184295654297,3.852607011795044,0.7795259952545166
1788108367621774800,6.01277490234375,8.965778350830078,3.8744590282440186,0.8021399974822998
1788108367631861000,6.022861083984375,8.958243370056152,3.887115001678467,0.8247569799423218
1788108367641951700,6.03295166015625,8.95533561706543,3.8895161151885986,0.844760000705719
1788108367652039200,6.0430390625,8.95689868927002,3.8830699920654297,0.8577479720115662
1788108367662137600,6.0531376953125,8.961145401000977,3.871377944946289,0.8662189841270447
1788108367672222200,6.06322216796875,8.96546459197998,3.8601129055023193,0.8717569708824158
1788108367682318600,6.073318603515625,8.968466758728027,3.8521759510040283,0.875993013381958
1788108367692410000,6.08341015625,8.969217300415039,3.849980115890503,0.8779590129852295
1788108367702513700,6.093513671875,8.966967582702637,3.8541669845581055,0.882532000541687
1788108367712607200,6.103607177734375,8.961862564086914,3.8642780780792236,0.8901469707489014
1788108367722707000,6.11370703125,8.954968452453613,3.8783979415893555,0.8981209993362427
1788108367732805000,6.12380517578125,8.94684886932373,3.896198034286499,0.9019790291786194
1788108367742884400,6.13388427734375,8.937923431396484,3.917309045791626,0.8990179896354675
1788108367752981000,6.14398095703125,8.926819801330566,3.9442219734191895,0.8916190266609192
1788108367763068400,6.154068359375,8.913460731506348,3.976573944091797,0.8815079927444458
1788108367773165300,6.164165283203125,8.897456169128418,4.014123916625977,0.8729789853096008
1788108367783255000,6.174255126953125,8.878969192504883,4.056171894073486,0.8668079972267151
1788108367793338000,6.184338134765625,8.859121322631836,4.100787162780762,0.8599720001220703
1788108367803430400,6.194430419921875,8.8383150100708,4.147478103637695,0.8500620126724243
1788108367813527300,6.20452734375,8.817338943481445,4.194108963012695,0.8390380144119263
1788108367823620900,6.214620849609375,8.797221183776855,4.237804889678955,0.8305739760398865
1788108367833715700,6.2247158203125,8.77898120880127,4.276312828063965,0.8262280225753784
1788108367843811600,6.2348115234375,8.764098167419434,4.307058811187744,0.8244630098342896
1788108367853897500,6.2448974609375,8.753366470336914,4.329331874847412,0.8218610286712646
1788108367863993600,6.25499365234375,8.747109413146973,4.342955112457275,0.816556990146637
1788108367874085000,6.265085205078125,8.744624137878418,4.349700927734375,0.8072460293769836
1788108367884182500,6.2751826171875,8.74411678314209,4.35341215133667,0.7925500273704529
1788108367894276000,6.285276123046875,8.744154930114746,4.356184005737305,0.7767879962921143
1788108367904361000,6.29536083984375,8.74345588684082,4.359461784362793,0.7661640048027039
1788108367914451200,6.305451171875,8.741517066955566,4.36414098739624,0.7616419792175293
1788108367924543500,6.31554345703125,8.739874839782715,4.367005825042725,0.7640889883041382
1788108367934634000,6.325634033203125,8.740796089172363,4.363836765289307,0.7716249823570251
1788108367944735500,6.335735595703125,8.7462797164917,4.351349830627441,0.7799410223960876
1788108367954828300,6.345828369140625,8.75765609741211,4.32781982421875,0.7832130193710327
1788108367964928000,6.355927978515625,8.774933815002441,4.293832778930664,0.7769160270690918
1788108367975024600,6.366024658203125,8.796351432800293,4.252631187438965,0.7611719965934753
1788108367985117700,6.37611767578125,8.819304466247559,4.209377765655518,0.7355890274047852
1788108367995209000,6.386208984375,8.840270042419434,4.170845985412598,0.7025989890098572
1788108368005304000,6.396303955078125,8.855646133422852,4.144153118133545,0.6659510135650635
1788108368015391000,6.406390869140625,8.863482475280762,4.1328959465026855,0.6307399868965149
1788108368025486800,6.41648681640625,8.863515853881836,4.136837005615234,0.6039010286331177
1788108368035577900,6.426577880859375,8.856807708740234,4.153240203857422,0.5895419716835022
1788108368045662200,6.436662109375,8.846235275268555,4.176352024078369,0.5849519968032837
1788108368055759400,6.44675927734375,8.835836410522461,4.1981282234191895,0.5862470269203186
1788108368065850600,6.4568505859375,8.828638076782227,4.213140964508057,0.5870169997215271
1788108368075943000,6.46694287109375,8.826654434204102,4.217613220214844,0.5846790075302124
1788108368086023400,6.4770234375,8.830802917480469,4.2100090980529785,0.5768550038337708
1788108368096112400,6.4871123046875,8.840163230895996,4.1925740242004395,0.560204029083252
1788108368106200800,6.497200927734375,8.85240364074707,4.169734954833984,0.5368930101394653
1788108368116296700,6.507296630859375,8.865287780761719,4.145289897918701,0.5130599737167358
1788108368126391800,6.517391845703125,8.87643814086914,4.123612880706787,0.49462801218032837
1788108368136486400,6.527486328125,8.884271621704102,4.107898235321045,0.48464199900627136
1788108368146577200,6.5375771484375,8.889375686645508,4.096768856048584,0.48524999618530273
1788108368166776300,6.5577763671875,8.896800994873047,4.078219890594482,0.5049880146980286
1788108368176874200,6.567874267578125,8.901899337768555,4.066273212432861,0.5114930272102356
1788108368186954000,6.5779541015625,8.907421112060547,4.05462121963501,0.5078539848327637
1788108368197048800,6.588048828125,8.911502838134766,4.047165870666504,0.4955509901046753
1788108368207133700,6.5981337890625,8.912044525146484,4.047766208648682,0.48066800832748413
1788108368217237000,6.608237060546875,8.907917022705078,4.058129787445068,0.4696820080280304
1788108368227323100,6.6183232421875,8.89905071258545,4.077859878540039,0.46681299805641174
1788108368237412900,6.628412841796875,8.886604309082031,4.104237079620361,0.4727639853954315
1788108368247498000,6.638498046875,8.872364044189453,4.133639812469482,0.48391300439834595
1788108368257604600,6.6486044921875,8.858781814575195,4.160594940185547,0.5013729929924011
1788108368267702000,6.658701904296875,8.847248077392578,4.182271957397461,0.524200975894928
1788108368277791700,6.668791748046875,8.83971881866455,4.1948418617248535,0.5502070188522339
1788108368287879700,6.678879638671875,8.838069915771484,4.194887161254883,0.5756999850273132
1788108368297966800,6.688966796875,8.843517303466797,4.1806640625,0.5952270030975342
1788108368308052200,6.69905224609375,8.8555908203125,4.153533935546875,0.6054850220680237
1788108368318146300,6.709146240234375,8.872504234313965,4.116671085357666,0.6095960140228271
1788108368328237600,6.719237548828125,8.891575813293457,4.075440883636475,0.6088100075721741
1788108368338332400,6.72933251953125,8.909768104553223,4.036099910736084,0.604885995388031
1788108368348423200,6.739423095703125,8.92551326751709,4.001792907714844,0.6007109880447388
1788108368358520300,6.749520263671875,8.938136100769043,3.9737749099731445,0.5990139842033386
1788108368368622300,6.759622314453125,8.94840145111084,3.9500389099121094,0.6027770042419434
1788108368378721300,6.76972119140625,8.957019805908203,3.929335117340088,0.6100080013275146
1788108368388817400,6.7798173828125,8.964887619018555,3.910099983215332,0.618028998374939
1788108368398907100,6.7899072265625,8.973419189453125,3.889275074005127,0.6254850029945374
1788108368409041400,6.80004150390625,8.982565879821777,3.867292881011963,0.6305199861526489
1788108368419134000,6.810134033203125,8.991594314575195,3.8456459045410156,0.6342200040817261
1788108368429230000,6.82022998046875,8.999798774719238,3.8258190155029297,0.6377360224723816
1788108368439315000,6.83031494140625,9.007200241088867,3.8074259757995605,0.6433050036430359
1788108368449414700,6.84041455078125,9.014030456542969,3.7896499633789062,0.6525689959526062
1788108368459503900,6.85050390625,9.020474433898926,3.7718660831451416,0.666450023651123
1788108368469604600,6.8606044921875,9.027681350708008,3.7513909339904785,0.6841700077056885
1788108368479697000,6.87069677734375,9.036014556884766,3.727384090423584,0.705033004283905
1788108368489796900,6.880796875,9.046256065368652,3.698267936706543,0.726656973361969
1788108368499871500,6.89087158203125,9.058725357055664,3.663508892059326,0.7471209764480591
1788108368509968100,6.900968017578125,9.073451042175293,3.6228630542755127,0.7663869857788086
1788108368520058600,6.91105859375,9.089694023132324,3.5778419971466064,0.7851510047912598
1788108368530152000,6.92115185546875,9.10626220703125,3.5316359996795654,0.8021529912948608
1788108368540249000,6.9312490234375,9.121673583984375,3.488171100616455,0.8171949982643127
1788108368550346200,6.94134619140625,9.134527206420898,3.4513490200042725,0.8297889828681946
1788108368560435000,6.95143505859375,9.143699645996094,3.424565076828003,0.8396790027618408
1788108368570521300,6.961521240234375,9.147549629211426,3.412935972213745,0.8450959920883179
1788108368580608000,6.97160791015625,9.145015716552734,3.418705940246582,0.8491899967193604
1788108368590702800,6.981702880859375,9.136123657226562,3.4405269622802734,0.8567489981651306
1788108368600796000,6.9917958984375,9.121920585632324,3.475325107574463,0.867592990398407
1788108368610884600,7.001884521484375,9.104703903198242,3.5168380737304688,0.8810020089149475
1788108368620970500,7.011970458984375,9.087204933166504,3.5583300590515137,0.8949819803237915
1788108368631052500,7.022052490234375,9.071297645568848,3.595633029937744,0.9071840047836304
1788108368641141000,7.03214111328125,9.058141708374023,3.6257131099700928,0.918844997882843
1788108368651230700,7.042230712890625,9.04873275756836,3.6461949348449707,0.930433988571167
1788108368661316400,7.05231640625,9.0433988571167,3.6563570499420166,0.9423279762268066
1788108368671403300,7.0624033203125,9.042440414428711,3.655333995819092,0.9554020166397095
1788108368681494500,7.07249462890625,9.045132637023926,3.6455109119415283,0.9673870205879211
1788108368701671000,7.0926708984375,9.056360244750977,3.610975980758667,0.9915419816970825
1788108368711768600,7.1027685546875,9.064705848693848,3.5858469009399414,1.0063660144805908
1788108368721848800,7.112848876953125,9.07424259185791,3.558084011077881,1.0189100503921509
1788108368731940400,7.1229404296875,9.083773612976074,3.5315489768981934,1.0262609720230103
1788108368742030000,7.133030029296875,9.091117858886719,3.512765884399414,1.0256680250167847
1788108368752126200,7.143126220703125,9.093497276306152,3.5094869136810303,1.015768051147461
1788108368762215200,7.153215087890625,9.088279724121094,3.527316093444824,1.000599980354309
1788108368772307000,7.163306884765625,9.074400901794434,3.5657849311828613,0.9901620149612427
1788108368782405400,7.1734052734375,9.052889823913574,3.6199519634246826,0.990513026714325
1788108368802583800,7.193583740234375,8.998682975769043,3.7480080127716064,1.0080360174179077
1788108368812689000,7.20368896484375,8.971456527709961,3.810525894165039,1.0162910223007202
1788108368822785300,7.213785400390625,8.946697235107422,3.8671669960021973,1.0206190347671509
1788108368832935200,7.22393505859375,8.924949645996094,3.91713809967041,1.0204600095748901
1788108368843024000,7.23402392578125,8.90666389465332,3.9595680236816406,1.016471028327942
1788108368853119000,7.244118896484375,8.890868186950684,3.9965898990631104,1.0098190307617188
1788108368863212000,7.2542119140625,8.876782417297363,4.030242919921875,0.9999330043792725
1788108368873308200,7.26430810546875,8.863052368164062,4.063405990600586,0.9874539971351624
1788108368883393500,7.2743935546875,8.848151206970215,4.099161148071289,0.9731820225715637
1788108368893487600,7.284487548828125,8.830686569213867,4.139682769775391,0.9602289795875549
1788108368903572000,7.294572021484375,8.81075668334961,4.183979034423828,0.9512559771537781
1788108368913664300,7.304664306640625,8.789661407470703,4.229252815246582,0.9462080001831055
1788108368923765500,7.314765625,8.769010543823242,4.272758960723877,0.9423509836196899
1788108368933855000,7.32485498046875,8.750492095947266,4.3119001388549805,0.9361609816551208
1788108368943952400,7.334952392578125,8.734905242919922,4.3457112312316895,0.925337016582489
1788108368954045700,7.345045654296875,8.721922874450684,4.375153064727783,0.9089120030403137
1788108368964139800,7.355139892578125,8.710561752319336,4.401900768280029,0.8884850144386292
1788108368974242600,7.36524267578125,8.700632095336914,4.425425052642822,0.8687030076980591
1788108368984335400,7.37533544921875,8.692663192749023,4.44455623626709,0.8506039977073669
1788108368994426600,7.385426513671875,8.6871976852417,4.458393096923828,0.833856999874115
1788108369004516400,7.395516357421875,8.684849739074707,4.466170787811279,0.8165079951286316
1788108369014611000,7.40561083984375,8.686483383178711,4.466338157653809,0.798026978969574
1788108369024713500,7.41571337890625,8.692676544189453,4.4577531814575195,0.7783640027046204
1788108369034829600,7.42582958984375,8.704127311706543,4.4390058517456055,0.7572469711303711
1788108369044916000,7.435916015625,8.720405578613281,4.410552024841309,0.7358909845352173
1788108369055007500,7.446007568359375,8.740982055664062,4.373016834259033,0.7155479788780212
1788108369065094100,7.45609423828125,8.764628410339355,4.32863187789917,0.6958780288696289
1788108369075184000,7.46618408203125,8.790051460266113,4.280127048492432,0.6749160289764404
1788108369085274600,7.476274658203125,8.816441535949707,4.228841781616211,0.6536340117454529
1788108369095368400,7.486368408203125,8.842692375183105,4.176958084106445,0.6322460174560547
1788108369105448400,7.496448486328125,8.867753982543945,4.126530170440674,0.6121399998664856
1788108369115556600,7.506556640625,8.891383171081543,4.07767915725708,0.5965610146522522
1788108369125648000,7.51664794921875,8.914023399353027,4.029480934143066,0.5860509872436523
1788108369135736600,7.526736572265625,8.93641471862793,3.980707883834839,0.5782690048217773
1788108369145830700,7.53683056640625,8.958341598510742,3.932209014892578,0.5708439946174622
1788108369155921200,7.546921142578125,8.97895336151123,3.8861920833587646,0.5621280074119568
1788108369166000400,7.55700048828125,8.998015403747559,3.843190908432007,0.5528650283813477
1788108369176087000,7.567087158203125,9.0148286819458,3.8050949573516846,0.5423460006713867
1788108369186175500,7.577175537109375,9.028629302978516,3.773906946182251,0.5305200219154358
1788108369196277000,7.587277099609375,9.039132118225098,3.750335931777954,0.5187320113182068
1788108369206370000,7.5973701171875,9.04587459564209,3.735023021697998,0.5116440057754517
1788108369216461600,7.607461669921875,9.048370361328125,3.728816032409668,0.5127379894256592
1788108369226553000,7.617552978515625,9.047571182250977,3.729079008102417,0.5248000025749207
1788108369236647200,7.627647216796875,9.045379638671875,3.7312910556793213,0.5464069843292236
1788108369246739000,7.637739013671875,9.045003890991211,3.727977991104126,0.5745409727096558
1788108369256834000,7.647833984375,9.048177719116211,3.716041088104248,0.6011999845504761
1788108369266942200,7.657942138671875,9.055173873901367,3.69600510597229,0.6191840171813965
1788108369277038600,7.66803857421875,9.063705444335938,3.6733999252319336,0.6288459897041321
1788108369287126500,7.67812646484375,9.071452140808105,3.6534149646759033,0.6335139870643616
1788108369297223200,7.68822314453125,9.07690143585205,3.639401912689209,0.6360970139503479
1788108369307312000,7.69831201171875,9.078311920166016,3.6354639530181885,0.6385110020637512
1788108369317408500,7.708408447265625,9.07494831085205,3.642648935317993,0.6453099846839905
1788108369327492000,7.7184921875,9.066973686218262,3.6603150367736816,0.6573449969291687
1788108369337591000,7.728591064453125,9.056159973144531,3.6836040019989014,0.6760939955711365
1788108369347679500,7.738679443359375,9.044137954711914,3.7087080478668213,0.6993510127067566
1788108369357776000,7.74877587890625,9.03296184539795,3.7316598892211914,0.7213029861450195
1788108369367864600,7.758864501953125,9.023797035217285,3.750588893890381,0.7376559972763062
1788108369377956400,7.768956298828125,9.01717758178711,3.76432204246521,0.7485939860343933
1788108369388042500,7.77904248046875,9.012809753417969,3.7731409072875977,0.7567499876022339
1788108369398135800,7.7891357421875,9.010607719421387,3.7766740322113037,0.7652980089187622
1788108369408228400,7.799228271484375,9.010235786437988,3.774614095687866,0.779699981212616
1788108369418327000,7.8093271484375,9.011933326721191,3.766433000564575,0.7994130253791809
1788108369428416800,7.819416748046875,9.016168594360352,3.7516520023345947,0.8208410143852234
1788108369438505700,7.829505615234375,9.02343463897705,3.729482889175415,0.8417450189590454
1788108369448597000,7.839596923828125,9.034284591674805,3.699047088623047,0.8595139980316162
1788108369458691800,7.84969189453125,9.04782772064209,3.662492036819458,0.8735139966011047
1788108369468800000,7.859800048828125,9.062661170959473,3.6228299140930176,0.8850399851799011
1788108369478888700,7.869888671875,9.07906723022461,3.578995943069458,0.8951619863510132
1788108369488980700,7.879980712890625,9.09738826751709,3.530189037322998,0.9029219746589661
1788108369499071200,7.8900712890625,9.1175537109375,3.476778030395508,0.9067710041999817
1788108369509165000,7.9001650390625,9.139152526855469,3.419680118560791,0.9064670205116272
1788108369519261000,7.910260986328125,9.16119384765625,3.361699104309082,0.9008370041847229
1788108369529358300,7.9203583984375,9.181642532348633,3.3088839054107666,0.8880829811096191
1788108369539450600,7.93045068359375,9.198257446289062,3.2676799297332764,0.8684999942779541
1788108369549534200,7.9405341796875,9.209933280944824,3.2407479286193848,0.8453530073165894
1788108369559623000,7.950622802734375,9.216862678527832,3.226370096206665,0.8246210217475891
1788108369569717200,7.96071728515625,9.2202787399292,3.2199690341949463,0.8113170266151428
1788108369579811300,7.970811279296875,9.222307205200195,3.2156529426574707,0.8053709864616394
1788108369589907000,7.980906982421875,9.224388122558594,3.2105369567871094,0.8019329905509949
1788108369599997200,7.9909970703125,9.226804733276367,3.204840898513794,0.7968969941139221
1788108369610094000,8.001093994140625,9.229178428649902,3.200000047683716,0.7888619899749756
1788108369620186600,8.0111865234375,9.231322288513184,3.196039915084839,0.7797669768333435
1788108369630283800,8.02128369140625,9.232972145080566,3.19370698928833,0.7697070240974426
1788108369640380400,8.03138037109375,9.233955383300781,3.1929380893707275,0.7610570192337036
1788108369650527000,8.04152685546875,9.234305381774902,3.1938230991363525,0.7530540227890015
1788108369660654600,8.051654541015624,9.233633995056152,3.198180913925171,0.7427240014076233
1788108369670748700,8.061748779296876,9.23095703125,3.20845890045166,0.7316139936447144
1788108369680843000,8.071843017578125,9.225489616394043,3.2261250019073486,0.7228429913520813
1788108369690931200,8.08193115234375,9.216543197631836,3.2522730827331543,0.7197570204734802
1788108369701018600,8.0920185546875,9.203713417053223,3.2874300479888916,0.7242119908332825
1788108369711123700,8.102123779296875,9.1881685256958,3.3277909755706787,0.7371289730072021
1788108369721216800,8.112216796875,9.171326637268066,3.369342088699341,0.757843017578125
1788108369731309300,8.122309326171875,9.154401779174805,3.408682107925415,0.7860029935836792
1788108369741402600,8.132402587890626,9.138296127319336,3.4436419010162354,0.8202909827232361
1788108369751486700,8.14248681640625,9.123688697814941,3.4725699424743652,0.859978973865509
1788108369761579000,8.1525791015625,9.111105918884277,3.493989944458008,0.905377984046936
1788108369771670300,8.162670166015625,9.101621627807617,3.50504994392395,0.9566270112991333
1788108369781760800,8.1727607421875,9.096399307250977,3.502937078475952,1.012387990951538
1788108369791844400,8.18284423828125,9.095630645751953,3.487541913986206,1.0707800388336182
1788108369801929700,8.1929296875,9.098098754882812,3.4618449211120605,1.1314560174942017
1788108369812016600,8.2030166015625,9.102351188659668,3.4291999340057373,1.1948740482330322
1788108369822101800,8.213101806640625,9.10723876953125,3.3918039798736572,1.2624870538711548
1788108369832190000,8.22318994140625,9.1122407913208,3.3508780002593994,1.333678960800171
1788108369842284300,8.2332841796875,9.116591453552246,3.309519052505493,1.4052879810333252
1788108369852380000,8.2433798828125,9.119918823242188,3.2707579135894775,1.4728280305862427
1788108369862477300,8.253477294921876,9.12187385559082,3.237485885620117,1.5330150127410889
1788108369872574000,8.263573974609375,9.123031616210938,3.2084219455718994,1.5863089561462402
1788108369882670600,8.273670654296875,9.124238967895508,3.1802051067352295,1.635403037071228
1788108369892768300,8.283768310546876,9.125774383544922,3.1504170894622803,1.6837899684906006
1788108369902861600,8.293861572265625,9.128250122070312,3.117211103439331,1.7314759492874146
1788108369912955000,8.303954833984376,9.132862091064453,3.080138921737671,1.7730289697647095
1788108369923051300,8.31405126953125,9.140299797058105,3.0416738986968994,1.8008710145950317
1788108369933143600,8.3241435546875,9.14968490600586,3.00677490234375,1.8117790222167969
1788108369943232800,8.334232666015625,9.158963203430176,2.9810709953308105,1.807373046875
1788108369953324300,8.34432421875,9.165937423706055,2.9691739082336426,1.7915400266647339
1788108369963422000,8.354421875,9.168952941894531,2.971061944961548,1.7728780508041382
1788108369973516800,8.364516845703125,9.168693542480469,2.98044490814209,1.7584010362625122
1788108369983615700,8.37461572265625,9.167271614074707,2.9888288974761963,1.7515859603881836
1788108369993700000,8.3847001953125,9.16839599609375,2.9867570400238037,1.7492430210113525
1788108370003797000,8.394796875,9.17591381072998,2.968705892562866,1.7405339479446411
1788108370013879600,8.404879638671876,9.192084312438965,2.9322190284729004,1.7169049978256226
1788108370023975400,8.414975341796875,9.216665267944336,2.8792641162872314,1.6741939783096313
1788108370034068500,8.425068359375,9.246064186096191,2.819838047027588,1.6120779514312744
1788108370044165600,8.43516552734375,9.27531909942627,2.765052080154419,1.537179946899414
1788108370054260500,8.445260498046874,9.30016803741455,2.7233641147613525,1.4594919681549072
1788108370064354000,8.45535400390625,9.317716598510742,2.703216075897217,1.383023977279663
1788108370074443300,8.465443359375,9.325570106506348,2.7126200199127197,1.3097549676895142
1788108370084537000,8.475537109375,9.322773933410645,2.7527239322662354,1.2443369626998901
1788108370094633000,8.485633056640625,9.310545921325684,2.8184258937835693,1.187522053718567
1788108370104730600,8.495730712890625,9.290481567382812,2.9046449661254883,1.1357669830322266
1788108370114825200,8.5058251953125,9.264275550842285,3.0061540603637695,1.084529995918274
1788108370124929300,8.51592919921875,9.232975959777832,3.118860960006714,1.0319370031356812
1788108370135019500,8.52601953125,9.198177337646484,3.236298084259033,0.9797589778900146
1788108370145122000,8.5361220703125,9.161493301391602,3.3528850078582764,0.9301450252532959
1788108370155211500,8.54621142578125,9.12457275390625,3.464134931564331,0.8842960000038147
1788108370165316600,8.556316650390626,9.08873176574707,3.5673420429229736,0.842074990272522
1788108370175404300,8.566404296875,9.055893898010254,3.6585159301757812,0.8037989735603333
1788108370185493800,8.57649365234375,9.026517868041992,3.737675905227661,0.7692859768867493
1788108370195586000,8.5865859375,8.999817848205566,3.8078510761260986,0.7372289896011353
1788108370205686300,8.596686279296875,8.974495887756348,3.872683048248291,0.7076659798622131
1788108370215776800,8.60677685546875,8.950037002563477,3.9336700439453125,0.6804909706115723
1788108370225864700,8.61686474609375,8.926301002502441,3.991115093231201,0.6573359966278076
1788108370235953700,8.62695361328125,8.903955459594727,4.043445110321045,0.6404179930686951
1788108370246043400,8.63704345703125,8.88431453704834,4.0881547927856445,0.6292529702186584
1788108370256122600,8.64712255859375,8.868185997009277,4.12410306930542,0.6221489906311035
1788108370266216400,8.657216552734376,8.854567527770996,4.154720783233643,0.6123219728469849
1788108370276302600,8.667302490234375,8.841362953186035,4.184967994689941,0.5969539880752563
1788108370286403300,8.6774033203125,8.827082633972168,4.217507839202881,0.5789409875869751
1788108370296497000,8.687496826171875,8.811180114746094,4.25284481048584,0.562483012676239
1788108370306587600,8.697587646484376,8.7947416305542,4.288309097290039,0.5503600239753723
1788108370316681000,8.707680908203125,8.777883529663086,4.323819160461426,0.5415809750556946
1788108370326776600,8.717776611328125,8.760910034179688,4.3588738441467285,0.5353819727897644
1788108370336868000,8.7278681640625,8.7449951171875,4.391211032867432,0.5313330292701721
1788108370346966000,8.737966064453126,8.730792999267578,4.419801235198975,0.5278220176696777
1788108370357049900,8.7480498046875,8.718546867370605,4.444515228271484,0.5227149724960327
1788108370367137300,8.75813720703125,8.708282470703125,4.465272903442383,0.5169060230255127
1788108370377230600,8.768230712890626,8.700516700744629,4.4809770584106445,0.5117660164833069
1788108370387327000,8.778326904296875,8.69650936126709,4.488982200622559,0.5096849799156189
1788108370397412000,8.788412109375,8.698074340820312,4.485835075378418,0.5107219815254211
1788108370407502000,8.798502197265625,8.70569896697998,4.470779895782471,0.5127019882202148
1788108370417604400,8.808604248046874,8.718003273010254,4.44659423828125,0.514057993888855
1788108370427700500,8.818700439453124,8.732843399047852,4.41722297668457,0.5152860283851624
1788108370437791200,8.828791259765625,8.748180389404297,4.3865180015563965,0.5175060033798218
1788108370447882200,8.83888232421875,8.762373924255371,4.357143878936768,0.525484025478363
1788108370457976600,8.8489765625,8.77525806427002,4.3291730880737305,0.5413839817047119
1788108370468092400,8.859092529296875,8.7874116897583,4.301140785217285,0.5671120285987854
1788108370478182000,8.869181884765625,8.79969310760498,4.271475791931152,0.5999069809913635
1788108370488272600,8.879272705078124,8.813289642333984,4.238208770751953,0.6352139711380005
1788108370498366700,8.88936669921875,8.828587532043457,4.201234817504883,0.6675670146942139
1788108370508461300,8.89946142578125,8.845270156860352,4.160798072814941,0.6992809772491455
1788108370518549500,8.909549560546875,8.8623685836792,4.118078231811523,0.7347440123558044
1788108370538754800,8.9297548828125,8.897109985351562,4.023138999938965,0.8341140151023865
1788108370548856800,8.93985693359375,8.918119430541992,3.961092948913574,0.9038469791412354
1788108370558947800,8.94994775390625,8.943436622619629,3.8854739665985107,0.9788209795951843
1788108370569031200,8.96003125,8.972306251525879,3.7984800338745117,1.0532499551773071
1788108370579128300,8.97012841796875,9.004523277282715,3.701630115509033,1.1209449768066406
1788108370589218800,8.98021875,9.039239883422852,3.5977749824523926,1.1782050132751465
1788108370599309000,8.99030908203125,9.073866844177246,3.4937028884887695,1.2243050336837769
1788108370609397200,9.000397216796875,9.104715347290039,3.399040937423706,1.2612390518188477
1788108370619490600,9.010490478515624,9.127437591552734,3.3247950077056885,1.2944719791412354
1788108370629581600,9.02058154296875,9.138493537902832,3.279802083969116,1.3307509422302246
1788108370639676400,9.030676513671875,9.136974334716797,3.266637086868286,1.372871994972229
1788108370649774000,9.040774169921875,9.124128341674805,3.2814788818359375,1.422050952911377
1788108370659866000,9.0508662109375,9.104193687438965,3.313900947570801,1.4736510515213013
1788108370669962800,9.060962646484375,9.082891464233398,3.351404905319214,1.5196139812469482
1788108370680056600,9.071056640625,9.064802169799805,3.3849270343780518,1.5529370307922363
1788108370690146600,9.081146484375,9.052860260009766,3.4077210426330566,1.5726230144500732
1788108370700238800,9.09123876953125,9.048069953918457,3.4164860248565674,1.5811450481414795
1788108370710321400,9.1013212890625,9.051431655883789,3.4041531085968018,1.5884950160980225
1788108370720416300,9.111416259765624,9.064483642578125,3.364449977874756,1.5986390113830566
1788108370730512400,9.121512451171874,9.089224815368652,3.2918150424957275,1.609328031539917
1788108370740606200,9.131606201171875,9.12580394744873,3.1870920658111572,1.6131240129470825
1788108370750699800,9.14169970703125,9.173171043395996,3.055180072784424,1.5996489524841309
1788108370760790000,9.1517900390625,9.22872543334961,2.907639980316162,1.5544090270996094
1788108370770871600,9.16187158203125,9.286576271057129,2.762399911880493,1.4726200103759766
1788108370780963000,9.171963134765624,9.339083671569824,2.6395421028137207,1.3617299795150757
1788108370791049700,9.1820498046875,9.379636764526367,2.5531349182128906,1.2425559759140015
1788108370801142300,9.192142333984375,9.404726028442383,2.510530948638916,1.1350990533828735
1788108370811227000,9.202226806640626,9.412596702575684,2.517604112625122,1.0510599613189697
1788108370821318000,9.21231787109375,9.4044189453125,2.5708041191101074,0.9939470291137695
1788108370831402800,9.22240283203125,9.383734703063965,2.6581790447235107,0.9589830040931702
1788108370841489400,9.232489501953125,9.353819847106934,2.7671940326690674,0.9426800012588501
1788108370851571700,9.24257177734375,9.318547248840332,2.884147882461548,0.9415000081062317
1788108370861668400,9.25266845703125,9.282419204711914,2.9964990615844727,0.9474530220031738
1788108370871750700,9.262750732421875,9.250997543334961,3.090364933013916,0.9532269835472107
1788108370881835800,9.272835693359376,9.228155136108398,3.158323049545288,0.9519259929656982
1788108370891926000,9.282926025390625,9.21492862701416,3.1999449729919434,0.940966010093689
1788108370902025000,9.29302490234375,9.210877418518066,3.2177250385284424,0.9197890162467957
1788108370912127700,9.303127685546874,9.21422004699707,3.217406988143921,0.8867949843406677
1788108370922225700,9.3132255859375,9.221267700195312,3.2090981006622314,0.8425469994544983
1788108370932313900,9.32331396484375,9.227117538452148,3.205315113067627,0.7913609743118286
1788108370942412800,9.333412841796875,9.227184295654297,3.217421054840088,0.7397930026054382
1788108370952502300,9.343502197265625,9.21820068359375,3.2531020641326904,0.6943740248680115
1788108370962601700,9.353601806640626,9.19851016998291,3.314802885055542,0.6629430055618286
1788108370972696800,9.36369677734375,9.168989181518555,3.3986010551452637,0.647441029548645
1788108370982790400,9.373790283203125,9.13116455078125,3.4999470710754395,0.6420310139656067
1788108370992879900,9.3838798828125,9.087760925292969,3.6111299991607666,0.6420829892158508
1788108371002980400,9.39398046875,9.042497634887695,3.722843885421753,0.6431779861450195
1788108371013064700,9.404064697265625,8.998712539672852,3.8272879123687744,0.6442379951477051
1788108371023164200,9.4141640625,8.959162712097168,3.9186151027679443,0.6464220285415649
1788108371033256200,9.424256103515624,8.927079200744629,3.990328073501587,0.6515589952468872
1788108371043350300,9.434350341796875,8.904997825622559,4.038118839263916,0.6592580080032349
1788108371053441000,9.44444091796875,8.894057273864746,4.061567783355713,0.6628680229187012
1788108371063531300,9.45453125,8.893238067626953,4.064064979553223,0.6585180163383484
1788108371073621500,9.46462158203125,8.899754524230957,4.051965236663818,0.6448889970779419
1788108371083713500,9.474713623046876,8.911276817321777,4.029666900634766,0.6252620220184326
1788108371093810200,9.48481005859375,8.92566967010498,4.001028060913086,0.603488028049469
1788108371103907000,9.494906982421876,8.940202713012695,3.971242904663086,0.5847949981689453
1788108371113996800,9.504996826171874,8.953062057495117,3.9436800479888916,0.5744929909706116
1788108371124093400,9.515093505859374,8.96375846862793,3.9193971157073975,0.5739049911499023
1788108371134184200,9.52518408203125,8.972672462463379,3.8974521160125732,0.5839729905128479
1788108371144277500,9.535277587890626,8.981493949890137,3.873929977416992,0.6045209765434265
1788108371154370300,9.545370361328125,8.992232322692871,3.844291925430298,0.6333739757537842
1788108371164462000,9.555462158203126,9.006948471069336,3.803950071334839,0.6669660210609436
1788108371174557700,9.5655576171875,9.027250289916992,3.749063014984131,0.7022969722747803
1788108371184664600,9.57566455078125,9.053739547729492,3.678307056427002,0.7347019910812378
1788108371194758000,9.5857578125,9.085794448852539,3.5936388969421387,0.7576959729194641
1788108371204848400,9.595848388671875,9.122062683105469,3.4984700679779053,0.7672600150108337
1788108371214937600,9.6059375,9.160177230834961,3.3981881141662598,0.76385897397995
1788108371225041700,9.616041748046875,9.197319984436035,3.29876708984375,0.753242015838623
1788108371235136800,9.62613671875,9.230840682983398,3.20701003074646,0.7393389940261841
1788108371245227800,9.636227783203125,9.25861930847168,3.1288599967956543,0.7267450094223022
1788108371255325400,9.646325439453125,9.27913761138916,3.068619966506958,0.72188800573349
1788108371265422800,9.6564228515625,9.292134284973145,3.0275750160217285,0.7280369997024536
1788108371275512000,9.666511962890626,9.298914909362793,3.002937078475952,0.7433480024337769
1788108371285597400,9.676597412109375,9.30063247680664,2.9914779663085938,0.7677010297775269
1788108371295685600,9.686685546875,9.299857139587402,2.986517906188965,0.795861005783081
1788108371305780500,9.696780517578125,9.29902172088623,2.982374906539917,0.8207119703292847
1788108371315868200,9.7068681640625,9.299121856689453,2.9768590927124023,0.8394219875335693
1788108371325957000,9.71695703125,9.300418853759766,2.969517946243286,0.8509789705276489
1788108371336049200,9.727049072265626,9.30233097076416,2.9624240398406982,0.8547930121421814
1788108371346141400,9.737141357421875,9.303144454956055,2.960537910461426,0.8524739742279053
1788108371356238000,9.747238037109375,9.301875114440918,2.9665019512176514,0.8455290198326111
1788108371366334700,9.757334716796874,9.29796314239502,2.9820199012756348,0.8339210152626038
1788108371376426500,9.767426513671875,9.291617393493652,3.006066083908081,0.8181890249252319
1788108371386523600,9.777523681640625,9.282723426818848,3.037692070007324,0.802170991897583
1788108371396608800,9.78760888671875,9.271331787109375,3.075256109237671,0.7906969785690308
1788108371406708000,9.7977080078125,9.257673263549805,3.117285966873169,0.7861329913139343
1788108371416799000,9.807799072265626,9.242697715759277,3.1602089405059814,0.7909740209579468
1788108371426892500,9.817892578125,9.22846794128418,3.197587013244629,0.8067169785499573
1788108371436980500,9.82798046875,9.217318534851074,3.2248098850250244,0.8255680203437805
1788108371447074300,9.83807421875,9.21076488494873,3.239784002304077,0.8400049805641174
1788108371457160400,9.848160400390626,9.209179878234863,3.2426629066467285,0.8462619781494141
1788108371467252500,9.85825244140625,9.21173095703125,3.2360239028930664,0.8439030051231384
1788108371477338000,9.868338134765626,9.215980529785156,3.2256739139556885,0.837086021900177
1788108371487438000,9.87843798828125,9.21945858001709,3.2169768810272217,0.8322550058364868
1788108371497517800,9.888517822265625,9.220775604248047,3.2125649452209473,0.8347349762916565
1788108371507619300,9.898619384765626,9.219558715820312,3.2131710052490234,0.8457220196723938
1788108371517719000,9.908718994140624,9.216328620910645,3.2174339294433594,0.8645309805870056
1788108371527804400,9.918804443359376,9.212480545043945,3.2220189571380615,0.8881080150604248
1788108371537891600,9.9288916015625,9.209848403930664,3.2233810424804688,0.9102479815483093
1788108371547979300,9.938979248046875,9.209405899047852,3.219672918319702,0.9276419878005981
1788108371558071300,9.9490712890625,9.211464881896973,3.210930109024048,0.9375100135803223
1788108371568162300,9.959162353515625,9.215843200683594,3.1982550621032715,0.9377520084381104
1788108371578252300,9.969252197265625,9.221406936645508,3.184587001800537,0.9295390248298645
1788108371588350200,9.97935009765625,9.226499557495117,3.1733949184417725,0.9172289967536926
1788108371598452000,9.989451904296875,9.229870796203613,3.1672089099884033,0.9045630097389221
1788108371608540700,9.999540771484375,9.230635643005371,3.1675350666046143,0.8955879807472229
1788108371618634200,10.00963427734375,9.228550910949707,3.174715995788574,0.8916509747505188
1788108371628730400,10.01973046875,9.224245071411133,3.1876609325408936,0.8900269865989685
1788108371638820600,10.029820556640624,9.218114852905273,3.205380916595459,0.8898839950561523
1788108371648910600,10.03991064453125,9.210466384887695,3.2267839908599854,0.8917319774627686
1788108371659001600,10.050001708984375,9.203057289123535,3.247575044631958,0.8927299976348877
1788108371669089500,10.060089599609375,9.1959810256958,3.26847505569458,0.8893960118293762
1788108371679177500,10.070177490234375,9.189271926879883,3.2888190746307373,0.8836989998817444
1788108371689265200,10.08026513671875,9.183034896850586,3.3076279163360596,0.8783230185508728
1788108371699363300,10.09036328125,9.177586555480957,3.323961019515991,0.8736220002174377
1788108371709455000,10.100455078125,9.173315048217773,3.3366730213165283,0.8700360059738159
1788108371719547000,10.110546875,9.170482635498047,3.344628095626831,0.8693280220031738
1788108371729640200,10.12064013671875,9.169831275939941,3.346118927001953,0.8704559803009033
1788108371739735600,10.130735595703126,9.172060012817383,3.339492082595825,0.8724139928817749
1788108371749825000,10.140824951171876,9.177428245544434,3.324043035507202,0.8749169707298279
1788108371759918800,10.1509189453125,9.185677528381348,3.3009090423583984,0.8759909868240356
1788108371770011000,10.161010986328124,9.196306228637695,3.2714669704437256,0.8748980164527893
1788108371780106800,10.171106689453126,9.208134651184082,3.238672971725464,0.8725020289421082
1788108371790192600,10.181192626953125,9.219844818115234,3.2051849365234375,0.8725069761276245
1788108371800302600,10.191302490234374,9.230669975280762,3.1731879711151123,0.8750100135803223
1788108371810395000,10.201394775390625,9.24075984954834,3.142632007598877,0.8787450194358826
1788108371820488400,10.211488525390624,9.250207901000977,3.114675998687744,0.8788779973983765
1788108371830565000,10.221565185546876,9.258378982543945,3.0913798809051514,0.8750680088996887
1788108371840664300,10.231664306640624,9.264698028564453,3.0746231079101562,0.8672159910202026
1788108371850749400,10.24174951171875,9.268121719360352,3.067573070526123,0.8555449843406677
1788108371860833000,10.2518330078125,9.267523765563965,3.072770118713379,0.8432660102844238
1788108371870921700,10.261921630859375,9.262451171875,3.09016489982605,0.83542400598526
1788108371881014300,10.27201416015625,9.253190994262695,3.118027925491333,0.8344929814338684
1788108371891101700,10.282101806640625,9.241463661193848,3.151115894317627,0.8401139974594116
1788108371901197300,10.292197265625,9.22864818572998,3.185642957687378,0.8507559895515442
1788108371911286000,10.3022861328125,9.215880393981934,3.218705892562866,0.864579975605011
1788108371921378300,10.31237841796875,9.204015731811523,3.248661994934082,0.8788080215454102
1788108371931467800,10.3224677734375,9.193485260009766,3.2751948833465576,0.8904460072517395
1788108371941549800,10.3325498046875,9.18456745147705,3.2989020347595215,0.8949260115623474
1788108371951635200,10.34263525390625,9.176937103271484,3.3205111026763916,0.8933669924736023
1788108371961723600,10.3527236328125,9.170354843139648,3.3400120735168457,0.8882060050964355
1788108371971813600,10.362813720703125,9.164621353149414,3.3569560050964355,0.8834940195083618
1788108371981908700,10.37290869140625,9.159738540649414,3.3709099292755127,0.8809940218925476
1788108371991985200,10.382985107421876,9.155657768249512,3.3819329738616943,0.8811650276184082
1788108372002082800,10.393082763671876,9.152572631835938,3.3899009227752686,0.8825430274009705
1788108372012174600,10.403174560546875,9.150835990905762,3.3945200443267822,0.8828499913215637
1788108372022276900,10.41327685546875,9.149996757507324,3.3974380493164062,0.8803219795227051
1788108372032380400,10.42338037109375,9.150164604187012,3.3981809616088867,0.8757020235061646
1788108372042481400,10.4334814453125,9.151432037353516,3.395565986633301,0.8725870251655579
1788108372052582700,10.443582763671875,9.153904914855957,3.389223098754883,0.8713420033454895
1788108372062683000,10.453682861328126,9.157478332519531,3.3795559406280518,0.8713039755821228
1788108372072778500,10.463778564453126,9.162131309509277,3.3665239810943604,0.8728529810905457
1788108372082870500,10.47387060546875,9.168578147888184,3.348712921142578,0.8736410140991211
1788108372092964400,10.48396435546875,9.176444053649902,3.328183889389038,0.8695080280303955
1788108372103062800,10.494062744140624,9.185050010681152,3.306859016418457,0.8599830269813538
1788108372113144000,10.50414404296875,9.193172454833984,3.287709951400757,0.8464930057525635
1788108372123243800,10.514243896484375,9.199881553649902,3.272787094116211,0.831296980381012
1788108372133336000,10.524336181640624,9.204294204711914,3.2644379138946533,0.8151310086250305
1788108372143426600,10.534426513671875,9.205509185791016,3.2654519081115723,0.7971220016479492
1788108372153521200,10.544521240234374,9.20222282409668,3.2783288955688477,0.7820649743080139
1788108372163614500,10.554614501953125,9.194769859313965,3.3011579513549805,0.7736290097236633
1788108372173703200,10.564703125,9.184266090393066,3.3302700519561768,0.7737249732017517
1788108372183791000,10.574791015625,9.172710418701172,3.3608250617980957,0.7786070108413696
1788108372193876000,10.5848759765625,9.16146183013916,3.3899741172790527,0.7846490144729614
1788108372203972600,10.59497265625,9.151651382446289,3.4154109954833984,0.7888309955596924
1788108372214057000,10.605056884765625,9.144081115722656,3.4348700046539307,0.7920820116996765
1788108372224149800,10.615149658203125,9.14052677154541,3.4447269439697266,0.7903389930725098
1788108372234237400,10.625237548828125,9.14053726196289,3.4470529556274414,0.7799540162086487
1788108372244332500,10.63533251953125,9.142680168151855,3.4452381134033203,0.7627519965171814
1788108372254429700,10.6454296875,9.145770072937012,3.4407689571380615,0.7456600069999695
1788108372264525300,10.655525390625,9.1492280960083,3.4340949058532715,0.7339479923248291
1788108372274613500,10.665613525390626,9.15284538269043,3.4257709980010986,0.7276610136032104
1788108372284708000,10.6757080078125,9.157025337219238,3.4150149822235107,0.7256379723548889
1788108372294794200,10.685794189453125,9.161947250366211,3.401768922805786,0.7257350087165833
1788108372304893200,10.69589306640625,9.167283058166504,3.3878369331359863,0.7235220074653625
1788108372314985500,10.7059853515625,9.171707153320312,3.3774778842926025,0.7158169746398926
1788108372325075000,10.716074951171874,9.174771308898926,3.3714311122894287,0.7049360275268555
1788108372335160600,10.72616064453125,9.176337242126465,3.369960069656372,0.6914740204811096
1788108372345253600,10.736253662109375,9.1759033203125,3.3742620944976807,0.6761590242385864
1788108372355340800,10.7463408203125,9.172703742980957,3.3860650062561035,0.6604089736938477
1788108372365422000,10.756422119140625,9.167133331298828,3.403899908065796,0.6458140015602112
1788108372375507200,10.766507080078124,9.160015106201172,3.425800085067749,0.6308990120887756
1788108372385590500,10.776590576171875,9.152335166931152,3.449172019958496,0.6148200035095215
1788108372395681500,10.786681640625,9.145281791687012,3.4707250595092773,0.5982810258865356
1788108372405778700,10.79677880859375,9.140555381774902,3.48630690574646,0.5796239972114563
1788108372415866400,10.806866455078126,9.138298034667969,3.495537042617798,0.5592520236968994
1788108372425955800,10.816955810546874,9.13865852355957,3.498538017272949,0.5339589715003967
1788108372436038000,10.827037841796875,9.141021728515625,3.496999979019165,0.5026929974555969
1788108372446130200,10.837130126953125,9.14398193359375,3.4942429065704346,0.46672001481056213
1788108372456217300,10.84721728515625,9.145882606506348,3.4939310550689697,0.4304110109806061
1788108372466304300,10.85730419921875,9.145353317260742,3.499295949935913,0.39684799313545227
1788108372476395500,10.8673955078125,9.1417236328125,3.5119099617004395,0.36789199709892273
1788108372486491100,10.8774912109375,9.134798049926758,3.5325450897216797,0.3414810001850128
1788108372496574200,10.88757421875,9.124778747558594,3.5605320930480957,0.31790798902511597
1788108372506667500,10.89766748046875,9.111786842346191,3.5954489707946777,0.2968069911003113
1788108372516758300,10.90775830078125,9.096516609191895,3.635409116744995,0.2778170108795166
1788108372526853600,10.917853515625,9.07919692993164,3.679771900177002,0.2596360146999359
1788108372536944000,10.927944091796874,9.060150146484375,3.727583885192871,0.24245700240135193
1788108372547024100,10.938024169921874,9.040093421936035,3.7768149375915527,0.22893700003623962
1788108372557118000,10.948117919921875,9.020103454589844,3.8248291015625,0.21999700367450714
1788108372567213800,10.9582138671875,9.001862525939941,3.8679258823394775,0.21356600522994995
1788108372577301800,10.9683017578125,8.986230850219727,3.90434193611145,0.20918899774551392
1788108372587390700,10.978390625,8.974609375,3.9310550689697266,0.2078700065612793
1788108372597481000,10.98848095703125,8.968761444091797,3.9443280696868896,0.20885199308395386
1788108372607571000,10.998571044921874,8.970429420471191,3.940540075302124,0.20861700177192688
1788108372617665500,11.00866552734375,8.979630470275879,3.9197750091552734,0.2040330022573471
1788108372627758600,11.018758544921875,8.995637893676758,3.8833229541778564,0.1958329975605011
1788108372637847000,11.028846923828125,9.017000198364258,3.8339099884033203,0.18671999871730804
1788108372647940400,11.0389404296875,9.042099952697754,3.7748289108276367,0.17628300189971924
1788108372658028000,11.049028076171876,9.068934440612793,3.7104361057281494,0.16458900272846222
1788108372668122600,11.05912255859375,9.095463752746582,3.645526885986328,0.15062099695205688
1788108372678217700,11.0692177734375,9.120209693908691,3.5838520526885986,0.13317100703716278
1788108372688312300,11.079312255859374,9.141336441040039,3.530421018600464,0.1099030002951622
1788108372698404600,11.089404541015625,9.156696319580078,3.491194009780884,0.08028600364923477
1788108372708496100,11.09949609375,9.164990425109863,3.4699718952178955,0.04806499928236008
1788108372718594600,11.109594482421874,9.166900634765625,3.4651920795440674,0.019308999180793762
1788108372728689700,11.119689697265626,9.163418769836426,3.474442958831787,-0.0015849999617785215
1788108372738779400,11.129779296875,9.156888961791992,3.491594076156616,-0.013869999907910824
1788108372748873700,11.139873779296876,9.149283409118652,3.5114450454711914,-0.019881999120116234
1788108372758969600,11.149969482421875,9.143118858337402,3.5274429321289062,-0.023354999721050262
1788108372769061600,11.1600615234375,9.140809059143066,3.533384084701538,-0.027451999485492706
1788108372779153000,11.17015283203125,9.143413543701172,3.5265769958496094,-0.03444899991154671
1788108372789242600,11.18024267578125,9.150713920593262,3.507460117340088,-0.04657299816608429
1788108372799334000,11.190333984375,9.162062644958496,3.477384090423584,-0.06670399755239487
1788108372809425200,11.200425048828125,9.175766944885254,3.4404499530792236,-0.0926550030708313
1788108372819521500,11.210521484375,9.190476417541504,3.399993896484375,-0.1233619973063469
1788108372829613600,11.220613525390625,9.204100608825684,3.361591100692749,-0.15573400259017944
1788108372839706000,11.2307060546875,9.215166091918945,3.3294389247894287,-0.18852399289608002
1788108372849794300,11.240794189453124,9.222871780395508,3.3060879707336426,-0.22002899646759033
1788108372859888400,11.250888427734376,9.22630786895752,3.294419050216675,-0.24919700622558594
1788108372869986300,11.260986328125,9.225191116333008,3.295478105545044,-0.2750079929828644
1788108372880085800,11.271085693359375,9.219869613647461,3.30826997756958,-0.2989419996738434
1788108372890177000,11.281177001953125,9.21205997467041,3.327847957611084,-0.3214769959449768
1788108372900268300,11.291268310546876,9.203192710876465,3.3503189086914062,-0.341499000787735
1788108372910358800,11.30135888671875,9.194808959960938,3.3712029457092285,-0.36124101281166077
1788108372920448800,11.31144873046875,9.187576293945312,3.3886239528656006,-0.38163501024246216
1788108372930543600,11.321543701171874,9.182117462158203,3.4008629322052,-0.4035489857196808
1788108372940635400,11.331635498046875,9.178866386413574,3.4068799018859863,-0.4261220097541809
1788108372950718500,11.341718505859374,9.178121566772461,3.4055540561676025,-0.45201200246810913
1788108372960809000,11.35180908203125,9.179094314575195,3.3989040851593018,-0.4813010096549988
1788108372970895000,11.36189501953125,9.181236267089844,3.388619899749756,-0.5119779706001282
1788108372980984000,11.371984130859374,9.184541702270508,3.3745970726013184,-0.5443440079689026
1788108372991064300,11.382064208984374,9.188396453857422,3.358664035797119,-0.576915979385376
1788108373001158700,11.39215869140625,9.192575454711914,3.3418519496917725,-0.6071289777755737
1788108373011242200,11.4022421875,9.196840286254883,3.3248839378356934,-0.6350669860839844
1788108373021333000,11.4123330078125,9.200228691101074,3.3102118968963623,-0.6619979739189148
1788108373031417300,11.422417236328124,9.202146530151367,3.29972505569458,-0.6872349977493286
1788108373041506300,11.43250634765625,9.202531814575195,3.293890953063965,-0.7097110152244568
1788108373051589600,11.442589599609375,9.202144622802734,3.2910358905792236,-0.7277370095252991
1788108373061688300,11.452688232421876,9.202420234680176,3.288235902786255,-0.7368540167808533
1788108373071778300,11.4627783203125,9.204642295837402,3.2814459800720215,-0.7393659949302673
1788108373081873000,11.472872802734376,9.209057807922363,3.2686879634857178,-0.7408850193023682
1788108373091957800,11.482957763671875,9.215897560119629,3.248656988143921,-0.7439370155334473
1788108373102053000,11.49305322265625,9.225343704223633,3.2205779552459717,-0.74897301197052
1788108373112139300,11.50313916015625,9.236632347106934,3.186115026473999,-0.757178008556366
1788108373122236700,11.513236572265624,9.248892784118652,3.147847890853882,-0.7674649953842163
1788108373132329000,11.523328857421875,9.261590957641602,3.1076788902282715,-0.7779660224914551
1788108373142418700,11.533418701171875,9.27443790435791,3.066957950592041,-0.7864969968795776
1788108373152505900,11.543505859375,9.287079811096191,3.026808977127075,-0.7928079962730408
1788108373162607600,11.553607666015624,9.298887252807617,2.988687038421631,-0.7990610003471375
1788108373172704800,11.563704833984374,9.309688568115234,2.9536349773406982,-0.8035920262336731
1788108373182806500,11.573806640625,9.319684982299805,2.9210519790649414,-0.8067780137062073
1788108373192899800,11.58389990234375,9.329256057739258,2.889561891555786,-0.8095899820327759
1788108373202995700,11.59399560546875,9.338445663452148,2.8584859371185303,-0.8139060139656067
1788108373213089500,11.604089599609376,9.347474098205566,2.8270111083984375,-0.8202069997787476
1788108373223185700,11.614185546875,9.356202125549316,2.7953789234161377,-0.8290309906005859
1788108373233278200,11.6242783203125,9.36456298828125,2.764348030090332,-0.838657021522522
1788108373243376000,11.634376220703125,9.37244701385498,2.7344729900360107,-0.8484809994697571
1788108373253469400,11.644469482421876,9.379667282104492,2.7063488960266113,-0.8587610125541687
1788108373263569400,11.6545693359375,9.386552810668945,2.6797139644622803,-0.8669940233230591
1788108373273664300,11.664664306640624,9.393670082092285,2.6530089378356934,-0.8720899820327759
1788108373283763200,11.67476318359375,9.401161193847656,2.6256320476531982,-0.8741859793663025
1788108373293859800,11.68485986328125,9.409238815307617,2.5966200828552246,-0.8739370107650757
1788108373303956200,11.694956298828124,9.418272018432617,2.5641028881073,-0.8726509809494019
1788108373314053400,11.705053466796874,9.428519248962402,2.5268359184265137,-0.8707470297813416
1788108373324141000,11.71514111328125,9.439837455749512,2.484428882598877,-0.8701260089874268
1788108373334245000,11.7252451171875,9.451841354370117,2.437624931335449,-0.8722140192985535
1788108373344336400,11.73533642578125,9.46388053894043,2.3887789249420166,-0.8767690062522888
1788108373354434000,11.74543408203125,9.475564002990723,2.339735984802246,-0.882768988609314
1788108373364526000,11.755526123046875,9.487166404724121,2.2903730869293213,-0.887565016746521
1788108373374615000,11.765614990234376,9.498758316040039,2.240802049636841,-0.890142023563385
1788108373384697000,11.775697021484374,9.509979248046875,2.193234920501709,-0.8888279795646667
1788108373394789600,11.78578955078125,9.521061897277832,2.1474759578704834,-0.8819019794464111
1788108373404878600,11.795878662109375,9.531761169433594,2.103303909301758,-0.8727210164070129
1788108373414978600,11.805978515625,9.541579246520996,2.062695026397705,-0.862293004989624
1788108373425066500,11.81606640625,9.549800872802734,2.0285511016845703,-0.8522400259971619
1788108373435167500,11.82616748046875,9.556365966796875,2.0013060569763184,-0.8430169820785522
1788108373445265000,11.836264892578125,9.560981750488281,1.982159972190857,-0.8358399868011475
1788108373455355000,11.84635498046875,9.56348991394043,1.9727189540863037,-0.8294510245323181
1788108373465445400,11.8564453125,9.56391429901123,1.9729939699172974,-0.8238779902458191
1788108373475532800,11.86653271484375,9.56157398223877,1.9844599962234497,-0.8235089778900146
1788108373485616600,11.87661669921875,9.556177139282227,2.0087199211120605,-0.8273509740829468
1788108373495703600,11.88670361328125,9.547744750976562,2.046159029006958,-0.83296799659729
1788108373505800000,11.896800048828124,9.536669731140137,2.096086025238037,-0.8356630206108093
1788108373515886000,11.906885986328126,9.52390193939209,2.1558260917663574,-0.8293009996414185
1788108373525979100,11.916979248046875,9.510455131530762,2.2210710048675537,-0.8112450242042542
1788108373536061700,11.927061767578126,9.49765396118164,2.2850699424743652,-0.7829809784889221
1788108373546153200,11.9371533203125,9.486054420471191,2.343996047973633,-0.7486069798469543
1788108373556246000,11.94724609375,9.4756441116333,2.3963310718536377,-0.713949978351593
1788108373566324500,11.957324462890625,9.465967178344727,2.4433720111846924,-0.6822069883346558
1788108373576418800,11.967418701171875,9.456839561462402,2.4862968921661377,-0.6531090140342712
1788108373586517800,11.977517822265625,9.448200225830078,2.5255889892578125,-0.6268259882926941
1788108373596601000,11.98760107421875,9.440619468688965,2.5593700408935547,-0.6036390066146851
1788108373606698800,11.99769873046875,9.434464454650879,2.5867791175842285,-0.5826749801635742
1788108373616788000,12.0077880859375,9.429670333862305,2.6082520484924316,-0.5642200112342834
1788108373626889200,12.01788916015625,9.426000595092773,2.6249029636383057,-0.5481520295143127
1788108373636981800,12.027981689453124,9.42261791229248,2.6400609016418457,-0.5332459807395935
1788108373647082500,12.03808251953125,9.419393539428711,2.654694080352783,-0.5172640085220337
1788108373657165600,12.04816552734375,9.416498184204102,2.668661117553711,-0.49784499406814575
1788108373667266800,12.058266845703125,9.414129257202148,2.6813299655914307,-0.47393599152565
1788108373677352700,12.068352783203125,9.412772178649902,2.690946102142334,-0.4455519914627075
1788108373687444000,12.07844384765625,9.413446426391602,2.6935911178588867,-0.4143129885196686
1788108373697524700,12.088524658203125,9.41712474822998,2.685249090194702,-0.3836199939250946
1788108373707612400,12.0986123046875,9.423663139343262,2.665656089782715,-0.35889801383018494
1788108373717710600,12.108710693359376,9.43234920501709,2.636626958847046,-0.3450250029563904
1788108373727804200,12.11880419921875,9.441904067993164,2.602102041244507,-0.3457230031490326
1788108373737892600,12.128892578125,9.450282096862793,2.569474935531616,-0.3605389893054962
1788108373747977000,12.13897705078125,9.45573616027832,2.545586109161377,-0.38614198565483093
1788108373758068500,12.149068359375,9.45746898651123,2.5343360900878906,-0.41640999913215637
1788108373768159500,12.159159423828125,9.455263137817383,2.5377719402313232,-0.444705992937088
1788108373778250800,12.169250732421874,9.449775695800781,2.554318904876709,-0.4660719931125641
1788108373788344000,12.179343994140625,9.441642761230469,2.581660032272339,-0.4799860119819641
1788108373798434300,12.189434326171876,9.431312561035156,2.61759090423584,-0.48843100666999817
1788108373808519200,12.199519287109375,9.419148445129395,2.659954071044922,-0.4942519962787628
1788108373818619600,12.20961962890625,9.405740737915039,2.706329107284546,-0.4978080093860626
1788108373828714500,12.219714599609375,9.392043113708496,2.753257989883423,-0.49909400939941406
1788108373838819300,12.2298193359375,9.378767013549805,2.798233985900879,-0.498649001121521
1788108373848912600,12.23991259765625,9.366527557373047,2.838934898376465,-0.49861401319503784
1788108373859008500,12.250008544921876,9.355704307556152,2.8742458820343018,-0.4994480013847351
1788108373869099000,12.26009912109375,9.346814155578613,2.902988910675049,-0.49972501397132874
1788108373879197200,12.270197265625,9.340316772460938,2.9239819049835205,-0.4988040030002594
1788108373889290200,12.280290283203126,9.336233139038086,2.9373979568481445,-0.49639400839805603
1788108373899381500,12.290381591796875,9.33475399017334,2.942854881286621,-0.491923987865448
1788108373909465900,12.3004658203125,9.335579872131348,2.941138982772827,-0.48649001121520996
1788108373919551700,12.3105517578125,9.338220596313477,2.9338600635528564,-0.4797370135784149
1788108373929644000,12.32064404296875,9.34272289276123,2.9208500385284424,-0.47134101390838623
1788108373939739000,12.33073876953125,9.349837303161621,2.8997321128845215,-0.46054500341415405
1788108373949829000,12.3408291015625,9.360180854797363,2.868612051010132,-0.4450240135192871
1788108373959920400,12.35092041015625,9.374053955078125,2.8261260986328125,-0.4243530035018921
1788108373970015700,12.361015625,9.39117431640625,2.7715530395507812,-0.40540599822998047
1788108373980109300,12.371109375,9.409214973449707,2.7109971046447754,-0.3964579999446869
1788108373990206000,12.3812060546875,9.42480754852295,2.655179977416992,-0.40379199385643005
1788108374000307200,12.39130712890625,9.43437385559082,2.61661696434021,-0.4311569929122925
1788108374010399700,12.401399658203125,9.435271263122559,2.605928897857666,-0.4741399884223938
1788108374020491000,12.411490966796874,9.426566123962402,2.62870192527771,-0.5194309949874878
1788108374030576000,12.421576171875,9.409390449523926,2.683087110519409,-0.5517119765281677
1788108374040666000,12.431666015625,9.385007858276367,2.7651689052581787,-0.561627984046936
1788108374050751000,12.4417509765625,9.355895042419434,2.865349054336548,-0.544920027256012
1788108374060899300,12.4518994140625,9.32462215423584,2.9727509021759033,-0.504127025604248
1788108374071008800,12.4620087890625,9.294238090515137,3.0751559734344482,-0.4478670060634613
1788108374081102000,12.47210205078125,9.2670259475708,3.164336919784546,-0.3863309919834137
1788108374091187200,12.482187255859374,9.244121551513672,3.236768960952759,-0.3309899866580963
1788108374101277000,12.49227685546875,9.225415229797363,3.2937119007110596,-0.28839799761772156
1788108374111366000,12.502365966796875,9.210968017578125,3.3362250328063965,-0.25999900698661804
1788108374121454000,12.5124541015625,9.200810432434082,3.365386962890625,-0.24338699877262115
1788108374131543600,12.52254345703125,9.195058822631836,3.3817930221557617,-0.2330559939146042
1788108374141634800,12.532634765625,9.193033218383789,3.388029098510742,-0.22214700281620026
1788108374151712300,12.542712158203125,9.194368362426758,3.385369062423706,-0.2070239931344986
1788108374161811700,12.552811767578126,9.197842597961426,3.377229928970337,-0.18436600267887115
1788108374171893800,12.562893798828124,9.203004837036133,3.3647100925445557,-0.1529099941253662
1788108374181989600,12.57298974609375,9.210275650024414,3.3463470935821533,-0.11309800297021866
1788108374192069400,12.5830693359375,9.220497131347656,3.319279909133911,-0.06940799951553345
1788108374202162700,12.59316259765625,9.233914375305176,3.282392978668213,-0.0269399993121624
1788108374212262100,12.60326220703125,9.250797271728516,3.234605073928833,0.010040000081062317
1788108374222355200,12.613355224609375,9.271048545837402,3.1758780479431152,0.03922000154852867
1788108374232457700,12.623457763671874,9.293704986572266,3.1086339950561523,0.05823700129985809
1788108374242543400,12.63354345703125,9.31698989868164,3.038022041320801,0.06378600001335144
1788108374252641300,12.643641357421876,9.339156150817871,2.9693338871002197,0.056366000324487686
1788108374262741500,12.653741455078125,9.359039306640625,2.9063189029693604,0.041095998138189316
1788108374272832300,12.663832275390625,9.376115798950195,2.850944995880127,0.024034999310970306
1788108374282933000,12.67393310546875,9.390849113464355,2.802117109298706,0.01000600028783083
1788108374293024300,12.684024169921875,9.40420913696289,2.756951093673706,0.0010629999451339245
1788108374303118300,12.694118408203124,9.417624473571777,2.710783004760742,-0.004031999967992306
1788108374313212400,12.70421240234375,9.431962966918945,2.660465955734253,-0.008403000421822071
1788108374323308800,12.714308837890625,9.44759464263916,2.6043550968170166,-0.015912000089883804
1788108374333395200,12.724395263671875,9.464217185974121,2.5431950092315674,-0.027452999725937843
1788108374343492000,12.7344921875,9.48159408569336,2.4774250984191895,-0.041537001729011536
1788108374353586000,12.7445859375,9.499662399291992,2.406888008117676,-0.057698000222444534
1788108374363680300,12.75468017578125,9.5179443359375,2.3329660892486572,-0.0775270015001297
1788108374373771800,12.764771728515624,9.535353660583496,2.2597908973693848,-0.10168000310659409
1788108374383863800,12.77486376953125,9.550881385803223,2.1917190551757812,-0.13075299561023712
1788108374393953000,12.784953125,9.563118934631348,2.1351659297943115,-0.166826993227005
1788108374404057300,12.795057373046875,9.571612358093262,2.093506097793579,-0.2037380039691925
1788108374414152000,12.80515185546875,9.576642990112305,2.067249059677124,-0.23332299292087555
1788108374424246500,12.81524658203125,9.57903003692627,2.0543179512023926,-0.24898800253868103
1788108374434336500,12.82533642578125,9.579944610595703,2.050081968307495,-0.24863600730895996
1788108374444435500,12.835435546875,9.579902648925781,2.0517449378967285,-0.23617899417877197
1788108374454526500,12.8455263671875,9.579212188720703,2.056791067123413,-0.21977700293064117
1788108374464619500,12.85561962890625,9.57772159576416,2.0648109912872314,-0.20917299389839172
1788108374474706000,12.865705810546874,9.574894905090332,2.0778560638427734,-0.20939700305461884
1788108374484797700,12.875797607421875,9.570476531982422,2.096781015396118,-0.22254100441932678
1788108374494885400,12.885885498046875,9.564128875732422,2.1227340698242188,-0.24778099358081818
1788108374504978400,12.895978515625,9.554925918579102,2.1600499153137207,-0.2785249948501587
1788108374515065000,12.906065185546876,9.542695999145508,2.209678888320923,-0.30698901414871216
1788108374525160700,12.91616064453125,9.527877807617188,2.26996111869812,-0.3267970085144043
1788108374535252000,12.926251953125,9.511348724365234,2.337333917617798,-0.3334130048751831
1788108374545345000,12.936344970703125,9.494297981262207,2.4066619873046875,-0.325998991727829
1788108374555439400,12.946439453125,9.47805404663086,2.4725871086120605,-0.30461400747299194
1788108374565532200,12.9565322265625,9.46377182006836,2.5303750038146973,-0.2723419964313507
1788108374575615500,12.966615478515624,9.4523286819458,2.576533079147339,-0.23444800078868866
1788108374585701400,12.976701416015626,9.444124221801758,2.6093530654907227,-0.19934700429439545
1788108374595801300,12.98680126953125,9.438934326171875,2.6298389434814453,-0.174452006816864
1788108374605892400,12.996892333984375,9.43636417388916,2.639803886413574,-0.16258999705314636
1788108374615975400,13.006975341796876,9.435956001281738,2.641279935836792,-0.16254200041294098
1788108374626067500,13.0170673828125,9.437122344970703,2.636579990386963,-0.17094500362873077
1788108374636154600,13.027154541015625,9.438779830932617,2.6298649311065674,-0.1823749989271164
1788108374646244000,13.037244140625,9.439642906188965,2.6259710788726807,-0.19351400434970856
1788108374656336000,13.0473359375,9.438811302185059,2.6284639835357666,-0.20002500712871552
1788108374666433800,13.057433837890626,9.436039924621582,2.638478994369507,-0.1989849954843521
1788108374676525600,13.067525634765625,9.431496620178223,2.65541410446167,-0.1886419951915741
1788108374686617000,13.0776171875,9.425704956054688,2.6773319244384766,-0.1673469990491867
1788108374696707000,13.08770703125,9.4194917678833,2.700650930404663,-0.1403679996728897
1788108374706804500,13.097804443359376,9.413132667541504,2.7238569259643555,-0.11645600199699402
1788108374716889600,13.1078896484375,9.406648635864258,2.746742010116577,-0.10149800032377243
1788108374726987500,13.117987548828125,9.399542808532715,2.771013021469116,-0.10049399733543396
1788108374737087500,13.12808740234375,9.391700744628906,2.7970869541168213,-0.11086300015449524
1788108374747184400,13.138184326171874,9.382636070251465,2.826694965362549,-0.12623800337314606
1788108374757267500,13.148267333984375,9.37231731414795,2.860136032104492,-0.1387699991464615
1788108374767366000,13.158365966796875,9.360503196716309,2.8983700275421143,-0.14281600713729858
1788108374777459200,13.168459228515625,9.347700119018555,2.9397780895233154,-0.13500599563121796
1788108374787556000,13.17855615234375,9.33528995513916,2.979733943939209,-0.11670000106096268
1788108374797647000,13.188647216796875,9.324946403503418,3.0127880573272705,-0.09204500168561935
1788108374807746000,13.19874609375,9.318790435791016,3.032454013824463,-0.06573499739170074
1788108374817832700,13.208832763671875,9.31861400604248,3.0333480834960938,-0.04677300155162811
1788108374827926300,13.21892626953125,9.32616138458252,3.0100390911102295,-0.04896799847483635
1788108374838014200,13.22901416015625,9.342569351196289,2.957942008972168,-0.08362200111150742
1788108374848104200,13.239104248046875,9.367159843444824,2.8758440017700195,-0.16069699823856354
1788108374858196700,13.24919677734375,9.397248268127441,2.7663559913635254,-0.28117701411247253
1788108374868293600,13.259293701171876,9.428677558898926,2.6351358890533447,-0.4427970051765442
1788108374878384400,13.26938427734375,9.457080841064453,2.4897170066833496,-0.6363800168037415
1788108374888481800,13.279481689453124,9.47776985168457,2.3403398990631104,-0.8571509718894958
1788108374898577700,13.28957763671875,9.487197875976562,2.195719003677368,-1.1008340120315552
1788108374908674000,13.299674072265624,9.483765602111816,2.0638720989227295,-1.3559540510177612
1788108374918769200,13.30976904296875,9.467677116394043,1.9551750421524048,-1.6063480377197266
1788108374928855800,13.319855712890625,9.442411422729492,1.8777329921722412,-1.8316529989242554
