time,seconds_elapsed,z,y,x
1788108361737998600,0.12899853515625,-0.08002500236034393,0.4470124840736389,0.057475000619888306
1788108361748088300,0.13908837890625,-0.11302500218153,0.444537490606308,0.07947500050067902
1788108361758190600,0.149190673828125,-0.12278749793767929,0.4470124840736389,0.0611874982714653
1788108361768278300,0.1592783203125,-0.1288374960422516,0.39448750019073486,0.0037124999798834324
1788108361798561000,0.18956103515625,-0.0812624990940094,0.36877501010894775,-0.14891250431537628
1788108361818748400,0.20974853515625,-0.21931250393390656,0.30277499556541443,-0.26743748784065247
1788108361828839200,0.219839111328125,-0.22659999132156372,0.33219999074935913,-0.25891250371932983
1788108361838908400,0.229908447265625,-0.1667875051498413,0.3529624938964844,-0.27348750829696655
1788108361848994600,0.23999462890625,-0.13859999179840088,0.35048750042915344,-0.25519999861717224
1788108361859086800,0.2500869140625,-0.1313125044107437,0.32120001316070557,-0.1966249942779541
1788108361869185800,0.260185791015625,-0.13007499277591705,0.22591249644756317,-0.13667500019073486
1788108361879277300,0.27027734375,-0.12278749793767929,0.10243749618530273,-0.09638749808073044
1788108361889368600,0.28036865234375,-0.0873124971985817,-0.050187498331069946,-0.1073874980211258
1788108361899462100,0.290462158203125,-0.021312499418854713,-0.17971250414848328,-0.15619999170303345
1788108361909561000,0.30056103515625,0.058024998754262924,-0.26647499203681946,-0.21972499787807465
1788108361919647000,0.31064697265625,0.15578749775886536,-0.3007124960422516,-0.2564375102519989
1788108361929749000,0.3207490234375,0.20707499980926514,-0.21889999508857727,-0.2662000060081482
1788108361939834400,0.33083447265625,0.2657875120639801,-0.11013749986886978,-0.24543750286102295
1788108361949919700,0.340919677734375,0.3073124885559082,-0.029424998909235,-0.19538749754428864
1788108361960008200,0.35100830078125,0.33660000562667847,0.09143749624490738,-0.08538749814033508
1788108361970104600,0.3611044921875,0.37331250309944153,0.15015000104904175,0.00989999994635582
1788108361980198100,0.3711982421875,0.35612499713897705,0.09019999951124191,0.08813749998807907
1788108361990296000,0.381296142578125,0.2523125112056732,0.007149999961256981,0.19552500545978546
1788108362000385300,0.39138525390625,0.10202500224113464,-0.052662499248981476,0.3287625014781952
1788108362010480000,0.401480224609375,-0.06173750013113022,-0.08318749815225601,0.45704999566078186
1788108362020567800,0.41156787109375,-0.19483749568462372,-0.10889999568462372,0.5620999932289124
1788108362030663700,0.42166357421875,-0.2681249976158142,-0.17118750512599945,0.6391000151634216
1788108362040760000,0.431760009765625,-0.319412499666214,-0.23223750293254852,0.6671500205993652
1788108362050861000,0.441861083984375,-0.36588749289512634,-0.2554749846458435,0.6549124717712402
1788108362060950300,0.4519501953125,-0.4184125065803528,-0.21518750488758087,0.6109125018119812
1788108362071037400,0.462037353515625,-0.5002250075340271,-0.26647499203681946,0.5498625040054321
1788108362081128200,0.472128173828125,-0.6859874725341797,-0.7503374814987183,0.432574987411499
1788108362091219200,0.48221923828125,-0.8802750110626221,-0.7404375076293945,0.37400001287460327
1788108362101306400,0.492306396484375,-1.0561374425888062,-0.7918624877929688,0.2652375102043152
1788108362111397600,0.502397705078125,-1.1721874475479126,-0.7013875246047974,0.22618749737739563
1788108362121488400,0.51248828125,-1.257712483406067,-0.6953374743461609,0.18947499990463257
1788108362131591200,0.522591064453125,-1.2394249439239502,-0.7331500053405762,0.11247500032186508
1788108362141691400,0.53269140625,-0.8398500084877014,-0.6953374743461609,0.011137500405311584
1788108362151787800,0.542787841796875,-0.15207499265670776,-0.5267624855041504,-0.09515000134706497
1788108362161884400,0.552884521484375,0.06778749823570251,-0.6953374743461609,-0.26743748784065247
1788108362171973400,0.562973388671875,0.03244999796152115,-0.5755749940872192,-0.2503874897956848
1788108362182059000,0.57305908203125,0.06531249731779099,-0.305525004863739,-0.2149125039577484
1788108362192160300,0.58316015625,0.0873124971985817,-0.19923749566078186,-0.2283875048160553
1788108362202251300,0.593251220703125,-0.020075000822544098,-0.0906125009059906,-0.19415000081062317
1788108362212347100,0.60334716796875,-0.09583749622106552,-0.07590000331401825,-0.16238750517368317
1788108362222441000,0.61344091796875,-0.12155000120401382,-0.10642500221729279,-0.15262499451637268
1788108362232530000,0.623530029296875,-0.10326249897480011,-0.2677125036716461,-0.1966249942779541
1788108362242622500,0.63362255859375,-0.09459999948740005,-0.41923749446868896,-0.2441999912261963
1788108362252715800,0.6437158203125,-0.06173750013113022,-0.5120499730110168,-0.2857249975204468
1788108362262808800,0.653808837890625,-0.03726249933242798,-0.49252501130104065,-0.2881999909877777
1788108362272897300,0.663897216796875,-0.03231250122189522,-0.37400001287460327,-0.2686749994754791
1788108362282987000,0.673987060546875,-0.029975000768899918,-0.2639999985694885,-0.2576749920845032
1788108362293085700,0.684085693359375,-0.015262499451637268,-0.16513749957084656,-0.25891250371932983
1788108362303174100,0.694174072265625,0.011687500402331352,-0.07466249912977219,-0.26496249437332153
1788108362313266700,0.7042666015625,0.05555000156164169,-0.03437500074505806,-0.2747249901294708
1788108362323357000,0.71435693359375,0.11055000126361847,-0.09913749992847443,-0.29548749327659607
1788108362333451500,0.724451416015625,0.16926249861717224,-0.1859000027179718,-0.32848748564720154
1788108362343547000,0.734546875,0.2083124965429306,-0.2494249939918518,-0.33701249957084656
1788108362353656800,0.74465673828125,0.22055000066757202,-0.2579500079154968,-0.3334375023841858
1788108362363747600,0.75474755859375,0.2180749922990799,-0.17847499251365662,-0.2919124960899353
1788108362373842200,0.76484228515625,0.19978749752044678,-0.057612501084804535,-0.17820000648498535
1788108362383938000,0.77493798828125,0.17778749763965607,0.04262499883770943,-0.02681249938905239
1788108362394033200,0.785033203125,0.17902499437332153,0.062150001525878906,0.12223749607801437
1788108362404122600,0.79512255859375,0.19249999523162842,-0.029424998909235,0.2297624945640564
1788108362414233000,0.805233154296875,0.1765500009059906,-0.17366249859333038,0.27252501249313354
1788108362424313600,0.815313720703125,0.12402500212192535,-0.3190000057220459,0.24818749725818634
1788108362434414800,0.825414794921875,0.06778749823570251,-0.41304999589920044,0.18342499434947968
1788108362444507100,0.835507080078125,0.043449997901916504,-0.4020499885082245,0.12966249883174896
1788108362454609000,0.84560888671875,0.026262499392032623,-0.3007124960422516,0.10271249711513519
1788108362464701400,0.855701416015625,-0.010312499478459358,-0.17118750512599945,0.11866249889135361
1788108362474794500,0.86579443359375,-0.028737500309944153,-0.03918749839067459,0.15771250426769257
1788108362484884000,0.875884033203125,-0.021312499418854713,0.02914999984204769,0.17723749577999115
1788108362494973400,0.885973388671875,0.0030249999836087227,-0.008662499487400055,0.1662375032901764
1788108362505064000,0.89606396484375,0.020212499424815178,-0.12966249883174896,0.11495000123977661
1788108362515172000,0.906172119140625,0.016499999910593033,-0.24199999868869781,0.025712499395012856
1788108362525257200,0.91625732421875,-0.0005499999970197678,-0.2554749846458435,-0.0719124972820282
1788108362535350300,0.926350341796875,0.009212499484419823,-0.17118750512599945,-0.13062499463558197
1788108362545439200,0.936439208984375,0.03355000168085098,-0.052662499248981476,-0.15991249680519104
1788108362555555300,0.946555419921875,0.07150000333786011,0.037675000727176666,-0.17943750321865082
1788108362565644300,0.956644287109375,0.09473749995231628,0.07562500238418579,-0.16967499256134033
1788108362575733500,0.9667333984375,0.11550000309944153,0.05967500060796738,-0.16362500190734863
1788108362585820400,0.9768203125,0.12526249885559082,-0.006324999965727329,-0.19043749570846558
1788108362595906800,0.98690673828125,0.1288374960422516,-0.06861250102519989,-0.22343750298023224
1788108362605992200,0.9969921875,0.1313125044107437,-0.10161250084638596,-0.24914999306201935
1788108362616095000,1.007094970703125,0.13750000298023224,-0.10766249895095825,-0.26743748784065247
1788108362626181600,1.017181640625,0.1313125044107437,-0.10271249711513519,-0.2723875045776367
1788108362636265500,1.027265380859375,0.10807500034570694,-0.012374999932944775,-0.2246749997138977
1788108362646358000,1.03735791015625,0.07878749817609787,0.13667500019073486,-0.13667500019073486
1788108362656451000,1.047451171875,0.05678749829530716,0.2624875009059906,-0.04138749837875366
1788108362666536400,1.057536376953125,0.0494999997317791,0.30524998903274536,0.03189999982714653
1788108362676619800,1.067619873046875,0.05073750019073486,0.2527250051498413,0.059950001537799835
1788108362686709800,1.077709716796875,0.03244999796152115,0.1391499936580658,0.02694999985396862
1788108362696809200,1.087809326171875,-0.0042624999769032,0.002337499987334013,-0.047575000673532486
1788108362706909700,1.09790966796875,-0.03726249933242798,-0.10642500221729279,-0.13062499463558197
1788108362716999200,1.107999267578125,-0.06778749823570251,-0.16513749957084656,-0.21119999885559082
1788108362727089400,1.11808935546875,-0.09583749622106552,-0.1467124968767166,-0.2624875009059906
1788108362737174000,1.128174072265625,-0.09459999948740005,-0.10037499666213989,-0.29315000772476196
1788108362747265500,1.138265625,-0.09955000132322311,-0.008662499487400055,-0.28943750262260437
1788108362757343700,1.14834375,-0.0873124971985817,0.07809999585151672,-0.2539624869823456
1788108362767439600,1.158439697265625,-0.058024998754262924,0.15372499823570251,-0.19043749570846558
1788108362777519900,1.168519775390625,-0.06173750013113022,0.20019999146461487,-0.1073874980211258
1788108362787617800,1.17861767578125,-0.07507500052452087,0.19167499244213104,-0.02433750033378601
1788108362797709600,1.18870947265625,-0.11178749799728394,0.1293874979019165,0.040424998849630356
1788108362807804400,1.198804443359375,-0.16802500188350677,-0.006324999965727329,0.050187498331069946
1788108362817890600,1.208890625,-0.22783750295639038,-0.16747500002384186,0.002612499985843897
1788108362827981800,1.21898193359375,-0.27912500500679016,-0.27994999289512634,-0.08291249722242355
1788108362838073600,1.229073486328125,-0.29631251096725464,-0.296999990940094,-0.1648624986410141
1788108362848173300,1.23917333984375,-0.2718375027179718,-0.2199999988079071,-0.19538749754428864
1788108362858264600,1.2492646484375,-0.21931250393390656,-0.08813749998807907,-0.15015000104904175
1788108362868350000,1.259349853515625,-0.16802500188350677,0.06943749636411667,-0.06091250106692314
1788108362878438100,1.269438232421875,-0.16183750331401825,0.1929125040769577,0.037950001657009125
1788108362888530200,1.2795302734375,-0.17778749763965607,0.22714999318122864,0.14794999361038208
1788108362898622200,1.289622314453125,-0.17159999907016754,0.20391249656677246,0.2554749846458435
1788108362908715800,1.2997158203125,-0.16554999351501465,0.11096250265836716,0.3568125069141388
1788108362918806300,1.30980615234375,-0.17407499253749847,-0.05884999781847,0.4338124990463257
1788108362928896800,1.319896728515625,-0.17036250233650208,-0.25671249628067017,0.4655750095844269
1788108362938991900,1.329991943359375,-0.16926249861717224,-0.4302375018596649,0.43876248598098755
1788108362949083000,1.340082763671875,-0.18507499992847443,-0.5352874994277954,0.35804998874664307
1788108362959182000,1.35018212890625,-0.1863124966621399,-0.5400999784469604,0.26028749346733093
1788108362969276200,1.360276123046875,-0.13626250624656677,-0.45223748683929443,0.16142499446868896
1788108362979374300,1.370374267578125,-0.07878749817609787,-0.31418749690055847,0.05871250107884407
1788108362989469400,1.380469482421875,-0.06173750013113022,-0.2237125039100647,-0.04633750021457672
1788108362999560200,1.390560302734375,-0.04097500070929527,-0.18713749945163727,-0.14038750529289246
1788108363009644500,1.40064453125,0.016499999910593033,-0.1919499933719635,-0.18314999341964722
1788108363019737000,1.410737060546875,0.03244999796152115,-0.23842500150203705,-0.18562500178813934
1788108363029825000,1.420824951171875,-0.010312499478459358,-0.2994749844074249,-0.17215000092983246
1788108363039921700,1.430921630859375,-0.09707500040531158,-0.4094749987125397,-0.15619999170303345
1788108363050008000,1.441008056640625,-0.2143625020980835,-0.546287477016449,-0.15991249680519104
1788108363060102000,1.451101806640625,-0.24736249446868896,-0.6391000151634216,-0.18191249668598175
1788108363070194700,1.461194580078125,-0.23388749361038208,-0.6012874841690063,-0.21367499232292175
1788108363080292600,1.471292724609375,-0.20102499425411224,-0.5095750093460083,-0.23938749730587006
1788108363090380300,1.48138037109375,-0.17036250233650208,-0.38981249928474426,-0.21986250579357147
1788108363100479000,1.49147900390625,-0.08607500046491623,-0.23594999313354492,-0.14409999549388885
1788108363110562300,1.501562255859375,0.06173750013113022,-0.1344749927520752,0.00989999994635582
1788108363120649700,1.511649658203125,0.029975000768899918,-0.11261250078678131,0.1845249980688095
1788108363130742000,1.521741943359375,-0.060499999672174454,-0.11371249705553055,0.3324750065803528
1788108363140843500,1.531843505859375,-0.07273750007152557,-0.23594999313354492,0.44110000133514404
1788108363150935800,1.541935791015625,-0.028737500309944153,-0.4375250041484833,0.48510000109672546
1788108363161032000,1.552031982421875,-0.011549999937415123,-0.5902875065803528,0.46681249141693115
1788108363171118000,1.5621181640625,-0.05197500064969063,-0.6330500245094299,0.4142875075340271
1788108363181211600,1.572211669921875,-0.023787500336766243,-0.6012874841690063,0.34347498416900635
1788108363191306800,1.582306640625,0.018975000828504562,-0.5388625264167786,0.2774749994277954
1788108363201400000,1.592400146484375,0.03478749841451645,-0.432574987411499,0.20776249468326569
1788108363211487700,1.60248779296875,0.060499999672174454,-0.2824249863624573,0.1601874977350235
1788108363221587200,1.612587158203125,0.06421250104904175,-0.20418749749660492,0.12099999934434891
1788108363231684400,1.622684326171875,0.09350000321865082,-0.17366249859333038,0.10395000129938126
1788108363241779700,1.63277978515625,0.116737499833107,-0.1859000027179718,0.09790000319480896
1788108363251869400,1.642869384765625,0.12526249885559082,-0.21518750488758087,0.10395000129938126
1788108363261963800,1.6529638671875,0.13007499277591705,-0.2579500079154968,0.11990000307559967
1788108363272055800,1.663055908203125,0.14231249690055847,-0.2994749844074249,0.11990000307559967
1788108363282148400,1.6731484375,0.16183750331401825,-0.31171250343322754,0.0929500013589859
1788108363292242000,1.683241943359375,0.17531250417232513,-0.3129499852657318,0.052662499248981476
1788108363302338600,1.693338623046875,0.18507499992847443,-0.2994749844074249,-0.002337499987334013
1788108363322514000,1.713513916015625,0.19002500176429749,-0.14547500014305115,-0.08662500232458115
1788108363332597000,1.723596923828125,0.16307500004768372,-0.007424999959766865,-0.08910000324249268
1788108363342689300,1.733689208984375,0.116737499833107,0.1451999992132187,-0.05115000158548355
1788108363352784000,1.743783935546875,0.05555000156164169,0.2820124924182892,0.03189999982714653
1788108363362877700,1.753877685546875,0.009212499484419823,0.35530000925064087,0.15166249871253967
1788108363372973600,1.7639736328125,0.021449999883770943,0.33096250891685486,0.2689499855041504
1788108363383062300,1.774062255859375,-0.03849999979138374,0.2246749997138977,0.36176249384880066
1788108363393154300,1.784154296875,-0.031075000762939453,0.09143749624490738,0.4057624936103821
1788108363403242500,1.794242431640625,-0.0042624999769032,-0.01718750037252903,0.40933749079704285
1788108363413335800,1.804335693359375,0.005499999970197678,-0.1284250020980835,0.3568125069141388
1788108363423434000,1.81443408203125,0.009212499484419823,-0.18713749945163727,0.2677125036716461
1788108363433519900,1.824519775390625,-0.0030249999836087227,-0.11618749797344208,0.1882375031709671
1788108363443611100,1.834611083984375,-0.031075000762939453,0.002337499987334013,0.13323749601840973
1788108363453710000,1.8447099609375,-0.04702499881386757,0.10986249893903732,0.11123749613761902
1788108363463800800,1.85480078125,-0.04097500070929527,0.17448750138282776,0.10271249711513519
1788108363473880300,1.86488037109375,-0.020212499424815178,0.14162500202655792,0.08195000141859055
1788108363483982300,1.874982421875,0.029975000768899918,0.05115000158548355,0.028187500312924385
1788108363494073000,1.885072998046875,0.036024998873472214,-0.02461249940097332,-0.05486249923706055
1788108363504167400,1.89516748046875,0.03849999979138374,-0.08689999580383301,-0.1331000030040741
1788108363514251500,1.90525146484375,0.03355000168085098,-0.07837499678134918,-0.21119999885559082
1788108363526360000,1.917360107421875,0.027499999850988388,-0.007424999959766865,-0.26138749718666077
1788108363536442600,1.927442626953125,0.03973750025033951,0.09267500042915344,-0.2564375102519989
1788108363546534000,1.937533935546875,0.08855000138282776,0.1671999990940094,-0.22591249644756317
1788108363556627200,1.947627197265625,0.06778749823570251,0.22343750298023224,-0.1868624985218048
1788108363566718500,1.957718505859375,0.05197500064969063,0.18191249668598175,-0.13433749973773956
1788108363576803000,1.967802978515625,0.048262499272823334,0.1391499936580658,-0.08415000140666962
1788108363586899500,1.9778994140625,0.016499999910593033,0.08662500232458115,-0.032862499356269836
1788108363597036500,1.98803662109375,-0.06531249731779099,-0.25423750281333923,0.09418749809265137
1788108363607137000,1.998136962890625,-0.018975000828504562,0.07067500054836273,-0.013337500393390656
1788108363617228300,2.008228271484375,0.0006874999962747097,0.20748749375343323,0.0013749999925494194
1788108363627327000,2.018326904296875,0.04331250116229057,0.13296249508857727,0.09418749809265137
1788108363637413600,2.02841357421875,-0.03478749841451645,0.08910000324249268,0.14918750524520874
1788108363647505700,2.038505615234375,-0.07878749817609787,-0.22866250574588776,0.2737624943256378
1788108363657588700,2.048588623046875,-0.053075000643730164,0.04743750020861626,0.1845249980688095
1788108363667681500,2.058681640625,-0.03849999979138374,0.10491249710321426,0.2554749846458435
1788108363677769700,2.068769775390625,-0.07507500052452087,0.0976250022649765,0.3335750102996826
1788108363687862500,2.078862548828125,-0.05555000156164169,0.09143749624490738,0.3862375020980835
1788108363697969700,2.0889697265625,-0.06407500058412552,0.0340999998152256,0.4008125066757202
1788108363708060400,2.099060302734375,-0.04097500070929527,-0.1223749965429306,0.3727625012397766
1788108363718151400,2.1091513671875,0.020212499424815178,-0.26647499203681946,0.2652375102043152
1788108363728246500,2.11924658203125,0.05555000156164169,-0.3104749917984009,0.0966624990105629
1788108363738339300,2.12933935546875,0.060499999672174454,-0.1956624984741211,-0.057337500154972076
1788108363748440300,2.1394404296875,0.060499999672174454,-0.03189999982714653,-0.18067499995231628
1788108363758529000,2.149529052734375,0.06297499686479568,0.10862500220537186,-0.2441999912261963
1788108363768627500,2.15962744140625,0.09831249713897705,0.1929125040769577,-0.25891250371932983
1788108363778725400,2.169725341796875,0.09473749995231628,0.16238750517368317,-0.20514999330043793
1788108363788818000,2.17981787109375,0.13007499277591705,0.07315000146627426,-0.1574375033378601
1788108363798914300,2.189914306640625,0.15826250612735748,0.002337499987334013,-0.1648624986410141
1788108363809008400,2.20000830078125,0.14602500200271606,-0.052662499248981476,-0.1746249943971634
1788108363819101200,2.21010107421875,0.14231249690055847,-0.013612499460577965,-0.16967499256134033
1788108363829192700,2.220192626953125,0.13255000114440918,0.025437500327825546,-0.16609999537467957
1788108363839280000,2.230280029296875,0.148499995470047,0.06091250106692314,-0.17215000092983246
1788108363849378800,2.24037890625,0.13255000114440918,0.10491249710321426,-0.15262499451637268
1788108363859466800,2.250466796875,0.1264999955892563,0.1671999990940094,-0.12443749606609344
1788108363869561600,2.2605615234375,0.15702499449253082,0.23567499220371246,-0.07933750003576279
1788108363879660000,2.270659912109375,0.12031249701976776,0.31501248478889465,-0.006049999967217445
1788108363889751600,2.28075146484375,0.10078749805688858,0.2857249975204468,0.07590000331401825
1788108363899844600,2.2908447265625,0.10807500034570694,0.22220000624656677,0.13199999928474426
1788108363909929700,2.3009296875,0.10078749805688858,0.12196250259876251,0.15771250426769257
1788108363920026600,2.311026611328125,0.08249999582767487,0.03891250118613243,0.14176249504089355
1788108363930115300,2.321115234375,0.06655000150203705,-0.002612499985843897,0.08689999580383301
1788108363940214000,2.331214111328125,0.05555000156164169,-0.01718750037252903,0.018424998968839645
1788108363950313700,2.341313720703125,0.048262499272823334,0.07067500054836273,-0.04262499883770943
1788108363960398000,2.351398193359375,0.020212499424815178,0.20019999146461487,-0.062150001525878906
1788108363970492200,2.3614921875,0.014024999924004078,0.2881999909877777,-0.07438749819993973
1788108363980584000,2.371583984375,-0.010312499478459358,0.3590124845504761,-0.057337500154972076
1788108363990689000,2.38168896484375,0.026262499392032623,0.297962486743927,-0.0695749968290329
1788108364000775200,2.391775146484375,0.05555000156164169,0.22591249644756317,-0.10615000128746033
1788108364010893000,2.40189306640625,0.09597499668598175,0.09515000134706497,-0.1551000028848648
1788108364020979700,2.411979736328125,0.10449999570846558,0.0340999998152256,-0.24062499403953552
1788108364031076000,2.422076171875,0.10078749805688858,0.0364375002682209,-0.3077250123023987
1788108364041169400,2.43216943359375,0.11426249891519547,0.10862500220537186,-0.3431999981403351
1788108364051263200,2.44226318359375,0.09102500230073929,0.19538749754428864,-0.317487508058548
1788108364061347300,2.452347412109375,0.07026249915361404,0.23567499220371246,-0.28091248869895935
1788108364071447300,2.462447265625,0.08249999582767487,0.2149125039577484,-0.2601499855518341
1788108364081559600,2.4725595703125,0.08607500046491623,0.18672500550746918,-0.2307250052690506
1788108364091652900,2.48265283203125,0.07150000333786011,0.15262499451637268,-0.18562500178813934
1788108364101741600,2.492741455078125,0.07273750007152557,0.13420000672340393,-0.1391499936580658
1788108364111828000,2.502827880859375,0.060499999672174454,0.18191249668598175,-0.08662500232458115
1788108364121911800,2.512911865234375,0.060499999672174454,0.17943750321865082,-0.03904999792575836
1788108364132009000,2.523009033203125,0.05678749829530716,0.18067499995231628,-0.0170499999076128
1788108364142103800,2.533103759765625,0.028737500309944153,0.2404875010251999,0.00989999994635582
1788108364152191700,2.543191650390625,0.0017874999903142452,0.36629998683929443,0.04166249930858612
1788108364162279200,2.553279052734375,-0.009212499484419823,0.48730000853538513,0.07218749821186066
1788108364172372000,2.5633720703125,-0.05073750019073486,0.5972999930381775,0.1504250019788742
1788108364182455300,2.573455322265625,-0.058024998754262924,0.6045874953269958,0.23594999313354492
1788108364192542500,2.58354248046875,-0.053075000643730164,0.5337749719619751,0.27252501249313354
1788108364202633700,2.5936337890625,-0.04702499881386757,0.40053749084472656,0.2652375102043152
1788108364212729300,2.603729248046875,-0.03478749841451645,0.2527250051498413,0.20776249468326569
1788108364222820000,2.613820068359375,-0.031212499365210533,0.15619999170303345,0.10889999568462372
1788108364232911600,2.62391162109375,-0.027499999850988388,0.13062499463558197,0.0013749999925494194
1788108364242995500,2.633995361328125,-0.026262499392032623,0.15619999170303345,-0.09267500042915344
1788108364253081900,2.644081787109375,-0.017737500369548798,0.18672500550746918,-0.16362500190734863
1788108364263170600,2.654170654296875,0.006737499963492155,0.20143750309944153,-0.22714999318122864
1788108364273263000,2.66426318359375,0.028737500309944153,0.15138749778270721,-0.282150000333786
1788108364283349500,2.674349609375,0.06297499686479568,0.05967500060796738,-0.3334375023841858
1788108364293434000,2.68443408203125,0.09226249903440475,-0.05142499879002571,-0.38843750953674316
1788108364303523800,2.69452392578125,0.1190750002861023,-0.11371249705553055,-0.42143750190734863
1788108364323697000,2.71469677734375,0.13750000298023224,-0.018424998968839645,-0.40796250104904175
1788108364333793300,2.724793212890625,0.11783749610185623,0.1317249983549118,-0.32120001316070557
1788108364343875000,2.734875,0.1069749966263771,0.26743748784065247,-0.17586250603199005
1788108364353966000,2.744966064453125,0.09707500040531158,0.37619999051094055,0.013612499460577965
1788108364364049400,2.75504931640625,0.08607500046491623,0.36877501010894775,0.1821874976158142
1788108364374145000,2.76514501953125,0.07026249915361404,0.29919999837875366,0.305525004863739
1788108364384230400,2.77523046875,0.04455000162124634,0.202674999833107,0.37757501006126404
1788108364394325500,2.785325439453125,0.021449999883770943,0.09886249899864197,0.41304999589920044
1788108364404412700,2.79541259765625,0.014024999924004078,0.005912499967962503,0.39476248621940613
1788108364414509000,2.805509033203125,0.021449999883770943,-0.12361250072717667,0.30799999833106995
1788108364424595200,2.81559521484375,0.03478749841451645,-0.25423750281333923,0.14794999361038208
1788108364434698000,2.825697998046875,0.04455000162124634,-0.32023748755455017,-0.05115000158548355
1788108364444793000,2.83579296875,0.05197500064969063,-0.24199999868869781,-0.23319999873638153
1788108364454883000,2.845883056640625,0.05197500064969063,-0.07466249912977219,-0.33096250891685486
1788108364464966400,2.85596630859375,0.04221250116825104,0.1256749927997589,-0.3334375023841858
1788108364475064600,2.866064697265625,0.03355000168085098,0.2820124924182892,-0.2539624869823456
1788108364485162200,2.876162353515625,0.04331250116229057,0.33096250891685486,-0.11357499659061432
1788108364495259400,2.88625927734375,0.048262499272823334,0.29672500491142273,0.025712499395012856
1788108364505353200,2.896353271484375,0.04097500070929527,0.12319999933242798,0.14423750340938568
1788108364515448000,2.906447998046875,0.04455000162124634,-0.05389999970793724,0.19318750500679016
1788108364525537000,2.916537109375,0.03244999796152115,-0.14918750524520874,0.2102375030517578
1788108364535629600,2.926629638671875,-0.0005499999970197678,-0.10395000129938126,0.23952500522136688
1788108364545720800,2.936720947265625,-0.031212499365210533,0.009624999947845936,0.29452499747276306
1788108364555810000,2.94681005859375,-0.03231250122189522,0.08043749630451202,0.34581249952316284
1788108364565893600,2.9568935546875,-0.006737499963492155,0.04262499883770943,0.3348124921321869
1788108364575981800,2.96698193359375,0.023787500336766243,-0.06861250102519989,0.2712875008583069
1788108364586078500,2.977078369140625,0.05197500064969063,-0.17366249859333038,0.16266250610351562
1788108364596167700,2.987167724609375,0.06778749823570251,-0.23842500150203705,0.028187500312924385
1788108364606254000,2.997254150390625,0.07026249915361404,-0.2591874897480011,-0.11233749985694885
1788108364616371200,3.00737109375,0.05678749829530716,-0.21889999508857727,-0.23319999873638153
1788108364626459100,3.017459228515625,0.06173750013113022,-0.15771250426769257,-0.34443750977516174
1788108364636559600,3.0275595703125,0.0812624990940094,-0.0929500013589859,-0.43353748321533203
1788108364646646000,3.03764599609375,0.09955000132322311,-0.09790000319480896,-0.5044875144958496
1788108364656734000,3.04773388671875,0.12031249701976776,-0.17723749577999115,-0.5740625262260437
1788108364666813200,3.057813232421875,0.13750000298023224,-0.2737624943256378,-0.6375874876976013
1788108364676906000,3.067906005859375,0.14726249873638153,-0.3287625014781952,-0.7011125087738037
1788108364686997200,3.077997314453125,0.1508374959230423,-0.3372874855995178,-0.7243499755859375
1788108364697080300,3.088080322265625,0.14354999363422394,-0.2689499855041504,-0.6987749934196472
1788108364707174400,3.09817431640625,0.148499995470047,-0.1381874978542328,-0.6193000078201294
1788108364717270800,3.108270751953125,0.15578749775886536,0.023099999874830246,-0.4824874997138977
1788108364727369500,3.118369384765625,0.172837495803833,0.14038750529289246,-0.3359124958515167
1788108364737465900,3.1284658203125,0.17407499253749847,0.20996250212192535,-0.1746249943971634
1788108364747555600,3.1385556640625,0.15592500567436218,0.14781250059604645,-0.0644875019788742
1788108364757652200,3.14865234375,0.14863750338554382,0.05376249924302101,-0.004674999974668026
1788108364767741200,3.1587412109375,0.11687500029802322,-0.01952499896287918,0.023375000804662704
1788108364777830700,3.16883056640625,0.07535000145435333,-0.04399999976158142,0.035612501204013824
1788108364787914000,3.1789140625,0.027637500315904617,-0.018424998968839645,0.035612501204013824
1788108364798003200,3.189003173828125,-0.02969999983906746,0.06228749826550484,0.047849997878074646
1788108364808103200,3.199103271484375,-0.07741250097751617,0.14533749222755432,0.07837499678134918
1788108364818190600,3.209190673828125,-0.11522500216960907,0.19181250035762787,0.1260875016450882
1788108364828280800,3.21928076171875,-0.1274625062942505,0.17586250603199005,0.16637499630451202
1788108364838374100,3.2293740234375,-0.12993749976158142,0.11481250077486038,0.18466250598430634
1788108364848470300,3.23947021484375,-0.1396999955177307,0.01223750039935112,0.15908749401569366
1788108364858553600,3.2495537109375,-0.13722500205039978,-0.10628750175237656,0.08208750188350677
1788108364868639700,3.2596396484375,-0.14217500388622284,-0.1845249980688095,-0.009624999947845936
1788108364878736000,3.26973583984375,-0.1531749963760376,-0.18700000643730164,-0.08524999767541885
1788108364888826400,3.279826416015625,-0.1592250019311905,-0.13323749601840973,-0.13048750162124634
1788108364898925600,3.289925537109375,-0.16046249866485596,-0.04152499884366989,-0.13048750162124634
1788108364909013500,3.300013427734375,-0.16541250050067902,0.09157499670982361,-0.062150001525878906
1788108364919113500,3.310113525390625,-0.19346250593662262,0.23457500338554382,0.07232499867677689
1788108364929206300,3.320206298828125,-0.22893749177455902,0.29438748955726624,0.23471249639987946
1788108364939291100,3.330291015625,-0.2667500078678131,0.24681249260902405,0.35942500829696655
1788108364949381000,3.340381103515625,-0.2985124886035919,0.11481250077486038,0.4254249930381775
1788108364959471600,3.3504716796875,-0.3265624940395355,-0.032999999821186066,0.4449499845504761
1788108364969558300,3.360558349609375,-0.34498751163482666,-0.1405249983072281,0.3997125029563904
1788108364979656200,3.37065625,-0.3559874892234802,-0.1882375031709671,0.3081375062465668
1788108364989754000,3.380754150390625,-0.368087500333786,-0.1405249983072281,0.2116124927997589
1788108364999855000,3.390855224609375,-0.3730374872684479,-0.04895000159740448,0.1321374922990799
1788108365009939000,3.40093896484375,-0.36932501196861267,0.025575000792741776,0.07961250096559525
1788108365020030700,3.41103076171875,-0.3559874892234802,0.05609999969601631,0.011137500405311584
1788108365030124300,3.421124267578125,-0.33880001306533813,0.010999999940395355,-0.06091250106692314
1788108365040218400,3.43121826171875,-0.3265624940395355,-0.05128749832510948,-0.1354375034570694
1788108365050310400,3.441310302734375,-0.31075000762939453,-0.10023749619722366,-0.1989624947309494
1788108365060404000,3.451404052734375,-0.30346250534057617,-0.1405249983072281,-0.2539624869823456
1788108365070495700,3.461495849609375,-0.30098751187324524,-0.1588124930858612,-0.2807750105857849
1788108365080598000,3.471597900390625,-0.28146249055862427,-0.14657500386238098,-0.26496249437332153
1788108365090689800,3.481689697265625,-0.2569875121116638,-0.12223749607801437,-0.2087250053882599
1788108365100789200,3.491789306640625,-0.23622499406337738,-0.09776250272989273,-0.1280124932527542
1788108365110871300,3.501871337890625,-0.21422499418258667,-0.06971249729394913,-0.03396249935030937
1788108365120972800,3.511972900390625,-0.18369999527931213,-0.059950001537799835,0.05637500062584877
1788108365131058700,3.52205859375,-0.17393749952316284,-0.028187500312924385,0.1798499971628189
1788108365141155000,3.532155029296875,-0.16417500376701355,-0.050187498331069946,0.2653749883174896
1788108365151238000,3.54223779296875,-0.1494625061750412,-0.08676250278949738,0.3104749917984009
1788108365161334500,3.55233447265625,-0.12498749792575836,-0.11371249705553055,0.3044250011444092
1788108365171420200,3.562420166015625,-0.089649997651577,-0.16499999165534973,0.2494249939918518
1788108365181512400,3.572512451171875,-0.04922499880194664,-0.20281249284744263,0.17613749206066132
1788108365191605500,3.58260546875,-0.008937500417232513,-0.22852499783039093,0.09308750182390213
1788108365201699000,3.592698974609375,0.03629999980330467,-0.23704999685287476,0.0013749999925494194
1788108365211795200,3.602795166015625,0.07535000145435333,-0.2615250051021576,-0.07796250283718109
1788108365221891300,3.612891357421875,0.10958749800920486,-0.29686251282691956,-0.12691250443458557
1788108365231984000,3.622984130859375,0.1326874941587448,-0.3763374984264374,-0.13420000672340393
1788108365242094600,3.633094482421875,0.14739999175071716,-0.4961000084877014,-0.09872499853372574
1788108365252183800,3.643183837890625,0.3049750030040741,-0.5571500062942505,0.03203750029206276
1788108365262276000,3.653276123046875,0.3086875081062317,-0.5191999673843384,0.14313749969005585
1788108365272364000,3.663364013671875,0.2964499890804291,-0.47891250252723694,0.23594999313354492
1788108365282459600,3.673459716796875,0.33797499537467957,-0.3811500072479248,0.32394999265670776
1788108365292542200,3.683542236328125,0.38926249742507935,-0.22852499783039093,0.3716624975204468
1788108365302632700,3.6936328125,0.4162124991416931,-0.11247500032186508,0.3422375023365021
1788108365312721200,3.70372119140625,0.4100250005722046,-0.050187498331069946,0.28737500309944153
1788108365322819800,3.71381982421875,0.4174500107765198,-0.020762499421834946,0.1956624984741211
1788108365332904200,3.723904296875,0.41868749260902405,0.014574999921023846,0.10161250084638596
1788108365342994000,3.733993896484375,0.4002625048160553,0.06710000336170197,0.030799999833106995
1788108365353081600,3.74408154296875,0.35516250133514404,0.10986249893903732,-0.014437500387430191
1788108365363174100,3.754174072265625,0.30744999647140503,0.09886249899864197,-0.06696250289678574
1788108365373253000,3.764253173828125,0.28421249985694885,0.07204999774694443,-0.1414874941110611
1788108365383347000,3.774346923828125,0.28792500495910645,0.05857500061392784,-0.23553749918937683
1788108365393436000,3.784435791015625,0.2964499890804291,0.07081250101327896,-0.3260124921798706
1788108365403526700,3.794526611328125,0.36726251244544983,0.11852499842643738,-0.41401249170303345
1788108365413605400,3.80460546875,0.5102624893188477,0.340862512588501,-0.48606249690055847
1788108365423698000,3.814697998046875,0.6690750122070312,0.6315374970436096,-0.521399974822998
1788108365433788200,3.8247880859375,0.7618874907493591,0.869825005531311,-0.45787498354911804
1788108365443878000,3.8348779296875,0.7143124938011169,0.9761124849319458,-0.26372501254081726
1788108365453960000,3.8449599609375,0.5395500063896179,0.927299976348877,-0.018149999901652336
1788108365464056800,3.855056884765625,0.2891624867916107,0.8002499938011169,0.22866250574588776
1788108365474144000,3.86514404296875,0.1143999993801117,0.5619624853134155,0.3727625012397766
1788108365484227800,3.875227783203125,0.05939999967813492,0.3151499927043915,0.41071251034736633
1788108365494310000,3.885309814453125,0.03135000169277191,0.12457499653100967,0.3862375020980835
1788108365504405000,3.895405029296875,-0.02722499892115593,0.02199999988079071,0.28366249799728394
1788108365514487000,3.905487060546875,-0.07741250097751617,-0.035475000739097595,0.14066250622272491
1788108365524583200,3.915583251953125,-0.07122500240802765,-0.06228749826550484,0.0013749999925494194
1788108365534679000,3.925678955078125,-0.018699999898672104,-0.035475000739097595,-0.13667500019073486
1788108365544781800,3.93578173828125,0.06435000151395798,0.059812501072883606,-0.258774995803833
1788108365554873300,3.945873291015625,0.13392500579357147,0.2320999950170517,-0.34677499532699585
1788108365564968700,3.95596875,0.171875,0.37991249561309814,-0.3772999942302704
1788108365575065900,3.96606591796875,0.21092499792575836,0.4483875036239624,-0.3993000090122223
1788108365585162000,3.976161865234375,0.18287499248981476,0.6291999816894531,-0.3040125072002411
1788108365595249200,3.986249267578125,0.14135000109672546,0.6230124831199646,-0.19043749570846558
1788108365605346600,3.9963466796875,0.13158750534057617,0.5864375233650208,-0.05115000158548355
1788108365615440000,4.00643994140625,0.10339999943971634,0.4824874997138977,0.08566249907016754
1788108365625531600,4.01653173828125,0.08758749812841415,0.329862505197525,0.19689999520778656
1788108365635617800,4.02661767578125,0.06916250288486481,0.14409999549388885,0.28847500681877136
1788108365645716200,4.03671630859375,0.08758749812841415,-0.04028749838471413,0.31542500853538513
1788108365655806700,4.046806640625,0.10958749800920486,-0.12581250071525574,0.3081375062465668
1788108365665901300,4.0569013671875,0.10711249709129333,-0.13199999928474426,0.28847500681877136
1788108365675994600,4.06699462890625,0.10339999943971634,-0.059950001537799835,0.24818749725818634
1788108365686091300,4.07709130859375,0.10711249709129333,0.035337500274181366,0.1896124929189682
1788108365696180500,4.087180419921875,0.11811249703168869,0.12086249887943268,0.1260875016450882
1788108365706282000,4.097281982421875,0.12416250258684158,0.14657500386238098,0.040562499314546585
1788108365726467800,4.1174677734375,0.09982500225305557,0.1588124930858612,-0.17572499811649323
1788108365736548600,4.127548583984375,0.09487500041723251,0.16238750517368317,-0.23801249265670776
1788108365746644000,4.13764404296875,0.0765874981880188,0.19538749754428864,-0.22948749363422394
1788108365756736300,4.147736328125,0.05939999967813492,0.18438750505447388,-0.195250004529953
1788108365766822400,4.157822509765625,0.06792499870061874,0.21504999697208405,-0.1634874939918518
1788108365776912000,4.167911865234375,0.0668250024318695,0.24791249632835388,-0.11467500030994415
1788108365787007700,4.1780078125,0.05816249921917915,0.2675749957561493,-0.05596249923110008
1788108365797086200,4.188086181640625,0.05706249922513962,0.27486249804496765,0.005087499972432852
1788108365807181600,4.198181640625,0.05087500065565109,0.27857500314712524,0.06984999775886536
1788108365817272600,4.2082724609375,0.0448249988257885,0.26138749718666077,0.11384999752044678
1788108365827362800,4.21836279296875,0.03382499888539314,0.2516250014305115,0.12966249883174896
1788108365837454800,4.228454833984375,0.006874999962747097,0.2125750035047531,0.11866249889135361
1788108365847545900,4.2385458984375,-0.01746249943971634,0.16981250047683716,0.09308750182390213
1788108365857640700,4.248640625,-0.03341250121593475,0.12952500581741333,0.055137500166893005
1788108365867729400,4.2587294921875,-0.03341250121593475,0.08181250095367432,0.01732499897480011
1788108365877813500,4.2688134765625,-0.02488750033080578,0.03423750028014183,-0.004674999974668026
1788108365887902000,4.27890185546875,-0.038362499326467514,0.02928750030696392,-0.022962499409914017
1788108365897994800,4.288994873046875,-0.06888750195503235,0.042762499302625656,-0.05348749831318855
1788108365908083500,4.29908349609375,-0.09569999575614929,0.05252499878406525,-0.08415000140666962
1788108365918176800,4.3091767578125,-0.09941250085830688,0.057337500154972076,-0.14767499268054962
1788108365928268800,4.319268798828125,-0.0859375,0.00976249948143959,-0.20019999146461487
1788108365938366700,4.32936669921875,-0.060224998742341995,-0.035475000739097595,-0.24901250004768372
1788108365948457700,4.339457763671875,-0.02488750033080578,-0.07823749631643295,-0.3003000020980835
1788108365958550800,4.34955078125,0.025299999862909317,-0.11728750169277191,-0.35282498598098755
1788108365968649500,4.3596494140625,0.08387500047683716,-0.14657500386238098,-0.4493499994277954
1788108365978742800,4.36974267578125,0.15344999730587006,-0.14781250059604645,-0.5801125168800354
1788108365988832000,4.37983203125,0.20845000445842743,-0.11852499842643738,-0.6986374855041504
1788108365998923300,4.38992333984375,0.24997499585151672,-0.028187500312924385,-0.7646374702453613
1788108366009009400,4.400009521484375,0.2806375026702881,0.12086249887943268,-0.7316374778747559
1788108366019099100,4.41009912109375,0.2952125072479248,0.2723875045776367,-0.6106374859809875
1788108366029198600,4.420198486328125,0.2964499890804291,0.35667499899864197,-0.41401249170303345
1788108366039289000,4.4302890625,0.2915000021457672,0.3676750063896179,-0.19772499799728394
1788108366049397500,4.4403974609375,0.2671625018119812,0.24681249260902405,0.006324999965727329
1788108366059488800,4.45048876953125,0.23416249454021454,0.10752499848604202,0.15289999544620514
1788108366069615600,4.46061572265625,0.196212500333786,-0.0037124999798834324,0.24695000052452087
1788108366079709200,4.470709228515625,0.15839999914169312,-0.0635249987244606,0.3044250011444092
1788108366089801700,4.4808017578125,0.1106875017285347,-0.032999999821186066,0.33371248841285706
1788108366099889200,4.49088916015625,0.04963750019669533,0.06476250290870667,0.3716624975204468
1788108366109979000,4.500978759765625,0.0032999999821186066,0.19538749754428864,0.4241875112056732
1788108366120071000,4.51107080078125,-0.03464999794960022,0.2638624906539917,0.43876248598098755
1788108366130161700,4.52116162109375,-0.060224998742341995,0.26138749718666077,0.3704249858856201
1788108366140253700,4.531253662109375,-0.07493750005960464,0.16733749210834503,0.19085000455379486
1788108366150348500,4.5413486328125,-0.0859375,0.023237500339746475,-0.05967500060796738
1788108366160460000,4.5514599609375,-0.1311749964952469,-0.07699999958276749,-0.3235374987125397
1788108366170548700,4.561548828125,-0.19827499985694885,-0.06228749826550484,-0.5458750128746033
1788108366180641800,4.571641845703125,-0.2777499854564667,0.028049999848008156,-0.7121124863624573
1788108366190728400,4.581728515625,-0.32903748750686646,0.12952500581741333,-0.8305000066757202
1788108366200828000,4.591827880859375,-0.3400374948978424,0.2125750035047531,-0.8977375030517578
1788108366210917400,4.60191748046875,-0.3180375099182129,0.27486249804496765,-0.8904500007629395
1788108366221010200,4.61201025390625,-0.2899875044822693,0.3004375100135803,-0.7951624989509583
1788108366231097600,4.62209765625,-0.2899875044822693,0.2723875045776367,-0.647350013256073
1788108366241197300,4.632197265625,-0.3180375099182129,0.19304999709129333,-0.4982999861240387
1788108366251289000,4.6422890625,-0.34732499718666077,0.0952875018119812,-0.37853750586509705
1788108366261384000,4.652384033203125,-0.36822500824928284,-0.01347499992698431,-0.2770625054836273
1788108366271474400,4.662474365234375,-0.37056249380111694,-0.09652499854564667,-0.2087250053882599
1788108366281555200,4.67255517578125,-0.35475000739097595,-0.1344749927520752,-0.1769624948501587
1788108366291644200,4.68264404296875,-0.3302749991416931,-0.13928750157356262,-0.20624999701976776
1788108366301733000,4.692733154296875,-0.29727500677108765,-0.14657500386238098,-0.2807750105857849
1788108366311819800,4.70281982421875,-0.2569875121116638,-0.17599999904632568,-0.3675374984741211
1788108366321917000,4.7129169921875,-0.2227499932050705,-0.24433749914169312,-0.4628250002861023
1788108366332009700,4.723009765625,-0.21175000071525574,-0.329862505197525,-0.5691124796867371
1788108366342105300,4.733105224609375,-0.23003749549388885,-0.4031499922275543,-0.691349983215332
1788108366352198100,4.7431982421875,-0.24598750472068787,-0.4386250078678131,-0.8049250245094299
1788108366362288400,4.753288330078125,-0.24722500145435333,-0.43738749623298645,-0.9197375178337097
1788108366372384800,4.763384765625,-0.23498749732971191,-0.40562498569488525,-1.015025019645691
1788108366382470400,4.773470458984375,-0.21546250581741333,-0.3470500111579895,-1.106600046157837
1788108366392556500,4.783556640625,-0.19222499430179596,-0.2517625093460083,-1.1763124465942383
1788108366402651100,4.793651123046875,-0.16169999539852142,-0.1685750037431717,-1.1848374605178833
1788108366412743200,4.8037431640625,-0.1214125007390976,-0.1307625025510788,-1.140837550163269
1788108366422838500,4.813838623046875,-0.08470000326633453,-0.10999999940395355,-1.0247875452041626
1788108366432928500,4.823928466796875,-0.05912499874830246,-0.07947500050067902,-0.8806874752044678
1788108366443008000,4.834008056640625,-0.04922499880194664,-0.07947500050067902,-0.6961625218391418
1788108366453095000,4.844094970703125,-0.06764999777078629,-0.11371249705553055,-0.4713499844074249
1788108366463183600,4.85418359375,-0.08717499673366547,-0.1307625025510788,-0.2502500116825104
1788108366473269000,4.86426904296875,-0.10793749988079071,-0.1685750037431717,-0.08772499859333038
1788108366483361000,4.874361083984375,-0.12264999747276306,-0.21504999697208405,-0.005912499967962503
1788108366493440000,4.88443994140625,-0.12870000302791595,-0.24433749914169312,0.03189999982714653
1788108366503532500,4.894532470703125,-0.12993749976158142,-0.25905001163482666,0.002612499985843897
1788108366513619000,4.904618896484375,-0.13241249322891235,-0.26028749346733093,-0.08043749630451202
1788108366523704300,4.914704345703125,-0.13846249878406525,-0.20281249284744263,-0.1451999992132187
1788108366533791200,4.924791259765625,-0.12993749976158142,-0.09776250272989273,-0.20253749191761017
1788108366543880400,4.93488037109375,-0.10670000314712524,0.0035749999806284904,-0.2124374955892563
1788108366553958400,4.94495849609375,-0.08098749816417694,0.05004999786615372,-0.17572499811649323
1788108366564051000,4.955051025390625,-0.06270000338554382,0.03904999792575836,-0.1097249984741211
1788108366574135800,4.9651357421875,-0.055412501096725464,0.0170499999076128,-0.0644875019788742
1788108366584239400,4.9752392578125,-0.06517499685287476,0.028049999848008156,-0.04138749837875366
1788108366594340900,4.9853408203125,-0.07369999587535858,0.05857500061392784,-0.030387500301003456
1788108366604433700,4.99543359375,-0.07369999587535858,0.06710000336170197,0.01484999991953373
1788108366614520600,5.0055205078125,-0.06270000338554382,0.045099999755620956,0.0906125009059906
1788108366624610000,5.015610107421875,-0.05912499874830246,0.00976249948143959,0.17861250042915344
1788108366634693000,5.025693115234375,-0.05664999783039093,-0.028187500312924385,0.24695000052452087
1788108366644788500,5.03578857421875,-0.060224998742341995,-0.042762499302625656,0.2628999948501587
1788108366654870800,5.045870849609375,-0.06888750195503235,-0.032999999821186066,0.24213749170303345
1788108366664965400,5.05596533203125,-0.06641250103712082,-0.00976249948143959,0.20542499423027039
1788108366675059000,5.066058837890625,-0.05912499874830246,0.02928750030696392,0.16142499446868896
1788108366685155300,5.0761552734375,-0.0541750006377697,0.08304999768733978,0.12966249883174896
1788108366695243300,5.0862431640625,-0.05169999971985817,0.14409999549388885,0.11866249889135361
1788108366705339000,5.0963388671875,-0.05912499874830246,0.19538749754428864,0.13942499458789825
1788108366715434000,5.10643408203125,-0.03217500075697899,0.21133749186992645,0.19085000455379486
1788108366725531100,5.11653125,0.04235000163316727,-0.042762499302625656,0.12113749980926514
1788108366735609000,5.126609130859375,-0.09941250085830688,0.22714999318122864,0.3227125108242035
1788108366745700400,5.136700439453125,-0.09212499856948853,0.17710000276565552,0.3727625012397766
1788108366755791600,5.14679150390625,-0.11522500216960907,0.18205000460147858,0.4302375018596649
1788108366765881600,5.156881591796875,-0.1274625062942505,0.11110000312328339,0.44852501153945923
1788108366775967500,5.166967529296875,-0.1311749964952469,0.01952499896287918,0.41442498564720154
1788108366786056200,5.17705615234375,-0.12017499655485153,-0.09171249717473984,0.31171250343322754
1788108366796142300,5.187142333984375,-0.10298749804496765,-0.15399999916553497,0.1541374921798706
1788108366806267000,5.197266845703125,-0.09088750183582306,-0.1344749927520752,-0.010862499475479126
1788108366816357000,5.207357177734375,-0.07246249914169312,-0.07218749821186066,-0.12925000488758087
1788108366826451500,5.217451416015625,-0.055412501096725464,-0.002474999986588955,-0.19167499244213104
1788108366836597800,5.22759765625,-0.03341250121593475,0.015812499448657036,-0.18177500367164612
1788108366846686500,5.2376865234375,-0.02488750033080578,-0.0317624993622303,-0.11096250265836716
1788108366856784100,5.2477841796875,-0.028462499380111694,-0.12952500581741333,-0.025437500327825546
1788108366866879000,5.25787890625,-0.048124998807907104,-0.2529999911785126,0.03437500074505806
1788108366876974300,5.267974365234375,-0.060224998742341995,-0.3482874929904938,0.038087498396635056
1788108366887060500,5.278060546875,-0.0541750006377697,-0.37014999985694885,-0.025437500327825546
1788108366897152300,5.28815234375,-0.018699999898672104,-0.30662500858306885,-0.14272500574588776
1788108366907242200,5.2982421875,0.22687499225139618,-0.6914874911308289,-0.4885374903678894
1788108366917331200,5.308331298828125,0.27816250920295715,-0.5191999673843384,-0.5666375160217285
1788108366927421000,5.3184208984375,0.10587500035762787,0.07452499866485596,-0.39806249737739563
1788108366937514500,5.328514404296875,0.15839999914169312,0.22110000252723694,-0.29301249980926514
1788108366947600100,5.33860009765625,0.19139999151229858,0.3628624975681305,-0.12196250259876251
1788108366957692700,5.348692626953125,0.19263750314712524,0.3016749918460846,0.10642500221729279
1788108366967791400,5.358791259765625,0.16568750143051147,0.1685750037431717,0.31790000200271606
1788108366977883400,5.36888330078125,0.13144999742507935,0.0085249999538064,0.4265249967575073
1788108366987978000,5.37897802734375,0.09735000133514404,-0.10023749619722366,0.42528748512268066
1788108366998068000,5.38906787109375,0.06916250288486481,-0.13323749601840973,0.3312374949455261
1788108367008158700,5.39915869140625,0.06435000151395798,-0.10999999940395355,0.1896124929189682
1788108367018249700,5.409249755859375,0.08511249721050262,-0.05376249924302101,0.03932499885559082
1788108367028350200,5.41935009765625,0.11192499846220016,0.06833750009536743,-0.07548750191926956
1788108367038446300,5.4294462890625,0.12540000677108765,0.19538749754428864,-0.11715000122785568
1788108367048537000,5.439537109375,0.11563749611377716,0.24062499403953552,-0.10119999945163727
1788108367058625800,5.449625732421875,0.09363749623298645,0.18314999341964722,-0.04496249929070473
1788108367068723700,5.4597236328125,0.06435000151395798,0.04399999976158142,0.040562499314546585
1788108367078824200,5.46982421875,0.03258749842643738,-0.1307625025510788,0.09790000319480896
1788108367088915000,5.4799150390625,0.014162499457597733,-0.25905001163482666,0.10037499666213989
1788108367099000300,5.490000244140625,0.008112499490380287,-0.2858625054359436,0.047849997878074646
1788108367109094400,5.500094482421875,0.021587500348687172,-0.23333749175071716,-0.030387500301003456
1788108367119185400,5.510185302734375,0.06311249732971191,-0.12581250071525574,-0.0999625027179718
1788108367129268500,5.5202685546875,0.1363999992609024,0.010999999940395355,-0.14643749594688416
1788108367139364000,5.530364013671875,0.21216249465942383,0.1331000030040741,-0.13791249692440033
1788108367149456100,5.5404560546875,0.26963749527931213,0.2003374993801117,-0.07548750191926956
1788108367159542000,5.5505419921875,0.29768750071525574,0.22481249272823334,0.03684999793767929
1788108367169631700,5.5606318359375,0.28792500495910645,0.2149125039577484,0.15537500381469727
1788108367179724500,5.570724609375,0.2671625018119812,0.1722874939441681,0.2751374840736389
1788108367189818000,5.580818115234375,0.227974995970726,0.08181250095367432,0.38871249556541443
1788108367199909400,5.590909423828125,0.1742125004529953,0.007287499960511923,0.44852501153945923
1788108367210003000,5.6010029296875,0.14135000109672546,-0.054999999701976776,0.4217124879360199
1788108367220110600,5.611110595703125,0.12292499840259552,-0.06847500056028366,0.32766249775886536
1788108367230201300,5.621201416015625,0.12292499840259552,-0.03671250119805336,0.20666250586509705
1788108367240292600,5.631292724609375,0.1326874941587448,0.035337500274181366,0.07108750194311142
1788108367250387700,5.6413876953125,0.1363999992609024,0.13433749973773956,-0.04138749837875366
1788108367260483800,5.65148388671875,0.12911249697208405,0.19304999709129333,-0.09267500042915344
1788108367270561300,5.661561279296875,0.10711249709129333,0.20514999330043793,-0.08291249722242355
1788108367280667000,5.6716669921875,0.0826374962925911,0.17833749949932098,-0.03396249935030937
1788108367290762800,5.6817626953125,0.04839999973773956,0.10628750175237656,0.02213750034570694
1788108367300863500,5.691863525390625,0.013062499463558197,0.0035749999806284904,0.04908749833703041
1788108367310957600,5.70195751953125,-0.01759999990463257,-0.08676250278949738,0.028324998915195465
1788108367321053400,5.712053466796875,-0.026124998927116394,-0.1270499974489212,-0.0193875003606081
1788108367331140600,5.722140625,-0.011412499472498894,-0.1050499975681305,-0.0644875019788742
1788108367341229300,5.732229248046875,0.015399999916553497,-0.03918749839067459,-0.09019999951124191
1788108367351327200,5.7423271484375,0.03863750025629997,0.028049999848008156,-0.09019999951124191
1788108367361411800,5.752411865234375,0.03382499888539314,0.05004999786615372,-0.07438749819993973
1788108367371501300,5.762501220703125,0.014162499457597733,0.04028749838471413,-0.05238749831914902
1788108367381600000,5.77260009765625,-0.010174999944865704,-0.01223750039935112,-0.022962499409914017
1788108367391700500,5.782700439453125,-0.035887498408555984,-0.07328750193119049,-0.010862499475479126
1788108367401798100,5.792798095703125,-0.0541750006377697,-0.08923749625682831,-0.030387500301003456
1788108367411886600,5.802886474609375,-0.07246249914169312,-0.04647500067949295,-0.05719999969005585
1788108367421980700,5.812980712890625,-0.089649997651577,0.057337500154972076,-0.05115000158548355
1788108367432070000,5.82306982421875,-0.10422500222921371,0.1428624987602234,-0.014437500387430191
1788108367442160600,5.83316064453125,-0.11522500216960907,0.15386250615119934,0.045375000685453415
1788108367452261000,5.84326123046875,-0.11893749982118607,0.0658624991774559,0.10642500221729279
1788108367462361000,5.853361083984375,-0.12017499655485153,-0.04399999976158142,0.11990000307559967
1788108367472453000,5.863453125,-0.11041250079870224,-0.14300000667572021,0.09913749992847443
1788108367482540500,5.87354052734375,-0.09446249902248383,-0.18700000643730164,0.038087498396635056
1788108367492632800,5.8836328125,-0.07493750005960464,-0.17957499623298645,-0.06943749636411667
1788108367502727400,5.8937275390625,-0.052937500178813934,-0.11976250261068344,-0.19772499799728394
1788108367512822000,5.903822021484375,-0.026124998927116394,-0.0317624993622303,-0.28806251287460327
1788108367522911500,5.913911376953125,-0.004124999977648258,0.042762499302625656,-0.33082500100135803
1788108367532993800,5.923993896484375,0.025162499397993088,0.08910000324249268,-0.31501248478889465
1788108367543088000,5.934088134765625,0.05582499876618385,0.09886249899864197,-0.2465374916791916
1788108367553168400,5.94416845703125,0.08511249721050262,0.07204999774694443,-0.1414874941110611
1788108367563260000,5.954260009765625,0.09487500041723251,0.042762499302625656,-0.013199999928474426
1788108367573353200,5.964353271484375,0.08635000139474869,0.002337499987334013,0.13461250066757202
1788108367583442700,5.974442626953125,0.07163749635219574,-0.057475000619888306,0.2531374990940094
1788108367593531600,5.98453173828125,0.06558749824762344,-0.12099999934434891,0.31790000200271606
1788108367603616800,5.99461669921875,0.06311249732971191,-0.17352500557899475,0.32766249775886536
1788108367613702000,6.004701904296875,0.06916250288486481,-0.20776249468326569,0.29589998722076416
1788108367623795200,6.014795166015625,0.08016250282526016,-0.21504999697208405,0.23237499594688416
1788108367633881600,6.024881591796875,0.09116250276565552,-0.2003374993801117,0.12718750536441803
1788108367643972400,6.034972412109375,0.08992499858140945,-0.16005000472068787,0.01732499897480011
1788108367654058200,6.045058349609375,0.08139999955892563,-0.08676250278949738,-0.07672499865293503
1788108367664153300,6.0551533203125,0.06435000151395798,-0.04895000159740448,-0.12072499841451645
1788108367674243000,6.0652431640625,0.04839999973773956,-0.032999999821186066,-0.10243749618530273
1788108367684339700,6.075339599609375,0.017875000834465027,-0.02694999985396862,-0.06572499871253967
1788108367694430000,6.085429931640625,-0.007699999958276749,-0.02694999985396862,-0.0034374999813735485
1788108367704533500,6.095533447265625,-0.01759999990463257,-0.06228749826550484,0.06861250102519989
1788108367714626800,6.105626708984375,-0.007699999958276749,-0.09171249717473984,0.1321374922990799
1788108367724726800,6.115726806640625,0.015399999916553497,-0.07576250284910202,0.17613749206066132
1788108367734825700,6.12582568359375,0.05087500065565109,-0.0085249999538064,0.21642500162124634
1788108367744904700,6.13590478515625,0.09735000133514404,0.08428750187158585,0.2653749883174896
1788108367755001300,6.14600146484375,0.14121249318122864,0.15138749778270721,0.32147499918937683
1788108367765089000,6.156089111328125,0.1779250055551529,0.19181250035762787,0.38871249556541443
1788108367775185000,6.166184814453125,0.2059749960899353,0.18314999341964722,0.45100000500679016
1788108367785269000,6.17626904296875,0.2157374918460846,0.16238750517368317,0.49623748660087585
1788108367795359500,6.186359375,0.20845000445842743,0.17833749949932098,0.5230500102043152
1788108367805451500,6.196451416015625,0.20363749563694,0.2125750035047531,0.5438125133514404
1788108367815548200,6.206548095703125,0.20487499237060547,0.2186249941587448,0.5402374863624573
1788108367825641700,6.216641845703125,0.21821250021457672,0.19304999709129333,0.4974749982357025
1788108367835735800,6.22673583984375,0.23539999127388,0.15386250615119934,0.44247499108314514
1788108367845831700,6.236831787109375,0.24997499585151672,0.14162500202655792,0.353237509727478
1788108367855917600,6.24691748046875,0.2609750032424927,0.16238750517368317,0.25671249628067017
1788108367866014200,6.25701416015625,0.27445000410079956,0.2063875049352646,0.1601874977350235
1788108367876104700,6.267104736328125,0.28792500495910645,0.26138749718666077,0.09308750182390213
1788108367886203100,6.277203125,0.30992498993873596,0.3273875117301941,0.0648999959230423
1788108367896296700,6.287296630859375,0.33797499537467957,0.3371500074863434,0.060087498277425766
1788108367906380800,6.297380859375,0.3587374985218048,0.28943750262260437,0.07356250286102295
1788108367916471300,6.30747119140625,0.3562625050544739,0.2125750035047531,0.07961250096559525
1788108367926564000,6.317564208984375,0.3404499888420105,0.13062499463558197,0.05389999970793724
1788108367936650000,6.32764990234375,0.3221625089645386,0.07809999585151672,-0.020624998956918716
1788108367946756000,6.337756103515625,0.3111625015735626,0.07576250284910202,-0.12925000488758087
1788108367956849000,6.347848876953125,0.3012624979019165,0.13433749973773956,-0.2624875009059906
1788108367966948600,6.357948486328125,0.3111625015735626,0.24667499959468842,-0.3760625123977661
1788108367977039400,6.368039306640625,0.32945001125335693,0.35791251063346863,-0.44577500224113464
1788108367987137800,6.3781376953125,0.3367374837398529,0.46915000677108765,-0.4567750096321106
1788108367997229300,6.388229248046875,0.3306874930858612,0.5374875068664551,-0.3870624899864197
1788108368007324700,6.39832470703125,0.30250000953674316,0.5546749830245972,-0.24296249449253082
1788108368017410800,6.408410888671875,0.24268749356269836,0.49472498893737793,-0.07672499865293503
1788108368027507200,6.418507080078125,0.18287499248981476,0.35791251063346863,0.0845625028014183
1788108368037598200,6.42859814453125,0.13392500579357147,0.20157499611377716,0.21518750488758087
1788108368047682800,6.438682861328125,0.10587500035762787,0.09404999762773514,0.27390000224113464
1788108368057779000,6.448779052734375,0.08139999955892563,0.032999999821186066,0.24089999496936798
1788108368067865900,6.458865966796875,0.06435000151395798,0.04152499884366989,0.1504250019788742
1788108368077955600,6.46895556640625,0.06435000151395798,0.07576250284910202,0.02461249940097332
1788108368088039400,6.479039306640625,0.06792499870061874,0.14904999732971191,-0.10848750174045563
1788108368098130000,6.4891298828125,0.06435000151395798,0.24667499959468842,-0.20624999701976776
1788108368108218400,6.49921826171875,0.04963750019669533,0.29067498445510864,-0.2624875009059906
1788108368118313000,6.50931298828125,0.03616249933838844,0.2761000096797943,-0.2685374915599823
1788108368128407800,6.51940771484375,0.022824998944997787,0.2125750035047531,-0.22343750298023224
1788108368138502700,6.529502685546875,0.017875000834465027,0.10381250083446503,-0.15619999170303345
1788108368148586800,6.539586669921875,0.015399999916553497,-0.01718750037252903,-0.10724999755620956
1788108368168793600,6.559793701171875,0.03258749842643738,-0.10023749619722366,-0.10243749618530273
1788108368178885400,6.569885498046875,0.04839999973773956,-0.02199999988079071,-0.12443749606609344
1788108368188971300,6.57997119140625,0.05458749830722809,0.09652499854564667,-0.11467500030994415
1788108368199058200,6.59005810546875,0.06311249732971191,0.18205000460147858,-0.05967500060796738
1788108368209155600,6.600155517578125,0.07039999961853027,0.2003374993801117,0.040562499314546585
1788108368219248000,6.610248046875,0.07535000145435333,0.1428624987602234,0.1504250019788742
1788108368229332500,6.62033251953125,0.08511249721050262,0.054999999701976776,0.25189998745918274
1788108368239425300,6.63042529296875,0.09611249715089798,-0.029424998909235,0.3190000057220459
1788108368249522200,6.640522216796875,0.10216250270605087,-0.08923749625682831,0.33371248841285706
1788108368259625000,6.650625,0.10711249709129333,-0.15523749589920044,0.29823750257492065
1788108368269719800,6.6607197265625,0.09239999949932098,-0.21876250207424164,0.22990000247955322
1788108368279803600,6.6708037109375,0.06187500059604645,-0.25533750653266907,0.12113749980926514
1788108368289895200,6.680895263671875,0.017875000834465027,-0.25905001163482666,-0.025437500327825546
1788108368299982800,6.69098291015625,-0.040699999779462814,-0.20899999141693115,-0.19043749570846558
1788108368310072800,6.70107275390625,-0.07617499679327011,-0.13571250438690186,-0.33329999446868896
1788108368320162300,6.711162353515625,-0.082225002348423,-0.07452499866485596,-0.43353748321533203
1788108368330258400,6.721258544921875,-0.07617499679327011,-0.018424998968839645,-0.4652999937534332
1788108368340349000,6.731348876953125,-0.08112499862909317,0.00976249948143959,-0.4347749948501587
1788108368350444000,6.741444091796875,-0.09088750183582306,0.010999999940395355,-0.36506250500679016
1788108368360538400,6.751538330078125,-0.10546249896287918,-0.03423750028014183,-0.29906249046325684
1788108368370642700,6.761642578125,-0.11893749982118607,-0.09404999762773514,-0.25753748416900635
1788108368380743000,6.771742919921875,-0.12498749792575836,-0.12952500581741333,-0.22220000624656677
1788108368390832600,6.78183251953125,-0.12264999747276306,-0.1344749927520752,-0.21601249277591705
1788108368400928500,6.791928466796875,-0.10312499850988388,-0.11495000123977661,-0.23319999873638153
1788108368411062000,6.80206201171875,-0.08717499673366547,-0.07947500050067902,-0.24172499775886536
1788108368421154300,6.812154296875,-0.07617499679327011,-0.0611874982714653,-0.23196250200271606
1788108368431251700,6.822251708984375,-0.07369999587535858,-0.0635249987244606,-0.21601249277591705
1788108368441336300,6.83233642578125,-0.0859375,-0.09404999762773514,-0.1989624947309494
1788108368451435300,6.842435302734375,-0.10312499850988388,-0.1467124968767166,-0.19401249289512634
1788108368461520000,6.852519775390625,-0.11522500216960907,-0.20652499794960022,-0.2087250053882599
1788108368471624700,6.862624755859375,-0.1116499975323677,-0.2517625093460083,-0.24172499775886536
1788108368481717200,6.87271728515625,-0.09569999575614929,-0.27252501249313354,-0.2807750105857849
1788108368491811600,6.8828115234375,-0.06888750195503235,-0.2615250051021576,-0.3382500112056732
1788108368501893000,6.89289306640625,-0.035887498408555984,-0.23457500338554382,-0.39806249737739563
1788108368511989500,6.902989501953125,0.0031624999828636646,-0.2102375030517578,-0.45553749799728394
1788108368522076000,6.913075927734375,0.03987500071525574,-0.18576249480247498,-0.49334999918937683
1788108368532172500,6.923172607421875,0.0789249986410141,-0.15399999916553497,-0.49211248755455017
1788108368542270000,6.93327001953125,0.11316250264644623,-0.11604999750852585,-0.4493499994277954
1788108368552366800,6.943366943359375,0.14368750154972076,-0.07576250284910202,-0.36629998683929443
1788108368562456000,6.9534560546875,0.15963749587535858,-0.03423750028014183,-0.23801249265670776
1788108368572541400,6.96354150390625,0.164450004696846,0.015812499448657036,-0.06696250289678574
1788108368582629000,6.973629150390625,0.17297500371932983,0.020762499421834946,0.12484999746084213
1788108368602816800,6.993816650390625,0.18039999902248383,-0.05252499878406525,0.41318750381469727
1788108368612904700,7.00390478515625,0.16940000653266907,-0.08318749815225601,0.4717625081539154
1788108368622986000,7.013986083984375,0.1424500048160553,-0.09404999762773514,0.4595249891281128
1788108368633073400,7.024073486328125,0.11192499846220016,-0.08552499860525131,0.4045250117778778
1788108368643161600,7.03416162109375,0.07768750190734863,-0.09652499854564667,0.3190000057220459
1788108368653251600,7.04425146484375,0.04592499881982803,-0.0952875018119812,0.20542499423027039
1788108368663330600,7.05433056640625,0.022824998944997787,-0.11247500032186508,0.08937499672174454
1788108368673424000,7.064423828125,0.0056374999694526196,-0.1307625025510788,-0.02914999984204769
1788108368683514600,7.0745146484375,-0.016362499445676804,-0.1247124969959259,-0.11715000122785568
1788108368693604000,7.08460400390625,-0.03217500075697899,-0.1307625025510788,-0.17201249301433563
1788108368703691300,7.094691162109375,-0.02736249938607216,-0.1527625024318695,-0.21848750114440918
1788108368713788400,7.104788330078125,-0.006599999964237213,-0.15757499635219574,-0.2747249901294708
1788108368723869200,7.114869140625,0.008112499490380287,-0.11976250261068344,-0.29672500491142273
1788108368733962000,7.1249619140625,0.027637500315904617,-0.050187498331069946,-0.267300009727478
1788108368744049700,7.135049560546875,0.05335000157356262,0.05252499878406525,-0.1634874939918518
1788108368754146000,7.14514599609375,0.08139999955892563,0.16128750145435333,0.023375000804662704
1788108368764231700,7.155231689453125,0.1046374961733818,0.20157499611377716,0.2531374990940094
1788108368774328000,7.165328125,0.11935000121593475,0.13928750157356262,0.4729999899864197
1788108368784421600,7.175421630859375,0.12168750166893005,0.023237500339746475,0.6318125128746033
1788108368804608800,7.19560888671875,0.11687500029802322,-0.057475000619888306,0.7258625030517578
1788108368814709000,7.205708984375,0.1143999993801117,-0.037950001657009125,0.6892874836921692
1788108368824806000,7.215805908203125,0.1143999993801117,0.010999999940395355,0.6245250105857849
1788108368834955500,7.22595556640625,0.12044999748468399,0.06228749826550484,0.5487625002861023
1788108368845044200,7.236044189453125,0.1326874941587448,0.10986249893903732,0.4729999899864197
1788108368855138600,7.246138671875,0.13763749599456787,0.14162500202655792,0.4179999828338623
1788108368865233000,7.25623291015625,0.12540000677108765,0.17586250603199005,0.3862375020980835
1788108368875328800,7.266328857421875,0.1046374961733818,0.19415000081062317,0.38376250863075256
1788108368885413000,7.2764130859375,0.07768750190734863,0.19538749754428864,0.41923749446868896
1788108368895507200,7.286507080078125,0.05582499876618385,0.16362500190734863,0.4717625081539154
1788108368905591000,7.296591064453125,0.03616249933838844,0.10986249893903732,0.5059999823570251
1788108368915684400,7.306684326171875,0.019112499430775642,0.05609999969601631,0.5097125172615051
1788108368925786000,7.3167861328125,-0.008937500417232513,0.042762499302625656,0.4815250039100647
1788108368935875300,7.326875244140625,-0.04441250115633011,0.057337500154972076,0.427762508392334
1788108368945977000,7.33697705078125,-0.0798875018954277,0.0952875018119812,0.36547499895095825
1788108368956065500,7.3470654296875,-0.11646249890327454,0.14162500202655792,0.3166624903678894
1788108368966160400,7.357160400390625,-0.14464999735355377,0.16238750517368317,0.27871251106262207
1788108368976263200,7.36726318359375,-0.17393749952316284,0.13557499647140503,0.23966249823570251
1788108368986355000,7.37735498046875,-0.20817500352859497,0.0976250022649765,0.1859000027179718
1788108368996447000,7.387447021484375,-0.24722500145435333,0.07204999774694443,0.12718750536441803
1788108369006537200,7.397537109375,-0.28503748774528503,0.06228749826550484,0.050324998795986176
1788108369016631300,7.40763134765625,-0.31322500109672546,0.05857500061392784,-0.04262499883770943
1788108369026734000,7.417734130859375,-0.33880001306533813,0.05376249924302101,-0.15248750150203705
1788108369036850000,7.427849853515625,-0.35475000739097595,0.06104999780654907,-0.267300009727478
1788108369046935800,7.437935791015625,-0.35227498412132263,0.0635249987244606,-0.37482500076293945
1788108369057027800,7.44802783203125,-0.3375625014305115,0.059812501072883606,-0.4713499844074249
1788108369067112000,7.45811181640625,-0.31927499175071716,0.06710000336170197,-0.5385875105857849
1788108369077205000,7.468205078125,-0.30469998717308044,0.08786249905824661,-0.5788750052452087
1788108369087295700,7.478295654296875,-0.296037495136261,0.0976250022649765,-0.6033499836921692
1788108369097382400,7.48838232421875,-0.2899875044822693,0.10257499665021896,-0.6021124720573425
1788108369107469000,7.498468994140625,-0.2827000021934509,0.08428750187158585,-0.5813499689102173
1788108369117576400,7.508576416015625,-0.27527499198913574,0.037812501192092896,-0.5593500137329102
1788108369127668000,7.51866796875,-0.2704625129699707,-0.01347499992698431,-0.5568749904632568
1788108369137757000,7.5287568359375,-0.271699994802475,-0.040424998849630356,-0.5593500137329102
1788108369147848000,7.538847900390625,-0.271699994802475,-0.03671250119805336,-0.5495874881744385
1788108369157937400,7.5489375,-0.25946250557899475,-0.0147124994546175,-0.5202999711036682
1788108369168018000,7.559017822265625,-0.24117499589920044,-0.0012374999932944775,-0.4787749946117401
1788108369178103800,7.569103759765625,-0.23127499222755432,0.020762499421834946,-0.42006251215934753
1788108369188197600,7.57919775390625,-0.23622499406337738,0.032999999821186066,-0.3394874930381775
1788108369198294300,7.589294189453125,-0.24117499589920044,0.02433750033378601,-0.2539624869823456
1788108369208380700,7.599380615234375,-0.23622499406337738,-0.029424998909235,-0.15372499823570251
1788108369218478800,7.609478759765625,-0.21917499601840973,-0.12347500026226044,-0.05362499877810478
1788108369228567300,7.6195673828125,-0.20817500352859497,-0.2358125001192093,0.008799999952316284
1788108369238662700,7.62966259765625,-0.19593749940395355,-0.33605000376701355,0.0038499999791383743
1788108369248755000,7.6397548828125,-0.17641249299049377,-0.38609999418258667,-0.06572499871253967
1788108369258857700,7.649857666015625,-0.16541250050067902,-0.3433375060558319,-0.16101250052452087
1788108369268960000,7.6599599609375,-0.15565000474452972,-0.23828749358654022,-0.2404875010251999
1788108369279050800,7.67005078125,-0.1531749963760376,-0.15523749589920044,-0.2563000023365021
1788108369289145000,7.68014501953125,-0.1592250019311905,-0.10999999940395355,-0.21601249277591705
1788108369299234300,7.690234375,-0.16898749768733978,-0.08428750187158585,-0.13667500019073486
1788108369309329000,7.700328857421875,-0.17393749952316284,-0.10023749619722366,-0.02186249941587448
1788108369319420000,7.710419921875,-0.18246249854564667,-0.15399999916553497,0.09790000319480896
1788108369329508600,7.720508544921875,-0.18617500364780426,-0.22123749554157257,0.19318750500679016
1788108369339603200,7.730603271484375,-0.18246249854564667,-0.2932874858379364,0.25066250562667847
1788108369349696500,7.740696533203125,-0.17270000278949738,-0.329862505197525,0.2591874897480011
1788108369369880000,7.760880126953125,-0.16541250050067902,-0.2320999950170517,0.18466250598430634
1788108369379967700,7.7709677734375,-0.16775000095367432,-0.17352500557899475,0.1321374922990799
1788108369390063900,7.78106396484375,-0.1714625060558319,-0.15152500569820404,0.07837499678134918
1788108369400151800,7.79115185546875,-0.16775000095367432,-0.17599999904632568,0.01979999989271164
1788108369410249500,7.80124951171875,-0.16169999539852142,-0.2480500042438507,-0.04372499883174896
1788108369420344000,7.811343994140625,-0.1568875014781952,-0.2870999872684479,-0.11715000122785568
1788108369430436900,7.821436767578125,-0.14464999735355377,-0.29686251282691956,-0.1891999989748001
1788108369440522200,7.831522216796875,-0.1396999955177307,-0.2810499966144562,-0.2759625017642975
1788108369450617900,7.841617919921875,-0.133650004863739,-0.24199999868869781,-0.3614875078201294
1788108369460709400,7.85170947265625,-0.12622499465942383,-0.1979999989271164,-0.4175874888896942
1788108369470821400,7.8618212890625,-0.11288750171661377,-0.1662375032901764,-0.4542999863624573
1788108369480903700,7.871903564453125,-0.09212499856948853,-0.14176249504089355,-0.49582499265670776
1788108369491000000,7.882,-0.07369999587535858,-0.10752499848604202,-0.5508249998092651
1788108369501090800,7.8920908203125,-0.05664999783039093,-0.05376249924302101,-0.5983999967575073
1788108369511185700,7.902185546875,-0.040699999779462814,-0.0012374999932944775,-0.6289250254631042
1788108369521281500,7.912281494140625,-0.02488750033080578,0.0658624991774559,-0.6241124868392944
1788108369531379000,7.92237890625,-0.010174999944865704,0.14781250059604645,-0.5495874881744385
1788108369541465300,7.93246533203125,-0.004124999977648258,0.2223374992609024,-0.4152500033378601
1788108369551554000,7.942553955078125,-0.005362499970942736,0.24791249632835388,-0.2563000023365021
1788108369561643500,7.9526435546875,-0.016362499445676804,0.20514999330043793,-0.12443749606609344
1788108369571738400,7.96273828125,-0.038362499326467514,0.11604999750852585,-0.05362499877810478
1788108369581832400,7.97283251953125,-0.07864999771118164,0.0317624993622303,-0.04619999974966049
1788108369591927300,7.98292724609375,-0.12264999747276306,0.002337499987334013,-0.06091250106692314
1788108369602017300,7.993017333984375,-0.14822499454021454,0.01223750039935112,-0.06338749825954437
1788108369612115000,8.003114990234375,-0.15070000290870667,0.032999999821186066,-0.05719999969005585
1788108369622207200,8.013207275390625,-0.133650004863739,0.05252499878406525,-0.04262499883770943
1788108369632304600,8.0233046875,-0.10793749988079071,0.06833750009536743,-0.022962499409914017
1788108369642400300,8.033400146484375,-0.08236250281333923,0.05857500061392784,-0.004674999974668026
1788108369652546800,8.043546875,-0.06146249920129776,0.0695749968290329,0.01979999989271164
1788108369662675000,8.053675048828126,-0.035887498408555984,0.10381250083446503,0.0625625029206276
1788108369672769800,8.063769775390625,-0.007837500423192978,0.11481250077486038,0.1358499974012375
1788108369682864000,8.073864013671875,0.027637500315904617,0.09281250089406967,0.22013749182224274
1788108369692946200,8.0839462890625,0.07768750190734863,0.04633750021457672,0.31418749690055847
1788108369703039700,8.094039794921875,0.14492499828338623,-0.01223750039935112,0.403425008058548
1788108369713144300,8.104144287109374,0.22673749923706055,-0.07576250284910202,0.45704999566078186
1788108369723237000,8.114237060546875,0.318450003862381,-0.12223749607801437,0.4717625081539154
1788108369733328600,8.12432861328125,0.40878748893737793,-0.16981250047683716,0.4534749984741211
1788108369743423700,8.134423828125,0.4894999861717224,-0.1979999989271164,0.41071251034736633
1788108369753508000,8.144508056640625,0.5565999746322632,-0.23100000619888306,0.35199999809265137
1788108369763599400,8.154599365234375,0.6128374934196472,-0.2712875008583069,0.27390000224113464
1788108369773690400,8.1646904296875,0.6593124866485596,-0.32010000944137573,0.1601874977350235
1788108369783781400,8.174781494140625,0.6958875060081482,-0.3433375060558319,0.02213750034570694
1788108369793858300,8.1848583984375,0.7398874759674072,-0.3592875003814697,-0.10491249710321426
1788108369803950300,8.194950439453125,0.7948874831199646,-0.3628624975681305,-0.20019999146461487
1788108369814038000,8.2050380859375,0.8436999917030334,-0.3823874890804291,-0.2539624869823456
1788108369824122400,8.215122314453126,0.8901749849319458,-0.4105750024318695,-0.2942500114440918
1788108369834210300,8.225210205078126,0.9182249903678894,-0.4423374831676483,-0.317487508058548
1788108369844304600,8.2353046875,0.9171249866485596,-0.4386250078678131,-0.3077250123023987
1788108369854400300,8.245400146484375,0.8754624724388123,-0.404387503862381,-0.27101248502731323
1788108369864498000,8.255497802734375,0.7948874831199646,-0.35062500834465027,-0.2172500044107437
1788108369874593300,8.26559326171875,0.6995999813079834,-0.3188624978065491,-0.19277499616146088
1788108369884690400,8.2756904296875,0.6140750050544739,-0.3152875006198883,-0.1989624947309494
1788108369894788400,8.285788330078125,0.5505499839782715,-0.3348124921321869,-0.22948749363422394
1788108369904882000,8.2958818359375,0.49197500944137573,-0.34209999442100525,-0.27953749895095825
1788108369914974700,8.305974609375,0.4197874963283539,-0.2835249900817871,-0.32725000381469727
1788108369925071600,8.316071533203125,0.3269749879837036,-0.15771250426769257,-0.3517250120639801
1788108369935164200,8.3261640625,0.21697500348091125,-0.00976249948143959,-0.3198249936103821
1788108369945252600,8.336252685546874,0.10587500035762787,0.12209999561309814,-0.227012500166893
1788108369955345200,8.34634521484375,0.004399999976158142,0.19415000081062317,-0.09143749624490738
1788108369965442800,8.35644287109375,-0.09088750183582306,0.1746249943971634,0.03189999982714653
1788108369975537200,8.366537109375,-0.18741250038146973,0.09157499670982361,0.07356250286102295
1788108369985636400,8.37663623046875,-0.24722500145435333,-0.015949999913573265,0.020899999886751175
1788108369995721500,8.386721435546875,-0.2765125036239624,-0.05376249924302101,-0.11096250265836716
1788108370005817000,8.396817138671874,-0.3022249937057495,0.02433750033378601,-0.28929999470710754
1788108370015900200,8.406900146484375,-0.3339875042438507,0.18933749198913574,-0.49582499265670776
1788108370025996000,8.41699609375,-0.36822500824928284,0.38967499136924744,-0.6619250178337097
1788108370036088600,8.427088623046876,-0.38403749465942383,0.5839625000953674,-0.7023500204086304
1788108370046189800,8.43718994140625,-0.3718000054359436,0.7000125050544739,-0.6289250254631042
1788108370056280300,8.4472802734375,-0.33274999260902405,0.7317749857902527,-0.4591124951839447
1788108370066375000,8.457375,-0.29122498631477356,0.7255874872207642,-0.19648750126361847
1788108370076460000,8.4674599609375,-0.26317501068115234,0.6877750158309937,0.1321374922990799
1788108370086558000,8.477557861328124,-0.23141250014305115,0.607200026512146,0.45471251010894775
1788108370096652800,8.48765283203125,-0.19346250593662262,0.5302000045776367,0.7198125123977661
1788108370106751500,8.49775146484375,-0.15070000290870667,0.5020124912261963,0.934862494468689
1788108370116845800,8.507845703125,-0.09088750183582306,0.5216749906539917,1.1022000312805176
1788108370126949000,8.51794921875,-0.02969999983906746,0.5534374713897705,1.2207249402999878
1788108370137040100,8.5280400390625,0.027637500315904617,0.5667750239372253,1.26829993724823
1788108370147141400,8.538141357421875,0.08016250282526016,0.5582500100135803,1.2573000192642212
1788108370157232000,8.548232177734375,0.11811249703168869,0.5350124835968018,1.2035374641418457
1788108370167336400,8.55833642578125,0.15111249685287476,0.5094375014305115,1.1131999492645264
1788108370177419800,8.568419677734376,0.17544999718666077,0.47891250252723694,0.9849125146865845
1788108370187514000,8.57851416015625,0.19744999706745148,0.4544374942779541,0.8614374995231628
1788108370197606400,8.5886064453125,0.19868749380111694,0.42748749256134033,0.7748125195503235
1788108370207707000,8.598706787109375,0.1681624948978424,0.39338749647140503,0.7185750007629395
1788108370217792000,8.6087919921875,0.11811249703168869,0.345674991607666,0.6745749711990356
1788108370237970700,8.628970703125,0.025162499397993088,0.18562500178813934,0.5670499801635742
1788108370248059100,8.63905908203125,0.0031624999828636646,0.11357499659061432,0.47905001044273376
1788108370258140400,8.649140380859375,-0.0028874999843537807,0.08552499860525131,0.39118748903274536
1788108370268233200,8.659233154296874,0.0008249999955296516,0.12828749418258667,0.34347498416900635
1788108370278318800,8.66931884765625,0.015399999916553497,0.18809999525547028,0.3386625051498413
1788108370288419300,8.67941943359375,0.03258749842643738,0.2186249941587448,0.3727625012397766
1788108370298509000,8.689509033203125,0.04235000163316727,0.1966249942779541,0.4021874964237213
1788108370308603400,8.699603271484374,0.04592499881982803,0.15028749406337738,0.40328750014305115
1788108370318702600,8.70970263671875,0.0471624992787838,0.11604999750852585,0.40328750014305115
1788108370328791600,8.71979150390625,0.0411125011742115,0.08552499860525131,0.3959999978542328
1788108370338885400,8.729885498046874,0.03987500071525574,0.06710000336170197,0.3667125105857849
1788108370348974800,8.739974853515625,0.03382499888539314,0.0635249987244606,0.3251875042915344
1788108370359060000,8.75006005859375,0.028875000774860382,0.08181250095367432,0.28366249799728394
1788108370369153000,8.760153076171875,0.025162499397993088,0.08552499860525131,0.23594999313354492
1788108370379248000,8.770248046875,0.03135000169277191,0.07686249911785126,0.17366249859333038
1788108370389334800,8.780334716796874,0.0471624992787838,0.05252499878406525,0.07232499867677689
1788108370399429400,8.790429443359375,0.04963750019669533,0.02199999988079071,-0.06091250106692314
1788108370409519600,8.80051953125,0.03135000169277191,0.006049999967217445,-0.19401249289512634
1788108370419620600,8.81062060546875,0.010587500408291817,0.0012374999932944775,-0.2881999909877777
1788108370429712000,8.8207119140625,-0.011412499472498894,-0.008662499487400055,-0.34072500467300415
1788108370439809800,8.830809814453126,-0.026124998927116394,-0.035475000739097595,-0.3443000018596649
1788108370449900000,8.840900146484374,-0.040699999779462814,-0.1247124969959259,-0.32848748564720154
1788108370460018200,8.85101806640625,-0.04193750023841858,-0.22123749554157257,-0.31501248478889465
1788108370470105300,8.861105224609375,-0.02736249938607216,-0.32257500290870667,-0.31872498989105225
1788108370480198000,8.871197998046876,-0.02241249941289425,-0.39214998483657837,-0.34306249022483826
1788108370490290000,8.8812900390625,-0.02736249938607216,-0.4031499922275543,-0.38225001096725464
1788108370500388400,8.891388427734375,-0.03341250121593475,-0.3750999867916107,-0.42625001072883606
1788108370510478000,8.90147802734375,-0.02488750033080578,-0.3726249933242798,-0.46158748865127563
1788108370520569300,8.9115693359375,0.0008249999955296516,-0.4118124842643738,-0.4848249852657318
1788108370530672000,8.921672119140625,0.03258749842643738,-0.4936249852180481,-0.5043500065803528
1788108370540775700,8.931775634765625,0.07163749635219574,-0.6243875026702881,-0.5740625262260437
1788108370550875100,8.941875244140626,0.1143999993801117,-0.7452499866485596,-0.7084000110626221
1788108370560968000,8.951968017578125,0.14492499828338623,-0.7697250247001648,-0.8476874828338623
1788108370571051800,8.9620517578125,0.18521249294281006,-0.734250009059906,-0.9662125110626221
1788108370581149400,8.9721494140625,0.19868749380111694,-0.64267498254776,-1.0590250492095947
1788108370591239400,8.982239501953124,0.2134000062942505,-0.5181000232696533,-1.120074987411499
1788108370601329000,8.992328857421874,0.22550000250339508,-0.38981249928474426,-1.0968375205993652
1788108370611417000,9.0024169921875,0.22192500531673431,-0.3067624866962433,-0.9674500226974487
1788108370621511000,9.012510986328126,0.18892499804496765,-0.2957625091075897,-0.7193999886512756
1788108370631602700,9.022602783203125,0.13021250069141388,-0.35557499527931213,-0.40424999594688416
1788108370641696500,9.032696533203126,0.06063750013709068,-0.45086249709129333,-0.0681999996304512
1788108370651789000,9.0427890625,0.011824999935925007,-0.5400999784469604,0.21271249651908875
1788108370661886700,9.05288671875,-0.007837500423192978,-0.559624969959259,0.37523749470710754
1788108370671982800,9.06298291015625,-0.040699999779462814,-0.4936249852180481,0.3997125029563904
1788108370682077400,9.073077392578124,-0.10064999759197235,-0.3726249933242798,0.3312374949455261
1788108370692167400,9.08316748046875,-0.17022499442100525,-0.25052499771118164,0.19071249663829803
1788108370702259500,9.093259521484375,-0.25341248512268066,-0.18576249480247498,0.005087499972432852
1788108370712341800,9.103341796875,-0.31927499175071716,-0.2040500044822693,-0.2441999912261963
1788108370722436900,9.113436767578126,-0.3657499849796295,-0.2517625093460083,-0.5678749680519104
1788108370732533000,9.123532958984375,-0.3975124955177307,-0.25533750653266907,-0.9356874823570251
1788108370742626300,9.133626220703125,-0.3852750062942505,-0.15152500569820404,-1.2740750312805176
1788108370752720000,9.143719970703126,-0.3620375096797943,0.08057499676942825,-1.535462498664856
1788108370762803500,9.153803466796875,-0.3279374837875366,0.4629625082015991,-1.6589374542236328
1788108370772891600,9.1638916015625,-0.28022500872612,0.8648750185966492,-1.564887523651123
1788108370782984000,9.17398388671875,-0.20569999516010284,1.1569249629974365,-1.2703624963760376
1788108370793070600,9.184070556640625,-0.09817499667406082,1.2216874361038208,-0.8379250168800354
1788108370803162400,9.194162353515624,0.012924999929964542,1.0958750247955322,-0.3443000018596649
1788108370813246700,9.204246826171875,0.11316250264644623,0.8588249683380127,0.1896124929189682
1788108370823338500,9.21433837890625,0.18645000457763672,0.5997750163078308,0.6623374819755554
1788108370833422800,9.2244228515625,0.21821250021457672,0.3909125030040741,1.0032000541687012
1788108370843510300,9.23451025390625,0.227974995970726,0.20281249284744263,1.2047749757766724
1788108370853592800,9.2445927734375,0.23539999127388,0.059812501072883606,1.26829993724823
1788108370863682800,9.254682861328124,0.2414499968290329,0.0085249999538064,1.1913000345230103
1788108370873766100,9.26476611328125,0.2475000023841858,0.0317624993622303,0.978725016117096
1788108370883855600,9.274855712890625,0.25244998931884766,0.11604999750852585,0.6978124976158142
1788108370893945900,9.28494580078125,0.2475000023841858,0.2223374992609024,0.41676250100135803
1788108370904049400,9.29504931640625,0.22068749368190765,0.3310999870300293,0.1676124930381775
1788108370914147800,9.30514794921875,0.196212500333786,0.44714999198913574,-0.010862499475479126
1788108370924246300,9.315246337890626,0.1839749962091446,0.559487521648407,-0.07548750191926956
1788108370934334500,9.32533447265625,0.18645000457763672,0.620537519454956,-0.0009624999947845936
1788108370944429300,9.33542919921875,0.20721249282360077,0.6193000078201294,0.1896124929189682
1788108370954523400,9.3455234375,0.22673749923706055,0.5436750054359436,0.4582875072956085
1788108370964621800,9.355621826171875,0.2316875010728836,0.38596248626708984,0.7343875169754028
1788108370974717000,9.365717041015625,0.20363749563694,0.2223374992609024,0.9629124999046326
1788108370984810800,9.375810791015626,0.16087499260902405,0.09886249899864197,1.1375374794006348
1788108370994900200,9.385900146484374,0.08992499858140945,0.0317624993622303,1.226775050163269
1788108371005001000,9.3960009765625,0.009349999949336052,-0.008662499487400055,1.2132999897003174
1788108371015085300,9.406085205078124,-0.0798875018954277,-0.045237500220537186,1.1204874515533447
1788108371025185300,9.416185302734375,-0.15441249310970306,-0.09418749809265137,0.9616749882698059
1788108371035276300,9.4262763671875,-0.21793749928474426,-0.16376249492168427,0.7283374667167664
1788108371045371100,9.43637109375,-0.2924624979496002,-0.21133749186992645,0.45471251010894775
1788108371055462000,9.4464619140625,-0.37070000171661377,-0.19552500545978546,0.18342499434947968
1788108371065552600,9.456552734375,-0.4573250114917755,-0.13805000483989716,-0.04262499883770943
1788108371075643400,9.466643310546875,-0.5392749905586243,-0.07823749631643295,-0.20143750309944153
1788108371085733400,9.4767333984375,-0.5843750238418579,-0.037950001657009125,-0.3077250123023987
1788108371095830500,9.48683056640625,-0.593037486076355,-0.025712499395012856,-0.36629998683929443
1788108371105927700,9.496927734375,-0.5746124982833862,-0.0611874982714653,-0.36506250500679016
1788108371116017200,9.50701708984375,-0.5392749905586243,-0.14423750340938568,-0.33329999446868896
1788108371126113800,9.51711376953125,-0.5123249888420105,-0.23828749358654022,-0.2942500114440918
1788108371136204500,9.52720458984375,-0.49527499079704285,-0.3531000018119812,-0.27348750829696655
1788108371146297600,9.537297607421875,-0.4867500066757202,-0.4558124840259552,-0.3003000020980835
1788108371156390700,9.547390625,-0.4842749834060669,-0.5400999784469604,-0.37853750586509705
1788108371166482000,9.55748193359375,-0.4745124876499176,-0.5791500210762024,-0.5105375051498413
1788108371176578300,9.567578369140625,-0.4525125026702881,-0.5741999745368958,-0.6716874837875366
1788108371186679600,9.577679443359376,-0.42432498931884766,-0.5131499767303467,-0.8391624689102173
1788108371196777200,9.587777099609376,-0.3889875113964081,-0.3788124918937683,-0.9820249676704407
1788108371206869500,9.597869384765625,-0.35475000739097595,-0.2102375030517578,-1.0810250043869019
1788108371216958500,9.60795849609375,-0.3059374988079071,-0.059950001537799835,-1.115262508392334
1788108371227056600,9.618056640625,-0.24722500145435333,0.035337500274181366,-1.0785499811172485
1788108371237157400,9.628157470703124,-0.19222499430179596,0.08552499860525131,-0.975974977016449
1788108371247248400,9.638248291015625,-0.12993749976158142,0.08057499676942825,-0.8109750151634216
1788108371257345300,9.64834521484375,-0.06641250103712082,0.004812499973922968,-0.6070625185966492
1788108371267443500,9.658443359375,-0.016362499445676804,-0.09047500044107437,-0.40053749084472656
1788108371277527000,9.668527099609374,0.010587500408291817,-0.17599999904632568,-0.22220000624656677
1788108371287618000,9.6786181640625,0.028875000774860382,-0.2529999911785126,-0.09872499853372574
1788108371297706200,9.688706298828125,0.03492499887943268,-0.2773374915122986,-0.05238749831914902
1788108371307795200,9.698795166015625,0.022687500342726707,-0.23704999685287476,-0.04743750020861626
1788108371317884700,9.708884765625,-0.0028874999843537807,-0.18081249296665192,-0.0681999996304512
1788108371327973600,9.7189736328125,-0.02488750033080578,-0.10752499848604202,-0.08772499859333038
1788108371338065700,9.729065673828124,-0.040837500244379044,-0.032999999821186066,-0.07919999957084656
1788108371348158500,9.739158447265625,-0.0541750006377697,0.030524998903274536,-0.015675000846385956
1788108371358254000,9.749254150390625,-0.08236250281333923,0.06710000336170197,0.07108750194311142
1788108371368351200,9.759351318359375,-0.1274625062942505,0.1013374999165535,0.16637499630451202
1788108371378442500,9.7694423828125,-0.16788749396800995,0.11604999750852585,0.2591874897480011
1788108371388533000,9.779532958984374,-0.2008875012397766,0.0976250022649765,0.33371248841285706
1788108371398629600,9.789629638671874,-0.2264624983072281,0.0340999998152256,0.39476248621940613
1788108371408723500,9.799723388671875,-0.23746250569820404,-0.050187498331069946,0.4362874925136566
1788108371418814200,9.809814208984376,-0.23017500340938568,-0.1564749926328659,0.4339500069618225
1788108371428904000,9.819904052734374,-0.23017500340938568,-0.26276248693466187,0.36176249384880066
1788108371438997800,9.829997802734376,-0.25946250557899475,-0.29205000400543213,0.2433750033378601
1788108371449086000,9.8400859375,-0.2997500002384186,-0.24433749914169312,0.10642500221729279
1788108371459170800,9.8501708984375,-0.34622499346733093,-0.16747500002384186,-0.02914999984204769
1788108371469264400,9.860264404296874,-0.38403749465942383,-0.0989999994635582,-0.11824999749660492
1788108371479359700,9.87035986328125,-0.39627498388290405,-0.06476250290870667,-0.14767499268054962
1788108371489448200,9.8804482421875,-0.37674999237060547,-0.09171249717473984,-0.11948750168085098
1788108371499539000,9.8905390625,-0.34375,-0.16376249492168427,-0.06696250289678574
1788108371509637400,9.900637451171875,-0.31927499175071716,-0.2480500042438507,-0.014437500387430191
1788108371519736600,9.910736572265625,-0.30346250534057617,-0.32381248474121094,0.020899999886751175
1788108371529815800,9.92081591796875,-0.30098751187324524,-0.36038750410079956,0.016087500378489494
1788108371539902200,9.930902099609375,-0.31322500109672546,-0.3396250009536743,-0.02667500078678131
1788108371549995000,9.9409951171875,-0.31927499175071716,-0.28476250171661377,-0.08167500048875809
1788108371560088000,9.951088134765625,-0.30951249599456787,-0.19552500545978546,-0.13667500019073486
1788108371570178800,9.9611787109375,-0.2839374840259552,-0.08071249723434448,-0.170912504196167
1788108371580273200,9.971273193359375,-0.24722500145435333,0.004812499973922968,-0.16101250052452087
1788108371590368500,9.981368408203124,-0.20446249842643738,0.057337500154972076,-0.12443749606609344
1788108371600472800,9.991472900390624,-0.17022499442100525,0.06833750009536743,-0.062150001525878906
1788108371610557400,10.001557373046875,-0.15070000290870667,0.02928750030696392,0.013612499460577965
1788108371620654800,10.01165478515625,-0.16664999723434448,-0.01966249942779541,0.08442500233650208
1788108371630745900,10.021745849609376,-0.19470000267028809,-0.04647500067949295,0.14066250622272491
1788108371640841000,10.031841064453126,-0.20817500352859497,-0.07576250284910202,0.18837499618530273
1788108371650925000,10.041925048828125,-0.20446249842643738,-0.09047500044107437,0.2116124927997589
1788108371661022500,10.0520224609375,-0.19346250593662262,-0.07699999958276749,0.2116124927997589
1788108371671106600,10.0621064453125,-0.1788875013589859,-0.029424998909235,0.20666250586509705
1788108371681195300,10.0721953125,-0.16046249866485596,-0.00494999997317791,0.19318750500679016
1788108371691286500,10.08228662109375,-0.1471250057220459,-0.006187499966472387,0.17489999532699585
1788108371701383400,10.092383544921875,-0.14464999735355377,-0.007424999959766865,0.14685000479221344
1788108371711476700,10.102476806640626,-0.14217500388622284,-0.025712499395012856,0.10766249895095825
1788108371721567200,10.112567138671874,-0.14217500388622284,-0.05376249924302101,0.050324998795986176
1788108371741755600,10.132755615234375,-0.1531749963760376,-0.08428750187158585,-0.11219999939203262
1788108371751845400,10.142845458984375,-0.14093749225139618,-0.08428750187158585,-0.20748749375343323
1788108371761939500,10.152939453125,-0.12636250257492065,-0.062424998730421066,-0.28325000405311584
1788108371772030500,10.163030517578125,-0.10917499661445618,-0.032999999821186066,-0.3394874930381775
1788108371782126600,10.173126708984375,-0.08470000326633453,-0.0147124994546175,-0.36272498965263367
1788108371792213500,10.183213623046875,-0.0541750006377697,-0.03423750028014183,-0.35653749108314514
1788108371802323700,10.19332373046875,-0.03464999794960022,-0.05252499878406525,-0.33701249957084656
1788108371812416500,10.20341650390625,-0.02488750033080578,-0.045237500220537186,-0.31872498989105225
1788108371822503200,10.213503173828125,-0.013887500390410423,0.0012374999932944775,-0.2807750105857849
1788108371832585700,10.223585693359375,0.004399999976158142,0.047575000673532486,-0.22948749363422394
1788108371842684000,10.233683837890625,0.04358749836683273,0.10381250083446503,-0.14767499268054962
1788108371852770000,10.24377001953125,0.08744999766349792,0.1551000028848648,-0.03396249935030937
1788108371862853600,10.253853515625,0.12787500023841858,0.16362500190734863,0.10161250084638596
1788108371872942800,10.26394287109375,0.15716250240802765,0.11728750169277191,0.23237499594688416
1788108371883035000,10.274034912109375,0.16321249306201935,0.04881250113248825,0.3264249861240387
1788108371893122300,10.284122314453125,0.15716250240802765,-0.018424998968839645,0.37523749470710754
1788108371903218000,10.294218017578125,0.14368750154972076,-0.07328750193119049,0.3825249969959259
1788108371913306400,10.304306396484375,0.11687500029802322,-0.11371249705553055,0.3630000054836273
1788108371923399400,10.3143994140625,0.08992499858140945,-0.11852499842643738,0.3227125108242035
1788108371933482000,10.32448193359375,0.08016250282526016,-0.07576250284910202,0.281187504529953
1788108371943570000,10.33456982421875,0.08016250282526016,0.0012374999932944775,0.25189998745918274
1788108371953656300,10.34465625,0.08635000139474869,0.06228749826550484,0.2311374992132187
1788108371963744800,10.354744873046876,0.09239999949932098,0.09886249899864197,0.2079000025987625
1788108371973834200,10.364834228515624,0.09487500041723251,0.08910000324249268,0.17861250042915344
1788108371983923200,10.374923095703124,0.08139999955892563,0.057337500154972076,0.14561249315738678
1788108371994005200,10.385005126953125,0.05939999967813492,0.023099999874830246,0.11742500215768814
1788108372004103400,10.395103515625,0.03863750025629997,0.00976249948143959,0.07713750004768372
1788108372014195500,10.405195556640624,0.020349999889731407,0.020762499421834946,0.04166249930858612
1788108372024297700,10.415297607421875,0.011824999935925007,0.03657500073313713,0.01979999989271164
1788108372034401500,10.425401611328125,0.012924999929964542,0.04633750021457672,-0.002199999988079071
1788108372044502000,10.435501953125,0.016637500375509262,0.02433750033378601,-0.03396249935030937
1788108372054603300,10.445603271484375,0.014162499457597733,0.0085249999538064,-0.07067500054836273
1788108372064703500,10.455703369140625,0.015399999916553497,-0.007424999959766865,-0.10491249710321426
1788108372074798600,10.465798583984375,0.028875000774860382,-0.0147124994546175,-0.14272500574588776
1788108372084892200,10.47589208984375,0.028875000774860382,0.0085249999538064,-0.18672500550746918
1788108372094985000,10.48598486328125,0.027637500315904617,0.0635249987244606,-0.2124374955892563
1788108372105083600,10.496083740234376,0.03258749842643738,0.12086249887943268,-0.2147749960422516
1788108372115164400,10.506164306640626,0.05816249921917915,0.17104999721050262,-0.18424999713897705
1788108372125264600,10.5162646484375,0.09487500041723251,0.19181250035762787,-0.13420000672340393
1788108372135356400,10.5263564453125,0.1143999993801117,0.2149125039577484,-0.05238749831914902
1788108372145447200,10.536447265625,0.1326874941587448,0.23333749175071716,0.05389999970793724
1788108372155541500,10.54654150390625,0.15716250240802765,0.2063875049352646,0.17489999532699585
1788108372165634300,10.55663427734375,0.19373749196529388,0.13928750157356262,0.281187504529953
1788108372175723500,10.5667236328125,0.22316250205039978,0.06710000336170197,0.3386625051498413
1788108372185811500,10.5768115234375,0.2316875010728836,0.025575000792741776,0.3484250009059906
1788108372195896800,10.586896728515624,0.22921249270439148,0.02199999988079071,0.3287625014781952
1788108372205992700,10.59699267578125,0.227974995970726,0.042762499302625656,0.2849000096321106
1788108372216072400,10.607072509765626,0.22921249270439148,0.05252499878406525,0.1993750035762787
1788108372226170400,10.61717041015625,0.2134000062942505,0.11604999750852585,0.0943249985575676
1788108372236257800,10.6272578125,0.19868749380111694,0.2063875049352646,0.023375000804662704
1788108372246354200,10.637354248046876,0.18645000457763672,0.26138749718666077,-0.0193875003606081
1788108372256451600,10.64745166015625,0.18892499804496765,0.24186250567436218,-0.04867500066757202
1788108372266546000,10.6575458984375,0.19497500360012054,0.17957499623298645,-0.06696250289678574
1788108372276634400,10.66763427734375,0.20350000262260437,0.1270499974489212,-0.07796250283718109
1788108372286728700,10.677728759765625,0.2194499969482422,0.08786249905824661,-0.09748750180006027
1788108372296814800,10.68781494140625,0.2316875010728836,0.08552499860525131,-0.12072499841451645
1788108372306914300,10.697914306640625,0.24626250565052032,0.1293874979019165,-0.11948750168085098
1788108372317005600,10.708005615234375,0.26468750834465027,0.18809999525547028,-0.08538749814033508
1788108372327095800,10.718095703125,0.2780250012874603,0.22591249644756317,-0.03519999980926514
1788108372337181200,10.72818115234375,0.27445000410079956,0.2503874897956848,0.016087500378489494
1788108372347274000,10.73827392578125,0.2609750032424927,0.26633748412132263,0.08084999769926071
1788108372357354000,10.74835400390625,0.24392500519752502,0.25657498836517334,0.1601874977350235
1788108372367442400,10.7584423828125,0.22068749368190765,0.23938749730587006,0.22013749182224274
1788108372377523000,10.76852294921875,0.19016249477863312,0.23333749175071716,0.2531374990940094
1788108372387612400,10.7786123046875,0.15468749403953552,0.23457500338554382,0.2652375102043152
1788108372397702100,10.7887021484375,0.12168750166893005,0.22962500154972076,0.22990000247955322
1788108372407795500,10.79879541015625,0.08744999766349792,0.23938749730587006,0.1601874977350235
1788108372417883400,10.80888330078125,0.06187500059604645,0.2601499855518341,0.08332499861717224
1788108372427971600,10.8189716796875,0.03616249933838844,0.3091000020503998,0.01732499897480011
1788108372438055000,10.829054931640625,0.009349999949336052,0.36038750410079956,-0.025437500327825546
1788108372448147200,10.839147216796874,-0.009074999950826168,0.39943748712539673,-0.032862499356269836
1788108372458234000,10.849234130859376,-0.012649999931454659,0.39214998483657837,0.005087499972432852
1788108372468321300,10.8593212890625,-0.009074999950826168,0.36162498593330383,0.07466249912977219
1788108372478414800,10.869414794921875,-0.0028874999843537807,0.3151499927043915,0.1578499972820282
1788108372488507100,10.879507080078126,0.0031624999828636646,0.28091248869895935,0.24089999496936798
1788108372498583600,10.88958349609375,0.011687500402331352,0.25533750653266907,0.3190000057220459
1788108372508683800,10.899683837890626,0.026399999856948853,0.23333749175071716,0.3922874927520752
1788108372518774800,10.90977490234375,0.0471624992787838,0.22110000252723694,0.44852501153945923
1788108372528869600,10.91986962890625,0.06063750013709068,0.22110000252723694,0.4950000047683716
1788108372538955500,10.92995556640625,0.06792499870061874,0.210099995136261,0.5292375087738037
1788108372549036300,10.940036376953126,0.06311249732971191,0.1648624986410141,0.5402374863624573
1788108372559134700,10.950134765625,0.04358749836683273,0.10862500220537186,0.5218124985694885
1788108372569223200,10.96022314453125,0.014162499457597733,0.07204999774694443,0.4595249891281128
1788108372579318800,10.97031884765625,-0.02488750033080578,0.03657500073313713,0.3727625012397766
1788108372589407500,10.980407470703126,-0.0541750006377697,-0.0147124994546175,0.25671249628067017
1788108372599498500,10.99049853515625,-0.089649997651577,-0.047712501138448715,0.10037499666213989
1788108372609585000,11.0005849609375,-0.1251250058412552,-0.040424998849630356,-0.09143749624490738
1788108372619687700,11.010687744140625,-0.15070000290870667,-0.0037124999798834324,-0.2759625017642975
1788108372629770000,11.02077001953125,-0.1592250019311905,0.02433750033378601,-0.4372499883174896
1788108372639864000,11.030864013671875,-0.15070000290870667,0.03904999792575836,-0.5740625262260437
1788108372649951000,11.040950927734375,-0.13488750159740448,0.057337500154972076,-0.6656374931335449
1788108372660044800,11.051044921875,-0.11288750171661377,0.08428750187158585,-0.7108749747276306
1788108372670140000,11.061139892578124,-0.08717499673366547,0.12209999561309814,-0.7046874761581421
1788108372680238800,11.07123876953125,-0.055412501096725464,0.17833749949932098,-0.6583499908447266
1788108372690329000,11.0813291015625,-0.028599999845027924,0.25657498836517334,-0.5533000230789185
1788108372700422000,11.091421875,-0.005362499970942736,0.32862499356269836,-0.38830000162124634
1788108372710513200,11.10151318359375,0.016637500375509262,0.35186249017715454,-0.18796250224113464
1788108372720615200,11.111615234375,0.03492499887943268,0.3078624904155731,-0.013199999928474426
1788108372730706700,11.121706787109375,0.03135000169277191,0.21986250579357147,0.10889999568462372
1788108372740799700,11.1317998046875,0.016637500375509262,0.12209999561309814,0.1859000027179718
1788108372750890500,11.141890380859374,-0.007837500423192978,0.05486249923706055,0.20295000076293945
1788108372760990000,11.151989990234375,-0.030937500298023224,0.023099999874830246,0.1443749964237213
1788108372771076600,11.16207666015625,-0.06641250103712082,0.02681249938905239,0.030662499368190765
1788108372781173000,11.172173095703124,-0.09693749994039536,0.04881250113248825,-0.11096250265836716
1788108372791261400,11.182261474609374,-0.11288750171661377,0.10628750175237656,-0.24296249449253082
1788108372801354200,11.192354248046875,-0.11769999563694,0.18809999525547028,-0.34306249022483826
1788108372811446500,11.202446533203124,-0.12636250257492065,0.24557499587535858,-0.41029998660087585
1788108372821542000,11.2125419921875,-0.13612499833106995,0.28338751196861267,-0.4347749948501587
1788108372831635000,11.222635009765625,-0.14588749408721924,0.29438748955726624,-0.4017750024795532
1788108372841726200,11.232726318359376,-0.15070000290870667,0.2956250011920929,-0.32725000381469727
1788108372851815700,11.242815673828124,-0.14588749408721924,0.28338751196861267,-0.22343750298023224
1788108372861908700,11.25290869140625,-0.12993749976158142,0.2601499855518341,-0.09391249716281891
1788108372872007200,11.263007080078125,-0.11412499845027924,0.24186250567436218,0.04413750022649765
1788108372882106000,11.273106201171874,-0.10793749988079071,0.22591249644756317,0.15661250054836273
1788108372892197000,11.283197021484375,-0.10312499850988388,0.2003374993801117,0.22618749737739563
1788108372902289000,11.293288818359375,-0.11288750171661377,0.17215000092983246,0.24213749170303345
1788108372912380000,11.3033798828125,-0.133650004863739,0.16362500190734863,0.2237125039100647
1788108372922468900,11.31346875,-0.1714625060558319,0.1588124930858612,0.18466250598430634
1788108372932564000,11.32356396484375,-0.21175000071525574,0.1588124930858612,0.1284250020980835
1788108372942649600,11.333649658203125,-0.24598750472068787,0.1685750037431717,0.052662499248981476
1788108372952738600,11.343738525390625,-0.2741749882698059,0.19415000081062317,-0.0193875003606081
1788108372962830000,11.353830078125,-0.2899875044822693,0.21615000069141388,-0.06572499871253967
1788108372972916500,11.36391650390625,-0.29493749141693115,0.22481249272823334,-0.10243749618530273
1788108372982998800,11.373998779296874,-0.2985124886035919,0.24310000240802765,-0.14024999737739563
1788108372993084400,11.38408447265625,-0.2985124886035919,0.23938749730587006,-0.15496249496936798
1788108373003178800,11.3941787109375,-0.2937000095844269,0.2149125039577484,-0.16472500562667847
1788108373013262600,11.4042626953125,-0.28751251101493835,0.1929125040769577,-0.15867500007152557
1788108373023353600,11.414353515625,-0.28517499566078186,0.18438750505447388,-0.12925000488758087
1788108373033437000,11.42443701171875,-0.2777499854564667,0.16733749210834503,-0.08415000140666962
1788108373043526700,11.434526611328126,-0.271699994802475,0.14904999732971191,-0.040150001645088196
1788108373053610500,11.444610595703125,-0.2619374990463257,0.09281250089406967,-0.013199999928474426
1788108373063708700,11.454708740234375,-0.25341248512268066,-0.006187499966472387,-0.020624998956918716
1788108373073799200,11.464799072265626,-0.26922500133514404,-0.0672374963760376,-0.06943749636411667
1788108373083893500,11.4748935546875,-0.2997500002384186,-0.08195000141859055,-0.13296249508857727
1788108373093977900,11.484977783203124,-0.33274999260902405,-0.08195000141859055,-0.2050125002861023
1788108373104076000,11.495075927734375,-0.37070000171661377,-0.06599999964237213,-0.28696250915527344
1788108373114159900,11.505159912109375,-0.39627498388290405,-0.042762499302625656,-0.3480125069618225
1788108373124257800,11.5152578125,-0.41456249356269836,-0.02694999985396862,-0.38225001096725464
1788108373134348800,11.525348876953124,-0.4292750060558319,-0.03423750028014183,-0.39806249737739563
1788108373144438000,11.53543798828125,-0.4452250003814697,-0.062424998730421066,-0.39806249737739563
1788108373154526200,11.545526123046875,-0.46956250071525574,-0.08428750187158585,-0.3858250081539154
1788108373164628200,11.555628173828126,-0.4977499842643738,-0.0952875018119812,-0.3577750027179718
1788108373174725000,11.56572509765625,-0.5245624780654907,-0.12223749607801437,-0.3199625015258789
1788108373184827600,11.57582763671875,-0.5526124835014343,-0.14176249504089355,-0.29548749327659607
1788108373194920000,11.585919921875,-0.5832750201225281,-0.14904999732971191,-0.2820124924182892
1788108373205016000,11.59601611328125,-0.610087513923645,-0.13805000483989716,-0.27719998359680176
1788108373215110000,11.60610986328125,-0.6370375156402588,-0.11852499842643738,-0.2782999873161316
1788108373225206500,11.61620654296875,-0.6589000225067139,-0.10271249711513519,-0.2759625017642975
1788108373235299000,11.626299072265626,-0.6748499870300293,-0.0952875018119812,-0.2685374915599823
1788108373245396700,11.636396728515624,-0.6906625032424927,-0.09776250272989273,-0.24901250004768372
1788108373255490600,11.646490478515625,-0.7066124677658081,-0.10023749619722366,-0.22948749363422394
1788108373265590000,11.656590087890624,-0.7236624956130981,-0.12594999372959137,-0.2124374955892563
1788108373275684000,11.66668408203125,-0.7396125197410583,-0.1662375032901764,-0.2124374955892563
1788108373285783800,11.67678369140625,-0.7566624879837036,-0.19552500545978546,-0.21972499787807465
1788108373295880700,11.686880615234376,-0.7651875019073486,-0.2199999988079071,-0.2404875010251999
1788108373305976600,11.6969765625,-0.7664250135421753,-0.22357499599456787,-0.2807750105857849
1788108373316073200,11.7070732421875,-0.7628499865531921,-0.2223374992609024,-0.33329999446868896
1788108373326161200,11.7171611328125,-0.7506124973297119,-0.19923749566078186,-0.3858250081539154
1788108373336264700,11.7272646484375,-0.7310875058174133,-0.16128750145435333,-0.4273499846458435
1788108373346357000,11.73735693359375,-0.7115625143051147,-0.12828749418258667,-0.4470124840736389
1788108373356455400,11.747455322265624,-0.6943749785423279,-0.10999999940395355,-0.44811248779296875
1788108373366547000,11.757546875,-0.684612512588501,-0.11976250261068344,-0.4542999863624573
1788108373376634600,11.767634521484375,-0.6736124753952026,-0.14300000667572021,-0.4493499994277954
1788108373386717400,11.777717529296876,-0.6528499722480774,-0.17723749577999115,-0.43230000138282776
1788108373396810500,11.787810546875,-0.6247999668121338,-0.2199999988079071,-0.4152500033378601
1788108373406899700,11.797899658203125,-0.5953750014305115,-0.23223750293254852,-0.3993000090122223
1788108373416993300,11.8079931640625,-0.5575624704360962,-0.23100000619888306,-0.3590124845504761
1788108373427086800,11.8180869140625,-0.5148000121116638,-0.21381250023841858,-0.2942500114440918
1788108373437187600,11.8281875,-0.4769875109195709,-0.19304999709129333,-0.22577500343322754
1788108373447285200,11.83828515625,-0.44632500410079956,-0.1625249981880188,-0.1391499936580658
1788108373457375000,11.848375,-0.4195125102996826,-0.15399999916553497,-0.040150001645088196
1788108373467465500,11.858465576171875,-0.40603750944137573,-0.13199999928474426,0.060087498277425766
1788108373477547800,11.8685478515625,-0.39256250858306885,-0.07328750193119049,0.17861250042915344
1788108373487637200,11.87863720703125,-0.38046249747276306,-0.032999999821186066,0.31171250343322754
1788108373497724200,11.88872412109375,-0.36451250314712524,-0.018424998968839645,0.44728749990463257
1788108373507814400,11.898814453125,-0.34498751163482666,-0.0611874982714653,0.5695250034332275
1788108373517902800,11.90890283203125,-0.3242250084877014,-0.16128750145435333,0.6660500168800354
1788108373527990000,11.918989990234374,-0.3156999945640564,-0.28228750824928284,0.7100499868392944
1788108373538078700,11.92907861328125,-0.3339875042438507,-0.39338749647140503,0.6880499720573425
1788108373548170000,11.939169921875,-0.3669874966144562,-0.4545750021934509,0.6305750012397766
1788108373558263600,11.949263671875,-0.41222500801086426,-0.4618625044822693,0.5670499801635742
1788108373568344000,11.959343994140625,-0.45003750920295715,-0.443574994802475,0.5170000195503235
1788108373578436400,11.969436279296875,-0.47808748483657837,-0.4240500032901764,0.4754749834537506
1788108373588527600,11.979527587890624,-0.49527499079704285,-0.3983374834060669,0.4314749836921692
1788108373598623000,11.989623046875,-0.5050374865531921,-0.3750999867916107,0.3727625012397766
1788108373608714200,11.99971435546875,-0.5245624780654907,-0.3592875003814697,0.3092375099658966
1788108373618808300,12.009808349609376,-0.5575624704360962,-0.3433375060558319,0.24695000052452087
1788108373628901400,12.0199013671875,-0.5880874991416931,-0.32752498984336853,0.20295000076293945
1788108373639003100,12.030003173828124,-0.6150375008583069,-0.32752498984336853,0.19318750500679016
1788108373649092600,12.040092529296874,-0.6223250031471252,-0.3482874929904938,0.18837499618530273
1788108373659187200,12.050187255859376,-0.6308500170707703,-0.39338749647140503,0.17737500369548798
1788108373669276700,12.060276611328124,-0.6443250179290771,-0.443574994802475,0.16266250610351562
1788108373679363600,12.070363525390626,-0.6601374745368958,-0.49857500195503235,0.12361250072717667
1788108373689455600,12.08045556640625,-0.6821374893188477,-0.5278624892234802,0.03684999793767929
1788108373699536400,12.090536376953125,-0.6993250250816345,-0.5119125247001648,-0.08167500048875809
1788108373709629700,12.100629638671874,-0.7103250026702881,-0.443574994802475,-0.1989624947309494
1788108373719728000,12.11072802734375,-0.7103250026702881,-0.3152875006198883,-0.2942500114440918
1788108373729814500,12.120814453125,-0.6919000148773193,-0.15523749589920044,-0.3382500112056732
1788108373739902000,12.13090185546875,-0.6589000225067139,0,-0.30153748393058777
1788108373749994000,12.140993896484375,-0.6198499798774719,0.11604999750852585,-0.20019999146461487
1788108373760084000,12.151083984375,-0.5905625224113464,0.16238750517368317,-0.062150001525878906
1788108373770175500,12.161175537109376,-0.5820375084877014,0.1270499974489212,0.09308750182390213
1788108373780266500,12.1712666015625,-0.5893250107765198,0.05004999786615372,0.2274249941110611
1788108373790359300,12.181359375,-0.5978500247001648,-0.030662499368190765,0.33976250886917114
1788108373800454400,12.191454345703125,-0.6003249883651733,-0.08428750187158585,0.4240500032901764
1788108373810538200,12.201538330078124,-0.5905625224113464,-0.10876250267028809,0.4877125024795532
1788108373820640500,12.211640625,-0.5735124945640564,-0.13199999928474426,0.5205749869346619
1788108373830736400,12.221736328125,-0.5587999820709229,-0.1527625024318695,0.5205749869346619
1788108373840838400,12.23183837890625,-0.5502749681472778,-0.16747500002384186,0.4950000047683716
1788108373850934000,12.24193408203125,-0.5527499914169312,-0.1662375032901764,0.45100000500679016
1788108373861028900,12.25202880859375,-0.5587999820709229,-0.1625249981880188,0.3899500072002411
1788108373871120600,12.26212060546875,-0.5698000192642212,-0.17352500557899475,0.31776249408721924
1788108373881217500,12.272217529296874,-0.5710374712944031,-0.1882375031709671,0.233474999666214
1788108373891306000,12.282305908203124,-0.5612750053405762,-0.20528750121593475,0.1541374921798706
1788108373901401600,12.292401611328126,-0.5440874695777893,-0.2223374992609024,0.06737499684095383
1788108373911486700,12.30248681640625,-0.5355625152587891,-0.22852499783039093,-0.005912499967962503
1788108373921571800,12.31257177734375,-0.5295125246047974,-0.23952500522136688,-0.05967500060796738
1788108373931664600,12.32266455078125,-0.5307499766349792,-0.2578125,-0.12691250443458557
1788108373941759000,12.332759033203125,-0.5208500027656555,-0.28228750824928284,-0.21601249277591705
1788108373951845400,12.342845458984375,-0.49898749589920044,-0.329862505197525,-0.3260124921798706
1788108373961940200,12.352940185546874,-0.46722498536109924,-0.36162498593330383,-0.4567750096321106
1788108373972036400,12.363036376953126,-0.4255625009536743,-0.3115749955177307,-0.5752999782562256
1788108373982130200,12.373130126953125,-0.37798750400543213,-0.17476250231266022,-0.6228749752044678
1788108373992220700,12.383220703125,-0.3217499852180481,0.025575000792741776,-0.5471125245094299
1788108374002327600,12.39332763671875,-0.24722500145435333,0.25891250371932983,-0.3443000018596649
1788108374012420400,12.40342041015625,-0.1629374921321869,0.4226749837398529,-0.03891250118613243
1788108374022511400,12.413511474609376,-0.08841250091791153,0.4384874999523163,0.3129499852657318
1788108374032596500,12.423596435546875,-0.045649997889995575,0.2870999872684479,0.637862503528595
1788108374042686500,12.4336865234375,-0.031075000762939453,0.04152499884366989,0.9151999950408936
1788108374052772000,12.443772216796875,-0.02983750030398369,-0.23828749358654022,1.0862499475479126
1788108374062940200,12.453940185546875,-0.040837500244379044,-0.48510000109672546,1.1364375352859497
1788108374073029000,12.464029052734375,-0.06283749639987946,-0.6402000188827515,1.069200038909912
1788108374083122000,12.474121826171874,-0.08236250281333923,-0.681725025177002,0.9213874936103821
1788108374093207000,12.48420703125,-0.09569999575614929,-0.598675012588501,0.7453874945640564
1788108374103297300,12.49429736328125,-0.10917499661445618,-0.467912495136261,0.5830000042915344
1788108374113383000,12.5043828125,-0.1251250058412552,-0.32133749127388,0.4339500069618225
1788108374123475200,12.51447509765625,-0.1434125006198883,-0.2125750035047531,0.28971248865127563
1788108374133565000,12.52456494140625,-0.1691250056028366,-0.16871249675750732,0.1578499972820282
1788108374143649000,12.53464892578125,-0.20446249842643738,-0.19304999709129333,0.04413750022649765
1788108374153733400,12.5447333984375,-0.25093749165534973,-0.2700499892234802,-0.037675000727176666
1788108374163832000,12.55483203125,-0.28751251101493835,-0.36781248450279236,-0.09019999951124191
1788108374173914600,12.56491455078125,-0.3119874894618988,-0.4716250002384186,-0.1391499936580658
1788108374184009700,12.575009765625,-0.3302749991416931,-0.5644375085830688,-0.2124374955892563
1788108374194089000,12.5850888671875,-0.3279374837875366,-0.5913875102996826,-0.31130000948905945
1788108374204183800,12.595183837890625,-0.31322500109672546,-0.5571500062942505,-0.4175874888896942
