time,seconds_elapsed,z,y,x
1788164377961003300,0.346003173828125,-0.008727000094950199,-0.005615999922156334,-0.0004189999890513718
1788164377971089700,0.356089599609375,0.08538100123405457,0.05592399835586548,0.004889000207185745
1788164377981184300,0.366184326171875,0.08851999789476395,0.05886499956250191,0.0075170001946389675
1788164377991287000,0.376287109375,0.14483599364757538,0.15263700485229492,0.23327599465847015
1788164378001386200,0.38638623046875,0.1444610059261322,0.2421959936618805,0.16384300589561462
1788164378011484400,0.396484375,-0.009732999838888645,0.11634600162506104,-0.032680001109838486
1788164378021581000,0.4065810546875,-0.07049500197172165,-0.030988000333309174,-0.3784869909286499
1788164378031679000,0.416678955078125,-0.08640400320291519,-0.24941100180149078,-0.6081529855728149
1788164378041774800,0.42677490234375,-0.09741400182247162,-0.41176098585128784,-0.707548975944519
1788164378051877600,0.436877685546875,-0.04459400102496147,-0.5728189945220947,-0.5932440161705017
1788164378061970000,0.446969970703125,0.11852999776601791,-0.6289349794387817,-0.5232759714126587
1788164378072066300,0.45706640625,0.1636980026960373,-0.6039919853210449,-0.5232139825820923
1788164378082151400,0.4671513671875,0.3768570125102997,-0.6738830208778381,-0.5516030192375183
1788164378092248300,0.477248291015625,0.5897780060768127,-0.6448330283164978,-0.5660330057144165
1788164378102351000,0.48735107421875,0.7969130277633667,-0.5358489751815796,-0.6901289820671082
1788164378112450800,0.497450927734375,0.7255769968032837,-0.4400840103626251,-0.7418439984321594
1788164378122555000,0.507554931640625,0.43355798721313477,-0.4856790006160736,-0.6564670205116272
1788164378132659000,0.517658935546875,0.14030200242996216,-0.7703289985656738,-0.5350329875946045
1788164378142757000,0.527757080078125,0.026010999456048012,-0.32887300848960876,-0.8221510052680969
1788164378152861400,0.537861328125,0.05490199849009514,-0.08439700305461884,-0.6972569823265076
1788164378162958600,0.54795849609375,0.21469900012016296,-0.08670099824666977,-0.3060699999332428
1788164378173066000,0.55806591796875,0.07181599736213684,-0.046379998326301575,-0.11515399813652039
1788164378183158000,0.568157958984375,0.018339000642299652,0.10054299980401993,-0.12356899678707123
1788164378193259800,0.578259765625,-0.2451380044221878,0.048287998884916306,-0.07089900225400925
1788164378203344000,0.58834375,-0.5220479965209961,-0.10743299871683121,-0.4956890046596527
1788164378213434400,0.598434326171875,-0.2894180119037628,-0.2798050045967102,-0.9577140212059021
1788164378223526400,0.6085263671875,-0.11401700228452682,-0.3379899859428406,-1.0913870334625244
1788164378233616600,0.61861669921875,-0.3422369956970215,-1.086766004562378,-0.519989013671875
1788164378243701800,0.62870166015625,1.0160510540008545,-0.38909900188446045,-0.4624670147895813
1788164378253791200,0.638791259765625,0.8093760013580322,-0.36603599786758423,-1.826416015625
1788164378263879700,0.648879638671875,0.30749499797821045,-1.0178500413894653,-1.5503569841384888
1788164378273974000,0.65897412109375,0.6014869809150696,-1.1746400594711304,-1.2696690559387207
1788164378284070100,0.669070068359375,-0.10551200062036514,-1.6879650354385376,-1.6322439908981323
1788164378294163500,0.67916357421875,-0.029193000867962837,-1.913627028465271,-1.5243200063705444
1788164378304257300,0.68925732421875,0.33478400111198425,-1.5347540378570557,-1.5598130226135254
1788164378314352000,0.69935205078125,0.6864809989929199,-0.9624620079994202,-1.3782379627227783
1788164378324447200,0.709447265625,0.9379109740257263,-0.359142005443573,-0.9775170087814331
1788164378334537200,0.719537109375,1.6491529941558838,0.7624499797821045,-0.31061500310897827
1788164378344628200,0.729628173828125,1.1792160272598267,1.8424830436706543,-0.15423999726772308
1788164378354721000,0.739720947265625,-0.4297960102558136,1.6488330364227295,-0.2860200107097626
1788164378364811800,0.749811767578125,-1.3527339696884155,-0.19716599583625793,0.41658300161361694
1788164378374902500,0.759902587890625,-0.5537539720535278,-0.6271539926528931,0.3313719928264618
1788164378384988700,0.76998876953125,0.1658799946308136,-0.2994459867477417,0.4602760076522827
1788164378395082000,0.78008203125,-0.07611099630594254,0.6793460249900818,-0.4667940139770508
1788164378405170700,0.790170654296875,-0.06436099857091904,0.5593770146369934,-0.8932300209999084
1788164378415255800,0.800255859375,0.7744460105895996,-0.34857499599456787,-0.42590099573135376
1788164378425350400,0.810350341796875,-2.116365909576416,-1.3286750316619873,-0.875789999961853
1788164378435440400,0.8204404296875,-2.3330318927764893,-1.1326179504394531,-1.5936490297317505
1788164378445533200,0.830533203125,0.5300830006599426,0.3791379928588867,-1.2569739818572998
1788164378455629300,0.84062939453125,1.062021017074585,0.8598979711532593,-1.7811980247497559
1788164378465734000,0.85073388671875,0.7306990027427673,0.15118500590324402,-2.0158960819244385
1788164378475824400,0.860824462890625,0.562138020992279,0.4231970012187958,-1.7105610370635986
1788164378485925600,0.870925537109375,1.5928070545196533,1.2698249816894531,-1.5777809619903564
1788164378496015600,0.881015625,3.916646957397461,1.4849989414215088,-1.1011459827423096
1788164378506119000,0.891118896484375,4.2264180183410645,-0.340489000082016,0.05394899845123291
1788164378516210700,0.901210693359375,4.115942001342773,-3.100836992263794,1.7538479566574097
1788164378526314800,0.911314697265625,3.4557979106903076,-3.8054111003875732,1.8532830476760864
1788164378536397300,0.921397216796875,2.63657808303833,-2.306464910507202,0.39090999960899353
1788164378546493700,0.93149365234375,1.821895956993103,-1.184857964515686,-0.4343020021915436
1788164378556575200,0.9415751953125,0.6751689910888672,-0.45461300015449524,0.14964500069618225
1788164378566674200,0.951674072265625,-0.7059749960899353,-0.7381730079650879,0.412880003452301
1788164378576764700,0.9617646484375,-1.1097209453582764,-1.178096055984497,-0.11280400305986404
1788164378586876200,0.971876220703125,-1.2874720096588135,-1.1414530277252197,-0.09889700263738632
1788164378596971800,0.9819716796875,-1.6025880575180054,-0.9880340099334717,0.027569999918341637
1788164378607075800,0.992075927734375,-1.5290290117263794,-0.0030529999639838934,-0.6096569895744324
1788164378617165600,1.00216552734375,3.2007460594177246,3.6487059593200684,-2.209218978881836
1788164378627259400,1.01225927734375,1.8772859573364258,4.012509822845459,-1.9494990110397339
1788164378637350700,1.0223505859375,-0.5108829736709595,1.6503859758377075,-1.873520016670227
1788164378647444500,1.032444580078125,-1.261610984802246,0.027324000373482704,-2.16506290435791
1788164378657535500,1.042535400390625,-2.2763888835906982,-0.8899589776992798,-2.7713730335235596
1788164378667632000,1.052632080078125,-0.8910959959030151,0.09533499926328659,-3.1063320636749268
1788164378677724000,1.062723876953125,-0.2625479996204376,0.7959169745445251,-2.4713480472564697
1788164378687821600,1.072821533203125,1.9082070589065552,0.6894720196723938,-0.9426010251045227
1788164378697918200,1.082918212890625,3.468938112258911,0.6073740124702454,0.3824479877948761
1788164378708004000,1.093004150390625,-0.6806409955024719,-0.8755660057067871,-1.4703999757766724
1788164378718105600,1.103105712890625,-0.5732359886169434,-1.2939269542694092,-1.7521549463272095
1788164378728209400,1.11320947265625,-0.9448130130767822,-0.24615199863910675,-1.4088499546051025
1788164378738294800,1.123294677734375,-2.069628953933716,-1.6968460083007812,-1.0752719640731812
1788164378748395000,1.13339501953125,-1.363656997680664,-1.3644139766693115,-0.7354329824447632
1788164378758491000,1.143490966796875,-1.5345029830932617,-1.526394009590149,-1.1526310443878174
1788164378768593000,1.153593017578125,-1.8850170373916626,-1.6271820068359375,-1.8056180477142334
1788164378778677800,1.163677734375,-2.2819089889526367,-1.1269279718399048,-2.1343979835510254
1788164378788779300,1.173779296875,-2.8015480041503906,-0.3867959976196289,-2.3957910537719727
1788164378798865700,1.18386572265625,-2.5642249584198,0.2569110095500946,-2.7362608909606934
1788164378808961500,1.19396142578125,-1.3014769554138184,0.5316920280456543,-3.0724949836730957
1788164378819050200,1.20405029296875,-0.11092299968004227,0.4402630031108856,-3.1183340549468994
1788164378829141000,1.21414111328125,1.1762959957122803,0.18209999799728394,-2.156092882156372
1788164378839236400,1.224236328125,3.832469940185547,-0.5807819962501526,-0.9629729986190796
1788164378849340700,1.234340576171875,3.620879888534546,-1.3361279964447021,-0.012670000083744526
1788164378859431400,1.244431396484375,0.803803026676178,-1.3574210405349731,0.49232399463653564
1788164378879613200,1.26461328125,0.04544200003147125,0.4352610111236572,1.1897590160369873
1788164378889708500,1.27470849609375,-0.34501299262046814,0.18558000028133392,1.660156011581421
1788164378899797800,1.2847978515625,-0.3794510066509247,-0.6182379722595215,2.6881279945373535
1788164378909899800,1.294899658203125,-1.1512809991836548,-0.51875901222229,2.771944999694824
1788164378919988500,1.304988525390625,-2.2211480140686035,-0.016719000414013863,1.7986869812011719
1788164378930090500,1.315090576171875,-1.8816449642181396,-0.27306199073791504,0.8898469805717468
1788164378940182500,1.3251826171875,-1.4751230478286743,-1.0847439765930176,0.17726700007915497
1788164378950287600,1.33528759765625,0.7607359886169434,-0.6381710171699524,-0.8596330285072327
1788164378960374000,1.3453740234375,1.3877429962158203,-0.2492769956588745,-1.2182409763336182
1788164378970476800,1.355476806640625,0.21623699367046356,-0.46344301104545593,-1.0694940090179443
1788164378980567800,1.36556787109375,-0.43212300539016724,-0.26197099685668945,-0.8615959882736206
1788164378990662700,1.37566259765625,-0.3808470070362091,-0.21219900250434875,-1.3010159730911255
1788164379000751900,1.385751953125,-0.21996399760246277,-0.25906500220298767,-1.2731319665908813
1788164379010840000,1.395840087890625,0.18001499772071838,-0.3699609935283661,-1.3512760400772095
1788164379020932000,1.40593212890625,-0.21127699315547943,-0.6433969736099243,-1.4074970483779907
1788164379031036700,1.41603662109375,1.1133949756622314,0.11259099841117859,-1.403622031211853
1788164379041129700,1.426129638671875,0.06673800200223923,-0.353069007396698,-1.3984739780426025
1788164379051229700,1.436229736328125,-0.3803049921989441,-0.5019270181655884,-1.2632689476013184
1788164379061319700,1.446319580078125,-0.5202479958534241,-0.8151029944419861,-1.0597490072250366
1788164379071409400,1.456409423828125,0.3096359968185425,-0.6441469788551331,-1.3607280254364014
1788164379081507800,1.4665078125,0.5338529944419861,-0.531495988368988,-1.9046779870986938
1788164379091609000,1.476609130859375,0.710731029510498,-0.2596859931945801,-2.4898269176483154
1788164379101701600,1.48670166015625,0.5472239851951599,-0.2421800047159195,-2.6175599098205566
1788164379111795700,1.496795654296875,0.3132230043411255,-0.3613399863243103,-2.294512987136841
1788164379121886500,1.506886474609375,0.2931880056858063,-0.6527559757232666,-1.9253710508346558
1788164379131977700,1.516977783203125,0.020167000591754913,-0.40694499015808105,-1.79612398147583
1788164379142065400,1.5270654296875,-0.004333999939262867,-0.2448520064353943,-1.7078540325164795
1788164379152157700,1.53715771484375,-0.4115059971809387,-0.1774740070104599,-1.774359941482544
1788164379162250200,1.547250244140625,-0.8982599973678589,-0.25060299038887024,-1.6095819473266602
1788164379172354600,1.5573544921875,-0.4403890073299408,-0.21651099622249603,-1.4441369771957397
1788164379182443800,1.56744384765625,0.38120999932289124,-0.2686130106449127,-1.2704559564590454
1788164379192545500,1.577545654296875,0.757735013961792,-0.626442015171051,-0.8998169898986816
1788164379202640600,1.587640625,0.4135429859161377,-0.9850710034370422,-0.00017299999308306724
1788164379212744200,1.597744140625,-0.0821319967508316,-0.9703649878501892,0.5038769841194153
1788164379222840800,1.6078408203125,-0.5444660186767578,-0.871632993221283,0.7191150188446045
1788164379232937700,1.617937744140625,-0.13333000242710114,-0.6943039894104004,0.7677779793739319
1788164379243030300,1.6280302734375,-0.10918699949979782,-0.6957299709320068,0.8848569989204407
1788164379253133000,1.638133056640625,-0.37670499086380005,-0.7112489938735962,1.0760539770126343
1788164379263223600,1.6482236328125,-0.32627400755882263,-0.8108869791030884,1.145354986190796
1788164379273311700,1.658311767578125,-0.5009549856185913,-0.8722310066223145,1.3298369646072388
1788164379283395000,1.66839501953125,-0.3445050120353699,-0.7855979800224304,1.1795220375061035
1788164379293483800,1.67848388671875,-0.15583199262619019,-0.5962669849395752,0.8486499786376953
1788164379303576600,1.68857666015625,-0.001231999951414764,-0.44686800241470337,0.9009799957275391
1788164379313672400,1.69867236328125,0.36656901240348816,-0.5589789748191833,1.0201159715652466
1788164379323766000,1.70876611328125,0.6219019889831543,-0.6040089726448059,1.1100430488586426
1788164379333860400,1.7188603515625,0.6493989825248718,-0.7073540091514587,1.3255449533462524
1788164379343959000,1.728958984375,0.7034950256347656,-0.8634840250015259,1.3232649564743042
1788164379354051300,1.73905126953125,0.9933310151100159,-0.702189028263092,1.0619670152664185
1788164379364148700,1.749148681640625,1.0494719743728638,-0.37378400564193726,0.8410850167274475
1788164379374249200,1.759249267578125,1.0938090085983276,-0.21574999392032623,0.7329189777374268
1788164379384351200,1.769351318359375,0.9755600094795227,-0.2682729959487915,0.8303670287132263
1788164379394446800,1.77944677734375,0.6342290043830872,-0.47196999192237854,1.0200610160827637
1788164379404534000,1.789533935546875,0.4551289975643158,-0.6903979778289795,1.0660289525985718
1788164379414628600,1.799628662109375,0.5427680015563965,-0.7259680032730103,0.9415280222892761
1788164379424720000,1.809719970703125,0.4116019904613495,-0.782712996006012,0.7268009781837463
1788164379434804500,1.819804443359375,0.4231170117855072,-0.8436509966850281,0.4817110002040863
1788164379444894000,1.82989404296875,0.3399699926376343,-0.8096809983253479,0.2102919965982437
1788164379454987500,1.839987548828125,-0.1862040013074875,-0.9840959906578064,-0.019984999671578407
1788164379465079000,1.8500791015625,-1.0363119840621948,-1.5130350589752197,-0.29241299629211426
1788164379475174400,1.86017431640625,-1.4475159645080566,-2.1099910736083984,-0.7357439994812012
1788164379485264400,1.870264404296875,-1.5525840520858765,-2.3921539783477783,-1.02736496925354
1788164379495358200,1.880358154296875,-1.7571029663085938,-2.2737929821014404,-1.3636950254440308
1788164379505448000,1.890447998046875,-2.0095739364624023,-2.279388904571533,-1.456300973892212
1788164379515537200,1.900537109375,-2.2036569118499756,-2.723191976547241,-1.1054860353469849
1788164379525640000,1.910639892578125,-2.369828939437866,-2.979585886001587,-1.0713679790496826
1788164379535738600,1.920738525390625,-2.938292980194092,-3.1987109184265137,-0.9644259810447693
1788164379545843200,1.93084326171875,-3.616157054901123,-3.0333778858184814,-0.3386319875717163
1788164379555938800,1.940938720703125,-4.798558235168457,-3.779829978942871,-1.2137409448623657
1788164379566032400,1.951032470703125,-5.3290181159973145,-4.113544940948486,-0.8893799781799316
1788164379576132400,1.96113232421875,-5.062743186950684,-4.3707098960876465,0.6015400290489197
1788164379586224000,1.97122412109375,-4.368203163146973,-4.330679893493652,1.8471989631652832
1788164379596316200,1.981316162109375,-3.7849390506744385,-4.3800740242004395,1.8928489685058594
1788164379606411300,1.991411376953125,-3.4979169368743896,-4.3857421875,1.2574570178985596
1788164379616503800,2.00150390625,-2.453735113143921,-4.036935806274414,0.40853801369667053
1788164379626599000,2.011598876953125,-0.8185750246047974,-3.5715479850769043,0.7631499767303467
1788164379636690000,2.02168994140625,0.6163250207901001,-3.174474000930786,1.0029499530792236
1788164379646788000,2.0317880859375,1.8470619916915894,-3.1136341094970703,1.3961009979248047
1788164379656883500,2.041883544921875,2.6423990726470947,-3.141248941421509,1.6944659948349
1788164379666982000,2.05198193359375,3.004422903060913,-2.6251111030578613,1.6480849981307983
1788164379677072400,2.062072265625,2.739837884902954,-2.6117630004882812,1.9064879417419434
1788164379687175000,2.0721748046875,3.400212049484253,-1.8211859464645386,1.6936359405517578
1788164379697272000,2.08227197265625,3.9989049434661865,-0.7978270053863525,0.5562000274658203
1788164379707368200,2.0923681640625,5.524213790893555,-0.17208200693130493,-1.6131809949874878
1788164379717460500,2.10246044921875,5.823171138763428,0.4592440128326416,-3.684335947036743
1788164379727556400,2.112556396484375,5.15201997756958,1.3333230018615723,-3.555608034133911
1788164379737642200,2.122642333984375,3.9559519290924072,1.5980210304260254,-2.4930970668792725
1788164379747737300,2.1327373046875,2.4477291107177734,1.3903330564498901,-1.9691050052642822
1788164379757830100,2.142830078125,1.3288099765777588,0.9750170111656189,-1.1931120157241821
1788164379767929000,2.15292919921875,0.6103000044822693,1.5029230117797852,-0.5739740133285522
1788164379778019000,2.16301904296875,-0.22329899668693542,2.093477964401245,-1.5064740180969238
1788164379788125000,2.173125,-1.3515349626541138,2.789185047149658,-4.462955951690674
1788164379798220300,2.18322021484375,-1.754852056503296,3.689824104309082,-5.662124156951904
1788164379808381000,2.193380859375,-1.2913620471954346,4.585740089416504,-4.471116065979004
1788164379818470700,2.203470703125,-2.8468070030212402,4.489990234375,-4.730926036834717
1788164379828562400,2.2135625,-7.288414001464844,4.467857837677002,-3.8747971057891846
1788164379838652400,2.22365234375,-7.544294834136963,5.834325790405273,-0.9555860161781311
1788164379848753000,2.2337529296875,-7.863947868347168,5.692931175231934,-2.9916980266571045
1788164379858840600,2.243840576171875,-7.521568775177002,6.402238845825195,-1.7195719480514526
1788164379868940500,2.2539404296875,-10.0684814453125,4.92210578918457,-4.072031021118164
1788164379879027500,2.26402734375,-10.770462036132812,4.603583812713623,-2.851752996444702
1788164379889122000,2.2741220703125,-8.189468383789062,4.111492156982422,-2.227001905441284
1788164379899220000,2.284219970703125,-7.440584182739258,3.5092060565948486,-1.9386420249938965
1788164379909317000,2.294317138671875,-5.689373970031738,2.8903729915618896,-1.365831971168518
1788164379919414800,2.304414794921875,-3.858290910720825,2.5224239826202393,-0.791126012802124
1788164379929512000,2.314511962890625,-1.491042971611023,2.6645750999450684,1.5709359645843506
1788164379939609600,2.324609619140625,-2.407849073410034,0.7554889917373657,0.9633089900016785
1788164379949705700,2.334705810546875,-1.7319999933242798,0.6622210144996643,1.9788169860839844
1788164379959801000,2.344801025390625,-1.9940099716186523,0.7204089760780334,2.8233749866485596
1788164379969899500,2.3548994140625,-1.776960015296936,-0.25171899795532227,2.4442689418792725
1788164379979994000,2.364994140625,-1.6231050491333008,-0.838467001914978,2.676224946975708
1788164379990092800,2.3750927734375,0.23157000541687012,-1.8849070072174072,2.061098098754883
1788164380000186000,2.38518603515625,1.6465799808502197,-3.0094289779663086,2.680670976638794
1788164380010286800,2.395286865234375,3.170305013656616,-3.9552559852600098,2.5569989681243896
1788164380020376000,2.4053759765625,6.170810222625732,-5.279926776885986,1.539289951324463
1788164380030473700,2.4154736328125,6.2199320793151855,-0.27158400416374207,-0.1841830015182495
1788164380040564500,2.425564453125,5.542691230773926,3.250978946685791,-2.3274428844451904
1788164380050662700,2.43566259765625,5.8858962059021,1.9463499784469604,-2.983557939529419
1788164380060754400,2.44575439453125,3.9784140586853027,0.11087500303983688,-3.285775899887085
1788164380070845700,2.455845703125,0.33576199412345886,-2.2955400943756104,-2.9086759090423584
1788164380080944400,2.4659443359375,-4.590508937835693,-3.6944329738616943,-3.803210973739624
1788164380091041800,2.476041748046875,-4.407668113708496,-4.8055009841918945,-4.0899481773376465
1788164380101135000,2.486135009765625,-2.7123119831085205,-6.094648838043213,-2.539897918701172
1788164380111234800,2.49623486328125,-2.296447992324829,-5.207188129425049,-1.4980299472808838
1788164380121326300,2.506326416015625,-2.292768955230713,-2.705578088760376,-1.7617510557174683
1788164380131416000,2.516416015625,-3.3711049556732178,0.48007699847221375,-1.3917009830474854
1788164380141503500,2.52650341796875,-1.7750849723815918,0.12227500230073929,0.5794090032577515
1788164380151599000,2.53659912109375,-0.5736209750175476,-2.693779945373535,2.170397996902466
1788164380161693000,2.54669287109375,-1.9449650049209595,-3.225399971008301,0.9490950107574463
1788164380171787000,2.556787109375,-1.3153879642486572,-2.3666999340057373,-0.20050500333309174
1788164380181882600,2.566882568359375,-0.5026260018348694,-1.2024890184402466,0.06967899948358536
1788164380191971600,2.5769716796875,6.089486122131348,-1.294327974319458,-0.322052001953125
1788164380202055400,2.587055419921875,6.95621919631958,-0.04510499909520149,0.7917240262031555
1788164380212142600,2.597142578125,5.031479835510254,-1.0752650499343872,1.4164409637451172
1788164380222236700,2.607236572265625,-0.8524540066719055,-3.88326096534729,2.596118927001953
1788164380232326000,2.617325927734375,-8.46596908569336,-4.69014310836792,1.6917400360107422
1788164380242414800,2.627414794921875,-8.967302322387695,-2.9397640228271484,0.33973801136016846
1788164380252508200,2.637508056640625,-2.1859090328216553,-1.1449099779129028,-0.8192930221557617
1788164380262594800,2.6475947265625,4.262951850891113,0.9384719729423523,-1.3918709754943848
1788164380272692000,2.65769189453125,4.498074054718018,2.398279905319214,-1.6427340507507324
1788164380282780000,2.66777978515625,1.9186890125274658,0.7702490091323853,-1.9736119508743286
1788164380292880100,2.677880126953125,-0.10746899992227554,1.6695159673690796,-2.2901949882507324
1788164380302967600,2.687967529296875,1.863461971282959,1.9654890298843384,-2.2830379009246826
1788164380313062700,2.698062744140625,4.159771919250488,1.5950030088424683,-2.7395849227905273
1788164380323143200,2.70814306640625,3.2540628910064697,0.9281529784202576,-3.5117340087890625
1788164380333233000,2.71823291015625,-0.9892910122871399,-0.2469239979982376,-3.8077731132507324
1788164380343316000,2.72831591796875,-1.1704950332641602,-0.8528310060501099,-4.02329683303833
1788164380353404700,2.73840478515625,-6.209753036499023,-2.0456199645996094,-1.1178480386734009
1788164380363494100,2.748494140625,-7.068600177764893,0.639614999294281,-0.8176990151405334
1788164380373590800,2.7585908203125,-4.186063766479492,1.0640170574188232,0.23186300694942474
1788164380383684600,2.7686845703125,0.1295509934425354,-0.9636800289154053,2.2414119243621826
1788164380393781500,2.778781494140625,1.4879080057144165,-2.18133807182312,4.109187126159668
1788164380403883500,2.788883544921875,2.538583993911743,-1.6745359897613525,4.298211097717285
1788164380413971500,2.798971435546875,0.7064489722251892,-2.9509620666503906,3.0712521076202393
1788164380424074000,2.809073974609375,0.16153199970722198,-3.145158052444458,1.2045949697494507
1788164380434166000,2.819166015625,1.8212189674377441,-3.573812961578369,1.534803032875061
1788164380444263000,2.829262939453125,3.370145082473755,-2.7228870391845703,2.5927019119262695
1788164380454358000,2.83935791015625,3.366288900375366,-1.088479995727539,3.2892539501190186
1788164380464453400,2.849453369140625,3.2256929874420166,-0.7323539853096008,3.9967799186706543
1788164380474535000,2.859534912109375,1.6653419733047485,-0.2559730112552643,6.105231761932373
1788164380484625200,2.869625244140625,0.35912400484085083,-1.0447930097579956,6.462921142578125
1788164380494708700,2.879708740234375,-2.3283228874206543,-0.7398319840431213,5.025825023651123
1788164380504804600,2.8898046875,-7.670730113983154,0.5535380244255066,0.9639890193939209
1788164380514898700,2.899898681640625,-7.049230098724365,3.646794080734253,-4.112154960632324
1788164380524990700,2.90999072265625,-3.332406997680664,3.8119559288024902,-5.641304969787598
1788164380535072300,2.920072265625,0.29061099886894226,1.7187429666519165,-3.4064509868621826
1788164380545170000,2.930169921875,2.669455051422119,0.4060550034046173,-1.307286024093628
1788164380555257000,2.940257080078125,4.125617027282715,1.3376450538635254,-1.7074389457702637
1788164380565347000,2.95034716796875,1.5382150411605835,2.070249080657959,-2.558713912963867
1788164380575437300,2.960437255859375,-2.785409927368164,2.3924529552459717,-1.2906379699707031
1788164380585531000,2.97053076171875,-4.535460948944092,3.8582639694213867,0.875603973865509
1788164380595612200,2.980612060546875,-4.2225728034973145,4.427285194396973,4.599852085113525
1788164380605707000,2.99070703125,-2.129586935043335,3.13907790184021,5.760055065155029
1788164380615794200,3.000794189453125,-1.3710349798202515,1.2114230394363403,3.811885118484497
1788164380625880300,3.01088037109375,0.3463299870491028,0.688431978225708,0.7647190093994141
1788164380635975000,3.020974853515625,-0.28205999732017517,-0.9332550168037415,-0.8331149816513062
1788164380646079500,3.03107958984375,-0.5642769932746887,-3.8759539127349854,-2.8135030269622803
1788164380656164900,3.041164794921875,-2.270742893218994,-3.3647658824920654,-4.306094169616699
1788164380666257400,3.05125732421875,0.8468279838562012,-2.6967079639434814,-5.6218438148498535
1788164380676344300,3.06134423828125,-0.8737289905548096,-3.010978937149048,-5.499389171600342
1788164380686437000,3.07143701171875,2.7092349529266357,-3.657155990600586,-3.5025649070739746
1788164380696519000,3.081518798828125,7.973453044891357,-2.2104969024658203,-3.381890058517456
1788164380706617300,3.091617431640625,7.116817951202393,0.8309779763221741,0.16665199398994446
1788164380716700000,3.101699951171875,1.9832210540771484,2.808590888977051,3.0153489112854004
1788164380726794200,3.111794189453125,-1.4340410232543945,0.24904699623584747,4.192886829376221
1788164380736886300,3.12188623046875,-3.081501007080078,-2.4549720287323,3.6470580101013184
1788164380746976800,3.131976806640625,-2.0957460403442383,-4.031761169433594,2.1680290699005127
1788164380757063700,3.142063720703125,0.048271000385284424,-2.8084170818328857,0.7197870016098022
1788164380767160300,3.152160400390625,-0.5014190077781677,0.0723859965801239,-0.966916024684906
1788164380777241300,3.162241455078125,2.702842950820923,-2.8950610160827637,-4.022463798522949
1788164380787334100,3.172334228515625,3.306144952774048,-4.129525184631348,-4.1658220291137695
1788164380797418200,3.182418212890625,2.607590913772583,-5.078105926513672,-4.908610820770264
1788164380807501000,3.1925009765625,-0.4991540014743805,-2.723510980606079,-2.8007700443267822
1788164380817587500,3.20258740234375,-3.7410240173339844,-0.18347600102424622,0.28014299273490906
1788164380827672600,3.212672607421875,-3.246259927749634,0.9520710110664368,4.422770977020264
1788164380837758200,3.22275830078125,1.5488500595092773,-2.9273250102996826,8.0283842086792
1788164380857938000,3.24293798828125,-7.88240385055542,-2.5620551109313965,1.6947890520095825
1788164380868027400,3.25302734375,-5.161870002746582,1.7960020303726196,-1.5893959999084473
1788164380878116400,3.263116455078125,-0.1557929962873459,4.522964000701904,-3.018235921859741
1788164380888213000,3.273212890625,1.6975189447402954,4.674980163574219,-2.6696040630340576
1788164380898295800,3.2832958984375,1.047677993774414,4.424788951873779,-0.3433380126953125
1788164380908387000,3.293386962890625,2.3416249752044678,4.130875110626221,0.24068699777126312
1788164380918463200,3.303463134765625,2.6678531169891357,1.431596040725708,0.4552859961986542
1788164380928558300,3.313558349609375,3.3169350624084473,-0.8097630143165588,-0.4804620146751404
1788164380938645500,3.3236455078125,2.250981092453003,-1.5737659931182861,-1.9714629650115967
1788164380948739000,3.333739013671875,-0.5663160085678101,-0.8039050102233887,-2.833307981491089
1788164380958824700,3.34382470703125,0.0741100013256073,0.47964900732040405,-1.9263420104980469
1788164380968919600,3.35391943359375,0.22511400282382965,1.0641930103302002,-0.7504180073738098
1788164380979002000,3.364002197265625,-0.1356150060892105,2.550736904144287,-0.12425900250673294
1788164380989093000,3.374093017578125,-1.6994719505310059,2.749558925628662,0.3480130136013031
1788164380999182000,3.38418212890625,0.20912599563598633,1.1140730381011963,0.5962929725646973
1788164381009278700,3.39427880859375,0.5058509707450867,0.034811001271009445,0.36434200406074524
1788164381019363300,3.40436328125,0.42826899886131287,-0.5801290273666382,-0.03970000147819519
1788164381029451800,3.41445166015625,0.2534109950065613,-1.77229905128479,0.7829499840736389
1788164381039530800,3.42453076171875,0.05483600124716759,-1.8137550354003906,1.3994309902191162
1788164381049621800,3.434621826171875,-2.256230115890503,-2.4998979568481445,1.971235990524292
1788164381059707000,3.444706787109375,-2.158327102661133,-0.845749020576477,2.020298957824707
1788164381069810200,3.45481005859375,-2.8817648887634277,1.2377569675445557,0.07829800248146057
1788164381079896600,3.464896484375,-3.2317590713500977,2.132174015045166,0.40217798948287964
1788164381089993200,3.4749931640625,-4.698733806610107,4.482073783874512,1.1976350545883179
1788164381100078800,3.485078857421875,-5.2320098876953125,6.013452053070068,1.7261019945144653
1788164381110170600,3.495170654296875,-4.895258903503418,6.560032844543457,1.624277949333191
1788164381120260600,3.505260498046875,-2.1970980167388916,6.890604019165039,2.101923942565918
1788164381130356500,3.5153564453125,-0.8092730045318604,5.878079891204834,4.242762088775635
1788164381140442600,3.525442626953125,1.276034951210022,5.141564846038818,5.678969860076904
1788164381150534700,3.53553466796875,4.936018943786621,3.7699670791625977,3.9230010509490967
1788164381160619800,3.545619873046875,3.8004539012908936,2.3605740070343018,3.4088199138641357
1788164381170715000,3.55571484375,9.301435470581055,2.5099639892578125,3.2786738872528076
1788164381180801300,3.56580126953125,12.044952392578125,-1.177230954170227,4.311608791351318
1788164381190893600,3.5758935546875,11.061095237731934,-0.36976298689842224,4.308652877807617
1788164381200978700,3.585978759765625,11.777888298034668,1.8507319688796997,1.6080689430236816
1788164381211062500,3.5960625,6.866156101226807,-5.487983226776123,1.5249079465866089
1788164381221156900,3.606156982421875,-5.68660306930542,-10.811223030090332,-0.8467730283737183
1788164381231252000,3.616251953125,-25.149932861328125,-16.244625091552734,-8.74104118347168
1788164381241336000,3.626336181640625,-15.306302070617676,-15.256937026977539,-5.242116928100586
1788164381251428000,3.636427978515625,-5.631659030914307,-11.323554992675781,-5.197017192840576
1788164381261515800,3.646515869140625,-1.4535839557647705,-7.85699987411499,-8.61801815032959
1788164381271667700,3.656667724609375,4.045899868011475,-4.018791198730469,-8.669116020202637
1788164381281753900,3.66675390625,9.557251930236816,2.3119618892669678,-7.96031379699707
1788164381291847000,3.676846923828125,7.5234270095825195,1.2039669752120972,-4.321752071380615
1788164381301931300,3.68693115234375,1.3229180574417114,0.10928899794816971,-1.5862230062484741
1788164381312022800,3.697022705078125,-1.47475004196167,1.5604939460754395,-0.9829059839248657
1788164381322110500,3.7071103515625,-1.6796410083770752,2.364290952682495,-0.643546998500824
1788164381332201500,3.717201416015625,-1.6975200176239014,3.2361268997192383,-1.4670180082321167
1788164381342286800,3.727286865234375,-3.092571973800659,3.086150884628296,-1.9968769550323486
1788164381352379000,3.73737890625,-2.5667080879211426,3.1202030181884766,-2.092005968093872
1788164381362465800,3.7474658203125,-0.5720360279083252,6.2187819480896,-3.4992809295654297
1788164381372564700,3.757564697265625,1.7495850324630737,7.386266231536865,-1.5827850103378296
1788164381382644000,3.76764404296875,5.291926860809326,4.14143180847168,1.9403890371322632
1788164381402832000,3.787831787109375,5.419839859008789,-6.422965049743652,3.540329933166504
1788164381423003000,3.8080029296875,2.2972450256347656,-10.104684829711914,-0.9513390064239502
1788164381473437000,3.85843701171875,-1.8992719650268555,0.5340989828109741,0.36872199177742004
1788164381503703600,3.88870361328125,3.9322071075439453,-6.834054946899414,8.61873722076416
1788164381523884300,3.90888427734375,-0.17290599644184113,-0.10142199695110321,4.814617156982422
1788164381533981400,3.9189814453125,-0.16729700565338135,0.3706600069999695,4.9706339836120605
1788164381544080600,3.92908056640625,0.08419299870729446,0.7391819953918457,4.057724952697754
1788164381554176500,3.939176513671875,0.8789179921150208,1.9169219732284546,2.3607099056243896
1788164381564257800,3.9492578125,7.610219955444336,8.39159870147705,2.3050649166107178
1788164381574343700,3.95934375,-0.189642995595932,8.462467193603516,-0.3108690083026886
1788164381604609500,3.989609619140625,-2.0314419269561768,4.8776350021362305,-6.36252498626709
1788164381624785700,4.00978564453125,0.5217900276184082,4.116828918457031,-6.3356781005859375
1788164381634875100,4.019875244140625,1.5100699663162231,2.8385701179504395,-5.187245845794678
1788164381644965600,4.029965576171875,1.9845969676971436,1.6593719720840454,-4.411910057067871
1788164381655055000,4.04005517578125,2.2999069690704346,-0.16984499990940094,-3.219849109649658
1788164381665141800,4.050141845703125,-1.5626089572906494,-1.7057570219039917,-1.0938359498977661
1788164381675238100,4.060238037109375,-4.855236053466797,-2.4253320693969727,0.4678710103034973
1788164381695414300,4.080414306640625,-4.685301780700684,-3.2574069499969482,1.7545479536056519
1788164381705497000,4.0904970703125,-2.8711159229278564,-3.4527230262756348,1.7124799489974976
1788164381725678800,4.110678955078125,0.9037219882011414,-2.8108859062194824,0.550508975982666
1788164381735774500,4.1207744140625,1.1121629476547241,-2.471247911453247,-0.3081650137901306
1788164381745859300,4.130859375,0.7725110054016113,-2.0287768840789795,-0.5346559882164001
1788164381755941000,4.140941162109375,0.6620460152626038,-1.4550420045852661,-0.21081599593162537
1788164381776114200,4.1611142578125,0.5043320059776306,-0.2806070148944855,0.41099199652671814
1788164381786194400,4.1711943359375,0.09446900337934494,-0.029548000544309616,0.26254498958587646
1788164381796281300,4.18128125,-0.22628000378608704,0.24291899800300598,0.004695999901741743
1788164381806369800,4.191369873046875,-0.3371169865131378,0.44241398572921753,-0.1279579997062683
1788164381816456000,4.2014560546875,0.01956699974834919,0.40128999948501587,-0.13971300423145294
1788164381826545200,4.211545166015625,-0.07878399640321732,0.24987299740314484,-0.37171900272369385
1788164381836627500,4.22162744140625,-0.1636900007724762,0.13924099504947662,-0.5433260202407837
1788164381846713000,4.231713134765625,-0.062157999724149704,-0.057020001113414764,-0.6479210257530212
1788164381856800800,4.24180078125,0.09994400292634964,-0.24216100573539734,-0.5342599749565125
1788164381866895400,4.251895263671875,0.12010599672794342,-0.2649730145931244,-0.3139750063419342
1788164381876979000,4.26197900390625,0.18828700482845306,-0.17101100087165833,-0.0026020000223070383
1788164381887075300,4.272075439453125,0.365121990442276,-0.032301999628543854,0.21945500373840332
1788164381897159200,4.2821591796875,0.19225700199604034,0.025981999933719635,0.15499700605869293
1788164381907249000,4.292248779296875,0.09271399676799774,-0.045152999460697174,0.15620100498199463
1788164381917329000,4.302328857421875,0.22302600741386414,-0.12878799438476562,0.14631499350070953
1788164381927417600,4.31241748046875,0.24353599548339844,-0.22378399968147278,0.10013800114393234
1788164381937495800,4.322495849609375,0.0905269980430603,-0.22195500135421753,-0.039604999125003815
1788164381947587800,4.332587890625,0.020771000534296036,-0.10915999859571457,-0.03496300056576729
1788164381957680000,4.34268017578125,0.09098199754953384,-0.015723999589681625,-0.025200000032782555
1788164381967770400,4.352770263671875,-0.09970100224018097,0.001069999998435378,-0.1413169950246811
1788164381977856800,4.362856689453125,-0.23109500110149384,0.06242299824953079,-0.26531100273132324
1788164381987960800,4.3729609375,-0.14827600121498108,0.055695001035928726,-0.3575969934463501
1788164381998054000,4.383053955078125,-0.3724380135536194,0.07124199718236923,-0.365572988986969
1788164382008151600,4.393151611328125,-0.5960689783096313,-0.008458999916911125,-0.29399099946022034
1788164382018241800,4.40324169921875,-0.821690022945404,0.12035699933767319,-0.6711009740829468
1788164382028325000,4.4133251953125,0.15721100568771362,0.4872010052204132,-1.2889729738235474
1788164382038413000,4.4234130859375,2.424954891204834,0.8791069984436035,-1.572376012802124
1788164382048507100,4.433507080078125,6.3655619621276855,1.3600339889526367,-2.5403740406036377
1788164382058591000,4.443591064453125,-1.3253179788589478,0.1483609974384308,-0.33862701058387756
1788164382068679000,4.453678955078125,-3.3660480976104736,-0.9227150082588196,1.077530026435852
1788164382078762000,4.463761962890625,-2.708395004272461,-0.9346699714660645,1.6237659454345703
1788164382088853000,4.47385302734375,-1.1650270223617554,-0.630370020866394,1.2339709997177124
1788164382098937600,4.4839375,0.2256859987974167,-0.17566299438476562,0.4882799983024597
1788164382109023700,4.494023681640625,0.917726993560791,0.03916500136256218,-0.11793600022792816
1788164382119100200,4.50410009765625,0.03237200155854225,-0.14751499891281128,-0.44057199358940125
1788164382129199900,4.514199951171875,-0.4302169978618622,0.030780000612139702,-0.873196005821228
1788164382139282400,4.524282470703125,0.15698599815368652,0.11835499852895737,-0.9968799948692322
1788164382149375000,4.534375,0.2426059991121292,-0.24337300658226013,-0.6876800060272217
1788164382159460600,4.544460693359375,0.22483700513839722,-0.29267698526382446,-0.48733800649642944
1788164382169543000,4.55454296875,0.283143013715744,0.2357580065727234,-0.8715710043907166
1788164382179628500,4.564628662109375,0.04878100007772446,-0.06095999851822853,0.03830200061202049
1788164382189718300,4.57471826171875,0.2710700035095215,-0.27327701449394226,0.6377289891242981
1788164382199802400,4.58480224609375,0.8092179894447327,-0.23128700256347656,0.2770960032939911
1788164382209899300,4.594899169921875,0.7269350290298462,0.05265500023961067,-0.3601289987564087
1788164382219984600,4.604984619140625,0.027094999328255653,-0.0021170000545680523,-0.20136800408363342
1788164382230077200,4.6150771484375,-0.6817749738693237,-0.49919000267982483,0.2869659960269928
1788164382240161300,4.625161376953125,-0.9682949781417847,-0.795635998249054,0.5428550243377686
1788164382250248700,4.635248779296875,-0.44040000438690186,-1.1767879724502563,0.9522449970245361
1788164382260333800,4.645333740234375,-0.17583799362182617,-0.7017170190811157,0.6302229762077332
1788164382270430000,4.655429931640625,-0.49485498666763306,-0.08342999964952469,0.24946099519729614
1788164382280517400,4.665517333984375,-0.5077400207519531,0.19207000732421875,0.29260098934173584
1788164382290604800,4.675604736328125,-0.14147800207138062,0.11782599985599518,0.3995650112628937
1788164382300686600,4.6856865234375,0.28827500343322754,0.03474299982190132,0.3824009895324707
1788164382310772200,4.695772216796875,0.4733920097351074,0.011281000450253487,0.4824970066547394
1788164382320854300,4.705854248046875,0.2866150140762329,0.03328099846839905,0.4044019877910614
1788164382330948400,4.7159482421875,0.07643699645996094,0.21321499347686768,0.28223198652267456
1788164382341028900,4.72602880859375,0.27640101313591003,0.18010899424552917,0.015003000386059284
1788164382351117000,4.736116943359375,0.3127489984035492,0.12792900204658508,-0.12393199652433395
1788164382361203000,4.746202880859375,0.7959210276603699,-0.4311999976634979,-0.31665799021720886
1788164382371309300,4.756309326171875,0.7157099843025208,-0.1772869974374771,-1.35863196849823
1788164382381399300,4.7663994140625,0.4881249964237213,0.015812000259757042,-2.0655291080474854
1788164382391504000,4.77650390625,0.25513601303100586,-1.0038299560546875,-0.201091006398201
1788164382401584400,4.78658447265625,-2.9955480098724365,-1.007972002029419,0.7008810043334961
1788164382411679200,4.79667919921875,1.1011769771575928,-0.48192501068115234,1.4287869930267334
1788164382421768400,4.8067685546875,0.13223199546337128,0.21758399903774261,0.9240379929542542
1788164382431863600,4.816863525390625,0.28866198658943176,0.0501290000975132,0.8862469792366028
1788164382441951700,4.82695166015625,-0.7115380167961121,-0.4227440059185028,0.9661380052566528
1788164382452038700,4.83703857421875,-0.6448389887809753,-0.3571529984474182,0.6954330205917358
1788164382462125000,4.847125,-0.24609899520874023,0.4252449870109558,0.05244499817490578
1788164382472213800,4.8572138671875,-0.23605599999427795,1.5649670362472534,-0.8745149970054626
1788164382482301200,4.86730126953125,-0.28068000078201294,1.3920010328292847,-1.048846960067749
1788164382492397600,4.8773974609375,-0.38898199796676636,0.5311149954795837,-0.8564620018005371
1788164382502481000,4.88748095703125,-0.29675400257110596,-0.0005419999943114817,-0.8869330286979675
1788164382512575500,4.897575439453125,-0.3706429898738861,-0.2593019902706146,-0.6479589939117432
1788164382522663200,4.9076630859375,0.006676999852061272,-0.36010101437568665,-0.41443100571632385
1788164382532755200,4.917755126953125,0.16785700619220734,-0.49341198801994324,-0.3241409957408905
1788164382542847200,4.92784716796875,0.18442299962043762,-0.35947901010513306,-0.4883809983730316
1788164382552947200,4.937947265625,0.23334400355815887,-0.29934000968933105,-0.7489929795265198
1788164382563029200,4.948029296875,0.011033999733626842,-0.5522180199623108,-0.3300279974937439
1788164382573123300,4.958123291015625,-0.014743000268936157,-0.5070639848709106,-0.08765900135040283
1788164382583216600,4.968216552734375,-0.08142799884080887,-0.48482000827789307,0.3783699870109558
1788164382593306600,4.978306640625,0.1655000001192093,-0.2743149995803833,0.5225970149040222
1788164382603388000,4.988387939453125,0.442999005317688,-0.17861999571323395,0.49341699481010437
1788164382613483800,4.99848388671875,-0.8910679817199707,-0.5241979956626892,0.6703879833221436
1788164382623570400,5.0085703125,0.4801830053329468,-0.3099139928817749,0.03457200154662132
1788164382633666600,5.01866650390625,-0.20586399734020233,-0.26106101274490356,-0.0619410015642643
1788164382643754800,5.028754638671875,-0.009707000106573105,0.24183599650859833,-0.713388979434967
1788164382653838300,5.03883837890625,-0.3227140009403229,0.36448800563812256,-0.2617500126361847
1788164382663928300,5.04892822265625,-0.3851589858531952,0.5796430110931396,-0.056292999535799026
1788164382674025000,5.05902490234375,0.17232699692249298,0.4859969913959503,0.1944420039653778
1788164382694222300,5.079222412109375,0.5855699777603149,0.006105999927967787,-0.6755340099334717
1788164382704310000,5.08931005859375,0.14191900193691254,-0.4245089888572693,-0.45557901263237
1788164382714395100,5.09939501953125,0.04478200152516365,-0.6571030020713806,-0.12295199930667877
1788164382724479500,5.1094794921875,0.25989800691604614,0.10320799797773361,-0.320046991109848
1788164382734566700,5.119566650390625,0.09572400152683258,-0.142208993434906,0.22450199723243713
1788164382744651500,5.129651611328125,-0.18101100623607635,-0.33528101444244385,0.5704399943351746
1788164382754742800,5.13974267578125,0.05043699964880943,0.06391999870538712,0.4005570113658905
1788164382764831500,5.14983154296875,0.16798900067806244,0.6035040020942688,-0.3633059859275818
1788164382774930700,5.1599306640625,-0.32396700978279114,0.2580989897251129,-0.09191600233316422
1788164382785018000,5.17001806640625,-0.39395999908447266,0.16483600437641144,0.23274199664592743
1788164382795106300,5.180106201171875,-0.043157000094652176,0.3026059865951538,0.48639601469039917
1788164382805189400,5.190189453125,-0.5417680144309998,0.4415130019187927,0.9791749715805054
1788164382815282700,5.20028271484375,-1.6066099405288696,0.5806909799575806,0.17881500720977783
1788164382825369900,5.210369873046875,-0.7713180184364319,0.12151200324296951,0.37609800696372986
1788164382835457500,5.22045751953125,-0.4515930116176605,-0.5012609958648682,0.5141230225563049
1788164382845547300,5.23054736328125,-0.14535599946975708,-0.6584399938583374,0.6756579875946045
1788164382855636500,5.240636474609375,-0.3326129913330078,-0.13773900270462036,0.3373059928417206
1788164382865723600,5.2507236328125,-0.3807249963283539,0.2336059957742691,-0.03945999965071678
1788164382875808500,5.26080859375,0.038423001766204834,-0.011433999985456467,0.024887999519705772
1788164382885895000,5.27089501953125,0.2747749984264374,-0.13170799612998962,-0.013406000100076199
1788164382895984400,5.280984375,0.4362969994544983,-0.10985399782657623,-0.16255199909210205
1788164382906062300,5.291062255859375,-1.2101210355758667,1.0774229764938354,-1.9567569494247437
1788164382916141000,5.30114111328125,2.308537006378174,-0.502240002155304,-0.9561750292778015
1788164382926227200,5.311227294921875,3.1619999408721924,-1.4164509773254395,-0.5370479822158813
1788164382936316700,5.321316650390625,1.7180709838867188,-1.3785109519958496,-0.7536299824714661
1788164382946402300,5.33140234375,-1.120192050933838,-0.3466860055923462,-0.9352570176124573
1788164382956494600,5.34149462890625,-1.7448209524154663,0.47260400652885437,-0.5878400206565857
1788164382966578000,5.351577880859375,-1.3585139513015747,0.43685200810432434,0.03846000134944916
1788164382976667400,5.36166748046875,-0.5520390272140503,0.14509199559688568,-0.16977299749851227
1788164382986753000,5.3717529296875,-0.32832100987434387,0.48628899455070496,-1.3913099765777588
1788164382996851000,5.381850830078125,-0.3888919949531555,0.07060900330543518,-2.4258739948272705
1788164383006940400,5.3919404296875,-0.6901879906654358,-0.29733800888061523,-2.2322158813476562
1788164383017032400,5.402032470703125,-0.7287350296974182,-0.39243900775909424,-2.0280239582061768
1788164383027122700,5.412122802734375,1.0194180011749268,-0.10611700266599655,-2.2677559852600098
1788164383037212700,5.422212646484375,5.115985870361328,-0.5623679757118225,0.04017199948430061
1788164383047293700,5.432293701171875,1.6722010374069214,-0.21187399327754974,0.868552029132843
1788164383057380400,5.44238037109375,-1.0642969608306885,-0.048315998166799545,1.2497270107269287
1788164383067467800,5.4524677734375,-1.045835018157959,0.2633639872074127,1.9856020212173462
1788164383077551900,5.4625517578125,-1.0035680532455444,1.225324034690857,0.5566840171813965
1788164383087643000,5.472642822265625,-0.6788150072097778,1.3505760431289673,-0.8165619969367981
1788164383097730800,5.482730712890625,-0.7066259980201721,0.7803660035133362,-0.8218200206756592
1788164383107821800,5.49282177734375,-0.8639410138130188,0.14335300028324127,0.23423799872398376
1788164383117911600,5.50291162109375,-1.0506969690322876,0.3933109939098358,0.6617479920387268
1788164383127997700,5.512997802734375,0.3210040032863617,0.24939000606536865,0.7598699927330017
1788164383138080000,5.523080078125,0.1728380024433136,-0.25346699357032776,0.6640220284461975
1788164383148172300,5.53317236328125,-1.0279619693756104,-0.4846569895744324,0.9548779726028442
1788164383158264800,5.543264892578125,-2.6558799743652344,-0.6442480087280273,2.334902048110962
1788164383168348400,5.553348388671875,-0.5154079794883728,-0.7043939828872681,2.7834219932556152
1788164383178437600,5.563437744140625,2.478569984436035,-0.3673759996891022,1.7575010061264038
1788164383188515800,5.573515869140625,1.604225993156433,-0.4191240072250366,1.3818140029907227
1788164383198605600,5.58360546875,1.5458409786224365,0.05156699940562248,0.3336310088634491
1788164383208694000,5.593694091796875,2.497939109802246,0.261694997549057,-0.23645399510860443
1788164383218777300,5.60377734375,1.2337199449539185,0.48951300978660583,-0.8407289981842041
1788164383228866800,5.61386669921875,-1.8127069473266602,-0.23682400584220886,-1.1100950241088867
1788164383238957600,5.62395751953125,-0.8062790036201477,-0.2479110062122345,-1.2704529762268066
1788164383249039600,5.63403955078125,0.1553329974412918,-0.08661100268363953,-1.204306960105896
1788164383259126800,5.644126708984375,0.4383249878883362,-0.31269699335098267,-1.002413034439087
1788164383269212200,5.654212158203125,0.08062200248241425,-0.444242000579834,-0.394991010427475
1788164383279301400,5.66430126953125,-0.3821139931678772,-0.2650350034236908,-0.15745499730110168
1788164383289384000,5.674384033203125,-0.4906949996948242,0.11941300332546234,0.26566600799560547
1788164383299473700,5.6844736328125,-1.082929015159607,-0.04273200035095215,-0.05063899978995323
1788164383309556200,5.69455615234375,-0.18093399703502655,0.028363000601530075,-0.32105401158332825
1788164383319646000,5.70464599609375,0.5175880193710327,-0.034818001091480255,-0.24854299426078796
1788164383329733400,5.7147333984375,0.26083800196647644,-0.26351699233055115,-0.2650890052318573
1788164383339819800,5.72481982421875,0.5101829767227173,-0.28434398770332336,-0.3247720003128052
1788164383349907700,5.73490771484375,0.6691809892654419,-0.059627000242471695,-0.264477014541626
1788164383359997200,5.7449970703125,0.5461090207099915,-1.053128957748413,0.4866189956665039
1788164383370082600,5.75508251953125,0.17852100729942322,-1.3115270137786865,0.7577019929885864
1788164383380173300,5.76517333984375,-0.16258500516414642,-0.6449660062789917,0.567438006401062
1788164383390262300,5.77526220703125,-0.0010029999539256096,0.03229900076985359,0.45937401056289673
1788164383400348400,5.785348388671875,-0.004404999781399965,0.5981940031051636,0.509663999080658
1788164383410440400,5.7954404296875,0.08488199859857559,-0.24628399312496185,1.0001180171966553
1788164383420534500,5.805534423828125,0.1396470069885254,-1.4953479766845703,1.52695894241333
1788164383430609200,5.815609130859375,-0.03178799897432327,-2.634666919708252,1.3832199573516846
1788164383440700000,5.825699951171875,0.2611309885978699,-3.647429943084717,0.759427011013031
1788164383450786800,5.835786865234375,0.13582199811935425,-3.3336780071258545,0.6873559951782227
1788164383460878300,5.84587841796875,0.00917499978095293,-3.1438779830932617,0.7988479733467102
1788164383470966300,5.85596630859375,-0.9135479927062988,-2.5362229347229004,0.6776729822158813
1788164383481049900,5.8660498046875,-1.1706899404525757,-2.034553050994873,0.6333519816398621
1788164383491144200,5.876144287109375,-2.073345899581909,-0.9680020213127136,0.020018000155687332
1788164383501239300,5.8862392578125,-1.68715500831604,-0.4521630108356476,-0.16174499690532684
1788164383511331300,5.896331298828125,-0.17769600450992584,-0.9576089978218079,1.2199729681015015
1788164383521425400,5.90642529296875,1.2842580080032349,1.7261090278625488,1.7001010179519653
1788164383531521800,5.916521728515625,0.8100919723510742,4.145289897918701,0.8284749984741211
1788164383541606700,5.926606689453125,0.6495220065116882,5.8848161697387695,-0.24055099487304688
1788164383551696100,5.936696044921875,1.4289250373840332,6.321567058563232,-1.3400700092315674
1788164383561790200,5.946790283203125,2.0704760551452637,5.534424781799316,-1.900246024131775
1788164383571881700,5.9568818359375,1.8777110576629639,3.944606065750122,-1.3514519929885864
1788164383581973800,5.966973876953125,0.7514690160751343,2.1595840454101562,-0.7362300157546997
1788164383592061400,5.9770615234375,-0.3073970079421997,0.431210994720459,-0.2982040047645569
1788164383602147000,5.98714697265625,-0.913815975189209,-1.6180009841918945,-0.0667319968342781
1788164383612229600,5.997229736328125,-1.053354024887085,-2.9207539558410645,-0.2597639858722687
1788164383622320000,6.007320068359375,-1.0203490257263184,-3.8830549716949463,-0.791172981262207
1788164383632413000,6.017412841796875,-0.8163740038871765,-3.793440103530884,-1.1197509765625
1788164383642503000,6.0275029296875,-0.7197210192680359,-3.1693789958953857,-0.9400849938392639
1788164383652589000,6.037589111328125,-0.9075400233268738,-1.8027780055999756,-0.15123200416564941
1788164383662677000,6.047677001953125,-0.8354529738426208,-0.7319599986076355,0.3747589886188507
1788164383672774700,6.057774658203125,-0.7546089887619019,0.25368499755859375,0.6849139928817749
1788164383682858800,6.067858642578125,-0.32070401310920715,0.7927849888801575,0.9284129738807678
1788164383692947200,6.077947265625,0.15466000139713287,1.2018049955368042,0.9440310001373291
1788164383703038000,6.088037841796875,0.21595999598503113,1.3483630418777466,0.7557740211486816
1788164383713125000,6.098125,0.5000079870223999,1.3101799488067627,0.5301700234413147
1788164383723213300,6.10821337890625,0.388604998588562,1.1103349924087524,-0.03255999833345413
1788164383733298000,6.1182978515625,0.11523400247097015,0.7418199777603149,-0.5220320224761963
1788164383743379500,6.12837939453125,-0.03172300010919571,0.2705340087413788,-0.9023839831352234
1788164383753472500,6.138472412109375,-0.24447600543498993,-0.14711299538612366,-1.10602605342865
1788164383763563300,6.148563232421875,-0.65317702293396,-0.45694899559020996,-1.187582015991211
1788164383773651000,6.15865087890625,-0.7277719974517822,-0.4900299906730652,-1.0858670473098755
1788164383783742500,6.168742431640625,-0.5357000231742859,-0.37528300285339355,-0.8373090028762817
1788164383793836500,6.17883642578125,-0.3723889887332916,-0.06278800219297409,-0.859449028968811
1788164383803920000,6.188919921875,-0.22358199954032898,0.21195299923419952,-0.7353100180625916
1788164383814013400,6.199013427734375,0.03456500172615051,0.3549500107765198,-0.45513200759887695
1788164383824098800,6.209098876953125,0.22724400460720062,0.4363130033016205,-0.15934200584888458
1788164383834187800,6.219187744140625,0.20655100047588348,0.45865800976753235,0.09813299775123596
1788164383844270300,6.229270263671875,0.0640769973397255,0.3881939947605133,0.37491899728775024
1788164383854364400,6.239364501953125,0.01757499948143959,0.26713401079177856,0.487293004989624
1788164383864444200,6.249444091796875,-0.1337980031967163,0.1620829999446869,0.2717230021953583
1788164383874538000,6.2595380859375,-0.2160869985818863,0.07967600226402283,0.004945999942719936
1788164383884624400,6.269624267578125,-0.13808299601078033,-0.02685599960386753,-0.18126699328422546
1788164383894711000,6.2797109375,-0.02079099975526333,-0.1344909965991974,-0.1988849937915802
1788164383904793000,6.28979296875,0.02032499946653843,-0.22995500266551971,-0.12874600291252136
1788164383914878500,6.29987841796875,0.08698199689388275,-0.24046100676059723,0.12526200711727142
1788164383924970800,6.309970703125,0.18359500169754028,-0.23013600707054138,0.2774530053138733
1788164383935059500,6.3200595703125,0.18566100299358368,-0.24369800090789795,0.26927098631858826
1788164383945151200,6.330151123046875,0.14750400185585022,-0.2983269989490509,0.2346549928188324
1788164383955246000,6.34024609375,0.18021200597286224,-0.32587599754333496,0.23341399431228638
1788164383965326300,6.350326416015625,0.2093220055103302,-0.3872489929199219,0.29790499806404114
1788164383975418600,6.360418701171875,0.035964999347925186,-0.4666160047054291,0.3546240031719208
1788164383985498600,6.37049853515625,-0.09151999652385712,-0.5368720293045044,0.41907501220703125
1788164383995594000,6.380593994140625,-0.046872999519109726,-0.47277700901031494,0.4805369973182678
1788164384005676500,6.390676513671875,-0.08497100323438644,-0.4397070109844208,0.4628489911556244
1788164384015770400,6.400770263671875,-0.006023999769240618,-0.32066500186920166,0.3492949903011322
1788164384025852700,6.410852783203125,0.13161799311637878,-0.1908389925956726,0.248758003115654
1788164384035944000,6.42094384765625,0.10671199858188629,-0.0678120031952858,0.16694900393486023
1788164384046027000,6.431027099609375,-0.04348599910736084,0.06703200191259384,0.09489800035953522
1788164384056113700,6.44111376953125,-0.01310800015926361,0.135234996676445,0.20367899537086487
1788164384066192400,6.4511923828125,0.037053000181913376,0.18480299413204193,0.25296398997306824
1788164384076284400,6.461284423828125,-0.07168799638748169,0.1923000067472458,0.11971800029277802
1788164384086377000,6.471376953125,-0.029287999495863914,0.15316399931907654,0.04295099899172783
1788164384096477700,6.481477783203125,0.13569700717926025,0.13991400599479675,0.029417000710964203
1788164384106573600,6.491573486328125,0.06774400174617767,0.058692000806331635,0.029085999354720116
1788164384116669700,6.501669677734375,0.04356199875473976,0.048530999571084976,0.026371000334620476
1788164384126768400,6.511768310546875,0.1700270026922226,0.1115259975194931,0.15813399851322174
1788164384136855800,6.521855712890625,0.3021630048751831,0.14324800670146942,0.3136950135231018
1788164384146946000,6.531946044921875,0.10873699933290482,0.0815339982509613,0.3082660138607025
1788164384157025500,6.542025634765625,0.047940999269485474,0.010289999656379223,0.2954390048980713
1788164384167121700,6.55212158203125,0.06671299785375595,-0.16825099289417267,0.27022799849510193
1788164384177209300,6.562209228515625,-0.15525799989700317,-0.354297012090683,0.17157700657844543
1788164384187298000,6.572298095703125,-0.3666189908981323,-0.4867120087146759,-0.014554999768733978
1788164384197377500,6.58237744140625,-0.2735689878463745,-0.4518060088157654,-0.12758399546146393
1788164384207465000,6.59246484375,-0.08958599716424942,-0.3227649927139282,-0.23753699660301208
1788164384217553700,6.6025537109375,-0.12015099823474884,-0.1197350025177002,-0.47555699944496155
1788164384227643100,6.61264306640625,-0.12448100000619888,0.12068700045347214,-0.6088500022888184
1788164384237731800,6.62273193359375,-0.08812399953603745,0.2592250108718872,-0.5859839916229248
1788164384247818500,6.632818603515625,-0.24593499302864075,0.2485630065202713,-0.5619180202484131
1788164384257905700,6.64290576171875,-0.42204201221466064,0.22801899909973145,-0.5302619934082031
1788164384267999500,6.65299951171875,-0.4107910096645355,0.17730499804019928,-0.3305700123310089
1788164384278088400,6.66308837890625,-0.12733100354671478,0.213686004281044,-0.22792300581932068
1788164384288184300,6.673184326171875,-0.019474999979138374,0.19097299873828888,-0.22766099870204926
1788164384298282200,6.6832822265625,0.141198992729187,0.16603699326515198,-0.1413870006799698
1788164384308365600,6.693365478515625,0.2830530107021332,0.16570299863815308,-0.012713000178337097
1788164384318454300,6.703454345703125,0.3207640051841736,0.1320199966430664,0.033114999532699585
1788164384328544800,6.713544677734375,0.3066349923610687,0.14928199350833893,0.0514100007712841
1788164384338636000,6.723635986328125,0.40158700942993164,0.1785230040550232,0.1362600028514862
1788164384348732200,6.733732177734375,0.2723430097103119,0.1662759929895401,0.06647299975156784
1788164384358819800,6.74381982421875,-0.05879100039601326,0.12616300582885742,-0.09126999974250793
1788164384368912400,6.753912353515625,-0.25012901425361633,0.08186600357294083,-0.2349099963903427
1788164384379007200,6.76400732421875,-0.2997170090675354,-0.03569899871945381,-0.3432590067386627
1788164384389107500,6.774107421875,-0.5115020275115967,-0.12797999382019043,-0.5878030061721802
1788164384399202600,6.78420263671875,-0.5036190152168274,-0.17386199533939362,-0.7180520296096802
1788164384409305300,6.794305419921875,-0.43720000982284546,-0.22477099299430847,-0.48429200053215027
1788164384419404300,6.804404296875,-0.4073610007762909,-0.2484149932861328,-0.4339410066604614
1788164384429493200,6.8144931640625,-0.15994200110435486,-0.08010700345039368,-0.47554099559783936
1788164384439588000,6.824588134765625,0.25886300206184387,0.01931999996304512,-0.2108210027217865
1788164384449689600,6.834689697265625,0.2868649959564209,0.11481200158596039,-0.11874999850988388
1788164384459773200,6.844773193359375,0.37037500739097595,0.21070900559425354,-0.005357999820262194
1788164384469879000,6.854879150390625,0.1829809993505478,0.22193700075149536,0.3790700137615204
1788164384479966700,6.864966796875,0.09290499985218048,0.13003100454807281,0.5135449767112732
1788164384490049800,6.8750498046875,0.09430500119924545,-0.020403999835252762,0.4722200036048889
1788164384500148500,6.8851484375,-0.08895599842071533,-0.0694189965724945,0.2046709954738617
1788164384510247000,6.895246826171875,-0.019589999690651894,-0.061785999685525894,0.035321999341249466
1788164384520377900,6.9053779296875,-0.32650700211524963,-0.1295270025730133,0.07237900048494339
1788164384530474000,6.915473876953125,-0.47060900926589966,-0.13373200595378876,-0.05903499945998192
1788164384540562200,6.925562255859375,-0.3451850116252899,-0.19653600454330444,-0.017990000545978546
1788164384550651100,6.935651123046875,-0.1665560007095337,-0.11960999667644501,-0.035666000097990036
1788164384560733700,6.945733642578125,-0.1167839989066124,-0.04136500135064125,0.004726999904960394
1788164384570826200,6.955826171875,0.1321289986371994,0.1637369990348816,-0.11838699877262115
1788164384580915200,6.965915283203125,0.21278299391269684,0.3490790128707886,-0.10700900107622147
1788164384591007700,6.9760078125,0.05840500071644783,0.1730930060148239,0.19722600281238556
1788164384601087700,6.986087646484375,-0.32321199774742126,0.14384500682353973,0.0021059999708086252
1788164384611182000,6.99618212890625,-0.19884300231933594,0.145006000995636,0.004900999832898378
1788164384621271600,7.006271484375,-0.2785379886627197,0.12100200355052948,0.2161089926958084
1788164384631364000,7.016364013671875,-0.37627100944519043,0.21991699934005737,-0.057023998349905014
1788164384641449500,7.026449462890625,-0.6025890111923218,0.2909129858016968,-0.19170500338077545
1788164384651536600,7.03653662109375,-1.2051090002059937,0.2933160066604614,0.19584399461746216
1788164384661622500,7.04662255859375,-1.3303179740905762,0.49572598934173584,0.274946004152298
1788164384671712800,7.056712646484375,-1.26494300365448,0.950639009475708,0.16973400115966797
1788164384681805300,7.066805419921875,-1.6521669626235962,1.1772680282592773,0.3538540005683899
1788164384691897600,7.076897705078125,-1.2941709756851196,1.2758690118789673,0.41791799664497375
1788164384701988000,7.086988037109375,-0.6528030037879944,1.6301690340042114,0.1517760008573532
1788164384712084200,7.097084228515625,-1.1114540100097656,1.8466520309448242,0.026165999472141266
1788164384722172700,7.107172607421875,-1.0274800062179565,1.7131719589233398,-0.09833800047636032
1788164384732274400,7.1172744140625,-0.5037959814071655,1.7248400449752808,-0.4564189910888672
1788164384742358000,7.12735791015625,-0.9006320238113403,1.699741005897522,-0.822160005569458
1788164384752447500,7.137447509765625,-0.8619369864463806,1.3755179643630981,-1.121893048286438
1788164384762531800,7.14753173828125,-0.5611990094184875,1.2117140293121338,-1.424875020980835
1788164384772624000,7.157623779296875,-0.9685829877853394,1.0933749675750732,-1.5105170011520386
1788164384782715000,7.16771484375,-0.7947700023651123,0.8603039979934692,-1.3914799690246582
1788164384792800000,7.177800048828125,-0.7013810276985168,0.8686339855194092,-1.2394349575042725
1788164384802891500,7.1878916015625,-1.2926690578460693,1.0990339517593384,-0.9737460017204285
1788164384812982500,7.197982421875,-1.0628509521484375,1.3570539951324463,-0.7743080258369446
1788164384823069200,7.208069091796875,-0.7554609775543213,1.6265829801559448,-0.6132529973983765
1788164384833163300,7.218163330078125,-1.0937540531158447,1.8951410055160522,-0.49581798911094666
1788164384843255000,7.228255126953125,-0.793766975402832,2.0456700325012207,-0.3993239998817444
1788164384853349000,7.23834912109375,-0.7581949830055237,2.2378969192504883,-0.34726399183273315
1788164384863432200,7.24843212890625,-1.1243070363998413,2.2099640369415283,-0.28004100918769836
1788164384873515300,7.258515380859375,-0.5082160234451294,1.9950979948043823,-0.29251599311828613
1788164384883599000,7.26859912109375,-0.4053899943828583,1.6941770315170288,-0.1622619926929474
1788164384893688800,7.278688720703125,-0.7537569999694824,1.2240209579467773,0.04025400057435036
1788164384903772700,7.288772705078125,-0.2554680109024048,0.848505973815918,-0.08930300176143646
1788164384913867300,7.2988671875,-0.33363500237464905,0.5811359882354736,-0.05468500033020973
1788164384923957000,7.30895703125,-0.3295010030269623,0.4525119960308075,-0.2973349988460541
1788164384934044700,7.319044677734375,-0.1673240065574646,0.3896009922027588,-0.5780439972877502
1788164384944139300,7.32913916015625,-1.4045369625091553,0.1576090008020401,-0.5669919848442078
1788164384954233600,7.339233642578125,-2.1897459030151367,-0.04493499919772148,-0.7664330005645752
1788164384964328200,7.349328125,-2.517518997192383,0.07987599819898605,-1.182744026184082
1788164384974413000,7.3594130859375,-2.954451084136963,0.05493500083684921,-1.3685410022735596
1788164384984511200,7.36951123046875,-2.6450788974761963,0.2742849886417389,-1.8169870376586914
1788164384994601000,7.37960107421875,-2.0692551136016846,0.6213200092315674,-2.0011379718780518
1788164385004691500,7.38969140625,-1.3844590187072754,0.8393459916114807,-1.7241970300674438
1788164385014778400,7.3997783203125,-0.3768630027770996,1.287660002708435,-1.5628650188446045
1788164385024897000,7.40989697265625,0.1306450068950653,1.7601649761199951,-1.1338759660720825
1788164385034987500,7.419987548828125,0.3706659972667694,1.9872349500656128,-0.49643099308013916
1788164385045073400,7.430073486328125,0.6010169982910156,2.139491081237793,-0.18453599512577057
1788164385055157200,7.4401572265625,0.6555579900741577,2.218122959136963,0.12528300285339355
1788164385065255700,7.450255615234375,1.017861008644104,2.3860409259796143,0.18705900013446808
1788164385075334100,7.460334228515625,1.133937954902649,2.495568037033081,0.08478099852800369
1788164385085422800,7.4704228515625,0.736739993095398,2.4988420009613037,0.06330300122499466
1788164385095514000,7.48051416015625,0.45723599195480347,2.418407917022705,-0.04648299887776375
1788164385105600000,7.49060009765625,0.2652379870414734,2.337394952774048,-0.28574201464653015
1788164385115685400,7.500685302734375,0.004985999781638384,2.0170819759368896,-0.35826998949050903
1788164385125783000,7.510782958984375,-0.28581100702285767,1.4425289630889893,-0.2946949899196625
1788164385135868000,7.520867919921875,-0.5218979716300964,0.6612589955329895,-0.07567699998617172
1788164385145965000,7.530965087890625,-0.7079870104789734,-0.21066899597644806,0.31597399711608887
1788164385156052200,7.54105224609375,-0.6686009764671326,-1.0982990264892578,0.9999380111694336
1788164385166144000,7.55114404296875,-0.8593609929084778,-1.7050009965896606,1.6045409440994263
1788164385176223700,7.5612236328125,-0.910876989364624,-1.8326400518417358,1.8498389720916748
1788164385186320100,7.571320068359375,-0.7070509791374207,-1.0521639585494995,1.3508230447769165
1788164385196406000,7.581406005859375,-0.5432180166244507,-0.3883959949016571,0.9923920035362244
1788164385206504700,7.591504638671875,-0.25571298599243164,0.13235099613666534,0.8658999800682068
1788164385216592400,7.60159228515625,0.01621999964118004,0.6441969871520996,0.5681459903717041
1788164385226691300,7.61169140625,0.14057999849319458,0.9636800289154053,0.3020060062408447
1788164385236778500,7.621778564453125,0.34032198786735535,1.0140650272369385,0.24168899655342102
1788164385246880300,7.63188037109375,0.05028099939227104,0.8725720047950745,0.1952199935913086
1788164385256965600,7.641965576171875,-0.39798301458358765,0.6575419902801514,-0.009836999699473381
1788164385267065000,7.652065185546875,-0.27684399485588074,0.6219409704208374,-0.20857200026512146
1788164385277147000,7.66214697265625,-0.12961100041866302,0.6495810151100159,-0.20460300147533417
1788164385287246300,7.672246337890625,-0.06676200032234192,0.6084740161895752,-0.15178799629211426
1788164385297333500,7.68233349609375,-0.13438500463962555,0.605849027633667,-0.24006900191307068
1788164385307424000,7.692424072265625,-0.2822589874267578,0.6578180193901062,-0.5061789751052856
1788164385317508000,7.702508056640625,-0.18957599997520447,0.6799110174179077,-0.8012740015983582
1788164385327595300,7.71259521484375,0.2753579914569855,0.7315359711647034,-0.9670730233192444
1788164385337678600,7.7226787109375,0.4449540078639984,0.6907209753990173,-1.0713839530944824
1788164385347775000,7.73277490234375,0.6615610122680664,0.5262460112571716,-0.8078290224075317
1788164385357874200,7.742874267578125,0.9104329943656921,0.3619450032711029,-0.43238601088523865
1788164385367970000,7.752969970703125,0.6968470215797424,0.18151099979877472,-0.09921400249004364
1788164385378057000,7.763056884765625,0.5516070127487183,-0.08771300315856934,0.16438500583171844
1788164385388156400,7.773156494140625,0.47271299362182617,-0.2503570020198822,0.19835400581359863
1788164385398246100,7.78324609375,-0.03008200041949749,-0.48790299892425537,-0.04088899865746498
1788164385408343000,7.793343017578125,-0.3983429968357086,-0.7262399792671204,-0.27885401248931885
1788164385418426600,7.803426513671875,-0.3788889944553375,-0.8444070219993591,-0.5321109890937805
1788164385428516600,7.8135166015625,-0.3230859935283661,-0.902180016040802,-0.6215959787368774
1788164385438608400,7.8236083984375,-0.15990400314331055,-1.143792986869812,-0.5458589792251587
1788164385448703500,7.833703369140625,0.15126000344753265,-1.3552409410476685,-0.545822024345398
1788164385458799400,7.84379931640625,0.6200709939002991,-1.4469480514526367,-0.5487509965896606
1788164385468892200,7.85389208984375,1.2654080390930176,-1.5710630416870117,-0.43724700808525085
1788164385478979600,7.8639794921875,1.7083959579467773,-1.7124539613723755,-0.28124499320983887
1788164385489073000,7.874072998046875,1.6283320188522339,-1.779500961303711,-0.07236699759960175
1788164385499164400,7.884164306640625,1.391440987586975,-1.7779680490493774,0.02249000035226345
1788164385509268200,7.894268310546875,1.050799012184143,-1.8604999780654907,0.18016499280929565
1788164385519362600,7.904362548828125,0.5133799910545349,-2.021923065185547,0.21045400202274323
1788164385529446400,7.9144462890625,0.06700500100851059,-2.3054749965667725,0.29179200530052185
1788164385539538700,7.92453857421875,-0.2546460032463074,-2.678391933441162,0.3591260015964508
1788164385549635300,7.93463525390625,-0.3957729935646057,-3.0086889266967773,0.36577698588371277
1788164385559729400,7.9447294921875,-0.3482019901275635,-3.2550220489501953,0.6826840043067932
1788164385569822200,7.954822265625,0.06191999837756157,-3.054495096206665,0.36654001474380493
1788164385579907600,7.964907470703125,0.5804070234298706,-2.786083936691284,0.13876299560070038
1788164385590006500,7.975006591796875,0.8290619850158691,-2.6879279613494873,0.3254089951515198
1788164385600087600,7.985087646484375,1.030029058456421,-2.569751024246216,0.49166399240493774
1788164385610188300,7.995188232421875,1.1276999711990356,-2.43245005607605,0.6155419945716858
1788164385620283600,8.00528369140625,1.004654049873352,-2.1866140365600586,0.5338510274887085
1788164385630374100,8.0153740234375,0.5581099987030029,-1.762647032737732,0.13443399965763092
1788164385640464100,8.025464111328125,0.14955900609493256,-1.3040310144424438,-0.23311899602413177
1788164385650563000,8.03556298828125,-0.03725200146436691,-1.1300469636917114,-0.22914999723434448
1788164385660648700,8.045648681640625,-0.5977849960327148,-1.1054999828338623,-0.10727500170469284
1788164385670739500,8.055739501953125,-1.0417790412902832,-1.3169419765472412,0.19767600297927856
1788164385680824600,8.065824462890625,-0.9330270290374756,-1.4224220514297485,0.39485499262809753
1788164385690923800,8.075923828125,-0.391416996717453,-1.376250982284546,0.4247100055217743
1788164385701007600,8.086007568359374,0.3337959945201874,-1.230239987373352,0.43249401450157166
1788164385711102000,8.09610205078125,1.1193909645080566,-0.9859870076179504,0.34119001030921936
1788164385721193500,8.106193359375,1.715203046798706,-0.7667359709739685,0.3301199972629547
1788164385731285800,8.11628564453125,1.859863042831421,-0.5469520092010498,0.3028450012207031
1788164385741375000,8.126375,1.584285020828247,-0.3929080069065094,0.20257799327373505
1788164385751478800,8.136478759765625,1.1406339406967163,-0.30416399240493774,0.0434500016272068
1788164385761570300,8.1465703125,0.77777498960495,-0.2841840088367462,-0.25348201394081116
1788164385771659000,8.156658935546876,0.5086910128593445,-0.28303399682044983,-0.5384129881858826
1788164385781750000,8.16675,0.2981800138950348,-0.22742299735546112,-0.7088369727134705
1788164385791851300,8.176851318359375,0.13634200394153595,-0.13290800154209137,-0.7747989892959595
1788164385801935000,8.18693505859375,0.02037700079381466,0.001601999974809587,-0.8885719776153564
1788164385812027600,8.197027587890625,-0.03856699913740158,0.08078300207853317,-1.015326976776123
1788164385822116000,8.2071162109375,-0.15762199461460114,0.014302000403404236,-1.0157660245895386
1788164385832205800,8.217205810546876,-0.07662799954414368,-0.13773700594902039,-0.9323740005493164
1788164385842287900,8.227287841796874,0.0669260025024414,-0.17491300404071808,-0.9114890098571777
1788164385852383700,8.2373837890625,0.34535300731658936,-0.10602399706840515,-0.9677140116691589
1788164385862468000,8.247468017578125,0.44719401001930237,-0.0765869989991188,-0.8139449954032898
1788164385872561700,8.257561767578125,0.3776929974555969,-0.0423710010945797,-0.6256710290908813
1788164385882653700,8.26765380859375,0.443448007106781,0.06061200052499771,-0.5258510112762451
1788164385892744000,8.277743896484376,0.14443300664424896,0.055048998445272446,-0.4207859933376312
1788164385902826500,8.287826416015625,-0.07714000344276428,0.026388000696897507,-0.44378700852394104
1788164385912908300,8.297908203125,-0.2945680022239685,-0.1793469935655594,-0.3615170121192932
1788164385922989000,8.307989013671875,-0.5996050238609314,-0.5906450152397156,-0.15289300680160522
1788164385933085700,8.318085693359375,-0.5614420175552368,-1.0467610359191895,-0.09235399961471558
1788164385943169000,8.3281689453125,-0.3762040138244629,-1.37916898727417,-0.13739800453186035
1788164385973434400,8.358434326171874,0.7738789916038513,-1.5837620496749878,-0.003920999821275473
1788164385983517700,8.368517578125,0.7998070120811462,-1.47474205493927,0.17424699664115906
1788164385993608700,8.378608642578126,0.6567220091819763,-1.4488790035247803,0.350149005651474
1788164386003691500,8.38869140625,0.4215250015258789,-1.4467929601669312,0.34546199440956116
1788164386013783800,8.39878369140625,0.2938089966773987,-1.608947992324829,0.486268013715744
1788164386023874300,8.408874267578126,0.3644939959049225,-1.773023009300232,0.48672500252723694
1788164386033969200,8.41896923828125,0.48517200350761414,-1.90562903881073,0.458732008934021
1788164386044059400,8.429059326171876,0.4000900089740753,-2.024791955947876,0.562857985496521
1788164386054153500,8.439153564453125,0.19212399423122406,-2.008363962173462,0.5329959988594055
1788164386064230700,8.449230712890625,0.10032100230455399,-1.9038859605789185,0.5102750062942505
1788164386074323700,8.45932373046875,0.15520599484443665,-1.7099289894104004,0.4604269862174988
1788164386084416300,8.469416259765625,0.11649700254201889,-1.4743000268936157,0.4529159963130951
1788164386094502700,8.479502685546874,0.3891499936580658,-1.2772510051727295,0.4844120144844055
1788164386104593400,8.489593505859375,0.642956018447876,-1.033450961112976,0.3209730088710785
1788164386114680300,8.499680419921875,0.661113977432251,-0.8643239736557007,0.18445700407028198
1788164386124771800,8.509771728515625,0.5287259817123413,-0.7528190016746521,0.1067190021276474
1788164386134866200,8.5198662109375,0.18761500716209412,-0.6547170281410217,0.47322800755500793
1788164386144956400,8.529956298828125,0.300680011510849,-0.5720499753952026,0.037769999355077744
1788164386155048000,8.5400478515625,0.12588199973106384,-0.537909984588623,-0.1702519953250885
1788164386165140000,8.550139892578125,-0.1523600071668625,-0.6012200117111206,-0.1373019963502884
1788164386175218200,8.56021826171875,-0.31737300753593445,-0.7517529726028442,-0.09230899810791016
1788164386185307000,8.570306884765625,-0.2527509927749634,-0.8507580161094666,-0.06315000355243683
1788164386195391200,8.58039111328125,-0.2918359935283661,-0.8225719928741455,-0.0600069984793663
1788164386205476400,8.590476318359375,-0.2560400068759918,-0.8389229774475098,-0.3071410059928894
1788164386215568400,8.600568359375,0.06018500030040741,-1.041275978088379,-0.5660120248794556
1788164386225658600,8.61065869140625,0.5641409754753113,-1.2124680280685425,-0.44834500551223755
1788164386235745800,8.620745849609374,0.9193459749221802,-1.1823389530181885,-0.1058029979467392
1788164386245842000,8.630842041015624,0.8462250232696533,-0.9519690275192261,0.1258309930562973
1788164386255935500,8.640935546875,0.31991100311279297,-0.6938920021057129,0.2360360026359558
1788164386266024200,8.651024169921875,-0.5393819808959961,-0.5615720152854919,0.383419007062912
1788164386276114400,8.661114501953126,-1.1808650493621826,-0.42868998646736145,0.47948798537254333
1788164386286204700,8.67120458984375,-1.3261229991912842,-0.2144560068845749,0.3978019952774048
1788164386296299300,8.68129931640625,-1.426095962524414,-0.061406999826431274,0.2741610109806061
1788164386306386000,8.691385986328125,-1.3479089736938477,-0.10667899996042252,0.03417700156569481
1788164386316476700,8.7014765625,-0.6403560042381287,0.049407001584768295,0.19375599920749664
1788164386326571300,8.7115712890625,-0.08956500142812729,0.28850001096725464,0.3842960000038147
1788164386336662300,8.721662353515624,0.3987550139427185,0.5806390047073364,0.38847801089286804
1788164386346759200,8.73175927734375,0.5673050284385681,0.6519129872322083,0.2765609920024872
1788164386356851200,8.741851318359375,0.2485789954662323,0.44503098726272583,-0.07868299633264542
1788164386366950100,8.7519501953125,-0.6039080023765564,-0.07272399961948395,-0.14001600444316864
1788164386377041200,8.762041259765626,-1.0667359828948975,-0.2256460040807724,0.25838199257850647
1788164386387161600,8.77216162109375,-0.6783930063247681,-0.277675986289978,0.7303060293197632
1788164386397262600,8.7822626953125,-0.2985920011997223,-0.4383839964866638,0.9382420182228088
1788164386407351600,8.7923515625,-0.18361200392246246,-0.6771500110626221,0.9625300168991089
1788164386417437000,8.80243701171875,-0.04500700160861015,-0.6729350090026855,0.9463819861412048
1788164386427528200,8.812528076171875,0.3507919907569885,-0.43196600675582886,1.017765998840332
1788164386437613800,8.82261376953125,0.445701003074646,-0.34972599148750305,1.0858629941940308
1788164386447705600,8.83270556640625,0.29783201217651367,-0.44735899567604065,1.1097569465637207
1788164386457788400,8.842788330078125,0.025175999850034714,-0.7102149724960327,0.9964069724082947
1788164386467880200,8.852880126953124,-0.27320200204849243,-0.9880409836769104,0.6471959948539734
1788164386477974300,8.862974365234376,-0.5983309745788574,-1.2962969541549683,0.26857200264930725
1788164386488069000,8.873069091796875,-0.753250002861023,-1.4710489511489868,-0.1187790036201477
1788164386498156300,8.88315625,-0.762162983417511,-1.6625529527664185,-0.44050800800323486
1788164386508257800,8.8932578125,-1.0121569633483887,-1.838865041732788,-0.6959779858589172
1788164386518339800,8.90333984375,-0.7999629974365234,-2.0192840099334717,-0.8042370080947876
1788164386528437200,8.913437255859375,-0.27354300022125244,-1.9961179494857788,-0.8391669988632202
1788164386538528500,8.923528564453125,-0.0019249999895691872,-1.9002020359039307,-0.9307600259780884
1788164386548616700,8.93361669921875,0.07626699656248093,-1.6753339767456055,-0.9506199955940247
1788164386558701600,8.94370166015625,0.43084800243377686,-1.2420350313186646,-0.7355459928512573
1788164386568794600,8.953794677734376,0.9045150279998779,-0.7881489992141724,-0.3260450065135956
1788164386578880300,8.96388037109375,0.6146720051765442,-0.4920539855957031,-0.04416099935770035
1788164386588972800,8.973972900390624,0.5905629992485046,-0.0653349980711937,0.17703600227832794
1788164386599053800,8.9840537109375,1.0657049417495728,0.5458379983901978,0.2728720009326935
1788164386609148700,8.994148681640626,1.5692460536956787,1.20625901222229,0.3534649908542633
1788164386619244000,9.004244140625,1.915418028831482,1.7479820251464844,0.45407700538635254
1788164386629341200,9.014341064453125,2.181766986846924,2.2514829635620117,0.6898980140686035
1788164386639433500,9.02443359375,2.164813995361328,2.6976940631866455,0.7460110187530518
1788164386649529600,9.034529541015624,1.919442057609558,3.2014191150665283,0.502947986125946
1788164386659622400,9.044622314453125,1.7442009449005127,3.634361982345581,0.3179050087928772
1788164386669722400,9.054722412109374,1.7037559747695923,3.936199903488159,-0.022895000874996185
1788164386679814700,9.064814697265625,1.7294789552688599,4.100375175476074,-0.40511998534202576
1788164386689900300,9.074900390625,1.7981059551239014,4.300436973571777,-0.3639189898967743
1788164386699992300,9.084992431640625,1.5702149868011475,4.398877143859863,-0.08758199959993362
1788164386710074000,9.09507421875,1.1504149436950684,4.5644612312316895,0.2781580090522766
1788164386720160800,9.105160888671875,0.6808410286903381,4.806116104125977,0.379628986120224
1788164386730256000,9.115255859375,0.41744500398635864,5.182707786560059,0.10627099871635437
1788164386740340200,9.12534033203125,0.416922003030777,5.3724541664123535,-0.37048399448394775
1788164386750430700,9.1354306640625,0.7033209800720215,5.6511077880859375,-0.9045379757881165
1788164386760528000,9.14552783203125,1.0274100303649902,6.008081912994385,-0.9147390127182007
1788164386770621400,9.155621337890626,1.064555048942566,6.118391036987305,-0.38343799114227295
1788164386780714000,9.1657138671875,0.9327899813652039,5.960218906402588,-0.020593000575900078
1788164386790810400,9.175810302734375,0.39672398567199707,5.751223087310791,-0.11756700277328491
1788164386800905000,9.185905029296874,-1.285770058631897,5.3925700187683105,-0.5849729776382446
1788164386811000300,9.196000244140626,-3.3667709827423096,4.8387980461120605,-1.1134159564971924
1788164386821094700,9.2060947265625,-4.305088043212891,4.030675888061523,-1.2987569570541382
1788164386831189500,9.216189453125,-4.143365859985352,3.088538885116577,-1.3433359861373901
1788164386841280800,9.22628076171875,-3.540592908859253,1.7938660383224487,-1.0891549587249756
1788164386851376000,9.236376220703125,-2.457566976547241,0.5178130269050598,-0.9870929718017578
1788164386861471200,9.24647119140625,-1.9444899559020996,-0.6287819743156433,-1.1336480379104614
1788164386871565000,9.25656494140625,-1.9790769815444946,-2.0438480377197266,-1.260517954826355
1788164386881662000,9.266661865234376,-1.648131012916565,-3.5494139194488525,-1.6299209594726562
1788164386891755500,9.276755615234375,-0.9439600110054016,-4.810619831085205,-1.402197003364563
1788164386901853400,9.286853515625,-0.6583560109138489,-5.989626884460449,-0.9164630174636841
1788164386911942100,9.296942138671875,-1.1512409448623657,-7.1614670753479,0.20386700332164764
1788164386922053000,9.30705322265625,-2.042465925216675,-8.166780471801758,1.3580859899520874
1788164386932134400,9.317134521484375,-2.510772943496704,-8.619997024536133,2.230560064315796
1788164386942223600,9.3272236328125,-2.92940092086792,-8.133345603942871,2.768044948577881
1788164386952317000,9.33731689453125,-2.7664260864257812,-6.408360004425049,2.646591901779175
1788164386962405600,9.347405517578125,-1.7286649942398071,-4.792302131652832,2.1888949871063232
1788164386972522500,9.3575224609375,-0.20582999289035797,-3.4692718982696533,1.694620966911316
1788164386982610700,9.367610595703125,0.9303920269012451,-2.3063089847564697,1.232606053352356
1788164386992693800,9.37769384765625,1.4059840440750122,-1.2733210325241089,0.8233919739723206
1788164387002778600,9.387778564453125,1.2394109964370728,-0.43483299016952515,0.5367109775543213
1788164387012872000,9.397871826171874,0.7060580253601074,0.3825789988040924,0.3725929856300354
1788164387022981600,9.407981689453125,0.2595050036907196,1.1856540441513062,0.2159550040960312
1788164387033076500,9.418076416015625,-0.19277499616146088,1.9791829586029053,0.08050300180912018
1788164387043161900,9.428161865234374,-0.5864719748497009,2.622493028640747,-0.07477500289678574
1788164387053253400,9.43825341796875,-0.4154430031776428,3.216092109680176,-0.35230401158332825
1788164387063341000,9.448341064453125,0.0389459989964962,3.6438770294189453,-0.658972978591919
1788164387073426000,9.458426025390626,0.14893299341201782,3.85009503364563,-0.7774839997291565
1788164387083512600,9.4685126953125,0.5513920187950134,3.974302053451538,-0.8054649829864502
1788164387093604900,9.47860498046875,1.132411003112793,4.028940200805664,-0.7175520062446594
1788164387103690500,9.4886904296875,1.2064659595489502,3.9501640796661377,-0.3328559994697571
1788164387113783300,9.498783203125,0.8332309722900391,3.631956100463867,0.12718799710273743
1788164387123878700,9.508878662109375,0.3516879975795746,3.3856940269470215,0.6531199812889099
1788164387133969400,9.518969482421875,-0.5082600116729736,3.233052968978882,0.859620988368988
1788164387144065800,9.529065673828125,-1.6970139741897583,3.020479917526245,0.5114759802818298
1788164387154152200,9.539152099609375,-2.03315806388855,2.6479380130767822,-0.3620060086250305
1788164387164249000,9.5492490234375,-2.0145599842071533,2.305896043777466,-1.0733449459075928
1788164387174342700,9.5593427734375,-1.774306058883667,1.913233995437622,-1.5324039459228516
1788164387184441900,9.56944189453125,-1.6449329853057861,1.5764659643173218,-1.5169769525527954
1788164387194528000,9.579528076171876,-2.3380661010742188,1.4043259620666504,-1.3139159679412842
1788164387204626200,9.589626220703124,-3.578010082244873,1.2412919998168945,-1.1852329969406128
1788164387214715100,9.599715087890624,-5.119809150695801,0.9581149816513062,-1.3453450202941895
1788164387224801800,9.6098017578125,-6.455700874328613,0.4611720144748688,-1.9125349521636963
1788164387234896000,9.619895751953125,-6.623163223266602,-0.36229199171066284,-2.901216983795166
1788164387244981500,9.6299814453125,-4.676261901855469,-1.1534390449523926,-3.8319499492645264
1788164387255062800,9.640062744140625,-1.1176190376281738,-2.1813130378723145,-3.9448599815368652
1788164387265154600,9.650154541015626,2.8289310932159424,-3.488495111465454,-3.4125499725341797
1788164387275249000,9.660248779296875,5.86843204498291,-5.226534843444824,-2.8005928993225098
1788164387285341400,9.670341552734374,7.501723766326904,-6.7201972007751465,-1.8668320178985596
1788164387295435000,9.68043505859375,6.70707893371582,-8.14709758758545,-0.6029189825057983
1788164387305527600,9.690527587890625,3.481632947921753,-8.329163551330566,0.4795700013637543
1788164387315613000,9.700613037109376,0.4715850055217743,-7.186647891998291,0.999098002910614
1788164387325708800,9.710708740234375,-0.23471599817276,-5.923670768737793,1.0590139627456665
1788164387335791600,9.72079150390625,0.6318529844284058,-4.384263038635254,1.3293609619140625
1788164387345887500,9.730887451171874,2.209721088409424,-2.3716440200805664,1.8231350183486938
1788164387355982300,9.740982421875,3.2957661151885986,-0.8492940068244934,2.113898992538452
1788164387366078000,9.751077880859375,3.8742868900299072,0.352293998003006,2.111119031906128
1788164387376166700,9.761166748046875,4.185816764831543,1.1004630327224731,1.9388669729232788
1788164387386268000,9.771267822265624,4.581562042236328,1.5721319913864136,1.9479860067367554
1788164387396347600,9.78134765625,5.052980899810791,1.9648300409317017,2.1228749752044678
1788164387406444500,9.791444580078124,5.594315052032471,2.325263023376465,2.5161499977111816
1788164387416532200,9.8015322265625,6.004458904266357,2.553299903869629,2.6228079795837402
1788164387426629400,9.81162939453125,6.094183921813965,2.834192991256714,1.8873889446258545
1788164387436718600,9.821718505859375,6.186758995056152,3.374439001083374,0.6505119800567627
1788164387446820400,9.8318203125,6.639019966125488,3.848257064819336,-0.6227750182151794
1788164387456905200,9.8419052734375,7.566140174865723,4.138014793395996,-1.3983949422836304
1788164387467010600,9.852010498046875,8.428545951843262,4.014799118041992,-1.596261978149414
1788164387477105000,9.86210498046875,9.016953468322754,3.5116710662841797,-1.3810069561004639
1788164387487201800,9.872201904296874,8.692634582519531,2.5667290687561035,-0.8634399771690369
1788164387497285400,9.882285400390625,6.5365800857543945,1.2442699670791626,-0.8825479745864868
1788164387507379200,9.892379150390624,1.1927599906921387,0.13526499271392822,-1.0953210592269897
1788164387517463800,9.9024638671875,-7.523502826690674,-1.2568440437316895,1.4096490144729614
1788164387527554000,9.912553955078126,-14.160764694213867,-2.6268019676208496,6.684393882751465
1788164387537648400,9.9226484375,-16.230873107910156,-1.744555950164795,10.868354797363281
1788164387547746300,9.932746337890626,-18.424102783203125,2.9213099479675293,11.37513542175293
1788164387557834800,9.942834716796876,-16.465625762939453,7.701898097991943,13.367270469665527
1788164387567923700,9.952923828125,-9.314737319946289,9.430915832519531,11.716347694396973
1788164387578009900,9.963009765625,1.0320589542388916,7.790345191955566,8.790851593017578
1788164387588109600,9.973109619140626,6.28843879699707,6.600214004516602,5.521622180938721
1788164387598201000,9.983201171875,4.7606730461120605,5.4170451164245605,1.3521779775619507
1788164387608294700,9.993294677734376,-3.537264108657837,5.261683940887451,-4.799264907836914
1788164387618382300,10.00338232421875,-19.051250457763672,3.606674909591675,-13.004402160644531
1788164387628479700,10.013479736328126,-28.837383270263672,-1.5712870359420776,-15.737853050231934
1788164387638564000,10.023564208984375,-15.382890701293945,-7.443647861480713,-12.508787155151367
1788164387648662500,10.03366259765625,0.26660600304603577,-8.99637508392334,-9.995157241821289
1788164387658728700,10.043728759765624,6.4632887840271,-9.694086074829102,-7.239016056060791
1788164387668805600,10.0538056640625,4.411922931671143,-9.309555053710938,-5.835039138793945
1788164387678871300,10.063871337890625,-0.5011159777641296,-7.204913139343262,-5.177627086639404
1788164387688943900,10.07394384765625,-1.4986979961395264,-5.515752792358398,-2.1343750953674316
1788164387699015000,10.084014892578125,-0.4635950028896332,-4.215356826782227,1.5728269815444946
1788164387709085700,10.094085693359375,0.4681130051612854,-2.535496950149536,3.6786139011383057
1788164387719152000,10.104152099609376,0.9732019901275635,-0.9249269962310791,5.03733491897583
1788164387729220900,10.114220947265625,1.7851059436798096,0.6109279990196228,4.709566116333008
1788164387739292400,10.12429248046875,1.881343960762024,1.139186978340149,3.6586859226226807
1788164387749364000,10.134364013671876,1.5249290466308594,1.487625002861023,1.8174599409103394
1788164387759431400,10.144431396484375,2.0512421131134033,0.8777999877929688,-0.13660399615764618
1788164387769504000,10.15450390625,2.4811599254608154,-0.253805011510849,-1.1985299587249756
1788164387779574800,10.16457470703125,2.4602138996124268,-1.1682209968566895,-1.4390490055084229
1788164387789651700,10.174651611328125,2.223043918609619,-1.5414810180664062,-1.2348990440368652
1788164387799717600,10.184717529296876,2.3224990367889404,-1.080875039100647,-1.0065770149230957
1788164387809788000,10.194787841796876,2.3914129734039307,-0.3619129955768585,-0.59381502866745
1788164387819859000,10.20485888671875,2.5719211101531982,0.20676399767398834,0.441101998090744
1788164387829933000,10.21493310546875,2.9802870750427246,0.5078409910202026,1.5271610021591187
1788164387840013300,10.225013427734375,2.8172380924224854,0.5997939705848694,2.162121057510376
1788164387850093600,10.235093505859375,1.9342650175094604,0.9051740169525146,1.677520990371704
1788164387860158000,10.245157958984375,1.5413509607315063,1.5005780458450317,0.97564297914505
1788164387870232600,10.255232666015624,1.4860639572143555,2.1566050052642822,0.5407099723815918
1788164387880305700,10.2653056640625,1.9410769939422607,2.8289990425109863,0.8902220129966736
1788164387890376700,10.275376708984375,2.1709299087524414,3.3128199577331543,1.3921689987182617
1788164387900446700,10.28544677734375,2.3152999877929688,2.948457956314087,1.828423023223877
1788164387910522400,10.2955224609375,2.97406005859375,2.19643497467041,2.316309928894043
1788164387920601000,10.30560107421875,2.5236189365386963,1.904873013496399,2.3249800205230713
1788164387930678300,10.31567822265625,1.2920299768447876,1.6795710325241089,1.977763056755066
1788164387940756000,10.325755859375,0.6843360066413879,1.6028850078582764,1.095546007156372
1788164387950839600,10.335839599609375,1.3329869508743286,1.4373879432678223,0.12000499665737152
1788164387960909300,10.345909423828125,1.792464017868042,0.8196799755096436,-0.189193993806839
1788164387970999800,10.355999755859376,1.8387559652328491,0.5484369993209839,-0.3036069869995117
1788164387981070800,10.36607080078125,1.5215940475463867,0.9609509706497192,-0.4730679988861084
1788164387991138600,10.376138671875,0.7164279818534851,0.72707200050354,0.34291699528694153
1788164388001202700,10.38620263671875,0.7157859802246094,0.7989220023155212,0.5498039722442627
1788164388011276800,10.39627685546875,1.3568079471588135,0.5883849859237671,1.0668660402297974
1788164388021355500,10.40635546875,1.514701008796692,0.6003170013427734,1.1824220418930054
1788164388031439000,10.416439208984375,1.0711270570755005,0.564316987991333,0.8912190198898315
1788164388041508600,10.426508544921875,-0.03852900117635727,0.44800201058387756,0.7467700242996216
1788164388051589600,10.436589599609375,-1.0432720184326172,0.8250060081481934,0.4192749857902527
1788164388061656800,10.44665673828125,-0.7800940275192261,1.1049669981002808,0.08235800266265869
1788164388071733200,10.456733154296876,0.5456179976463318,0.525206983089447,0.11352899670600891
1788164388081806300,10.466806396484374,2.062498092651367,0.22837500274181366,0.03702700138092041
1788164388091897600,10.476897705078125,3.563525915145874,0.0064409999176859856,-0.10533100366592407
1788164388101962500,10.48696240234375,4.706859111785889,-0.11564899981021881,-0.22625400125980377
1788164388112037600,10.49703759765625,5.279669761657715,-0.021730000153183937,0.20444999635219574
1788164388122110500,10.5071103515625,5.577057838439941,0.5741279721260071,0.6504700183868408
1788164388132178000,10.517177978515624,5.388560771942139,0.9622989892959595,1.1000310182571411
1788164388142242300,10.5272421875,4.191644191741943,0.7586680054664612,1.7451430559158325
1788164388152326100,10.537326171875,1.3330930471420288,0.5723009705543518,2.7226779460906982
1788164388162391600,10.5473916015625,-2.3833799362182617,0.6795420050621033,3.0787301063537598
1788164388172461300,10.55746142578125,-6.464837074279785,1.0020990371704102,1.197206974029541
1788164388182531000,10.567531005859376,-8.35735034942627,1.0220309495925903,-2.078627109527588
1788164388192609800,10.57760986328125,-7.823628902435303,0.5122720003128052,-4.415649890899658
1788164388202677000,10.587677001953125,-6.10158109664917,0.16446000337600708,-5.545935153961182
1788164388212751000,10.597751220703126,-5.002573013305664,-0.02973400056362152,-5.396203994750977
1788164388222827000,10.607826904296875,-4.2442498207092285,0.25809401273727417,-4.1015238761901855
1788164388232895700,10.617895751953125,-2.4348690509796143,1.3668630123138428,-3.073517084121704
1788164388242953500,10.627953369140625,0.20716500282287598,2.368751049041748,-2.4954841136932373
1788164388253020400,10.6380205078125,2.3135769367218018,2.110351085662842,-1.5040889978408813
1788164388263092500,10.648092529296875,3.664107084274292,1.5745199918746948,-0.6984890103340149
1788164388273182200,10.65818212890625,4.581992149353027,1.1133519411087036,-0.5699570178985596
1788164388283256000,10.668256103515626,4.897213935852051,0.5446069836616516,0.09061899781227112
1788164388293340400,10.67834033203125,4.1994547843933105,-0.07297199964523315,0.826187014579773
1788164388303412500,10.68841259765625,2.7461578845977783,-0.5078439712524414,0.8578979969024658
1788164388313491000,10.698490966796875,1.1285879611968994,-1.0061060190200806,0.9126549959182739
1788164388323565600,10.708565673828126,-0.31139200925827026,-1.2213820219039917,1.3199089765548706
1788164388333640000,10.718639892578125,-1.2480789422988892,-0.8547369837760925,1.1332770586013794
1788164388343710000,10.7287099609375,-1.380087971687317,-0.20143799483776093,0.7184860110282898
1788164388353790500,10.73879052734375,-1.303514003753662,0.8170390129089355,0.47542500495910645
1788164388363869200,10.748869140625,-1.2084619998931885,1.9997249841690063,0.3390440046787262
1788164388373950200,10.7589501953125,-0.9653850197792053,2.611588954925537,0.30011600255966187
1788164388384024000,10.769024169921876,-0.9818639755249023,2.85221004486084,0.34242498874664307
1788164388394098400,10.779098388671875,-1.1778390407562256,2.991297960281372,0.3351860046386719
1788164388404174600,10.789174560546876,-0.9987239837646484,2.977497100830078,0.05296500027179718
1788164388414250200,10.799250244140625,-0.8237869739532471,2.5957419872283936,0.07744500041007996
1788164388424321800,10.80932177734375,-0.71567702293396,2.1863369941711426,0.27547401189804077
1788164388434391600,10.8193916015625,-0.46682998538017273,1.6557329893112183,0.33632099628448486
1788164388444462300,10.82946240234375,-0.29643699526786804,0.9389809966087341,0.6813840270042419
1788164388454538200,10.839538330078126,-0.2608180046081543,0.4315440058708191,0.9513180255889893
1788164388464619500,10.84961962890625,-0.10030700266361237,0.2537679970264435,1.009431004524231
1788164388474688800,10.859688720703126,0.08853500336408615,0.17649200558662415,0.5545179843902588
1788164388484767000,10.86976708984375,-0.04502300173044205,-0.1144620031118393,0.8761540055274963
1788164388494838300,10.87983837890625,-0.6003410220146179,-0.2665709853172302,1.2724800109863281
1788164388504914000,10.889913818359375,-0.9091870188713074,-0.07305099815130234,0.9362750053405762
1788164388514987300,10.8999873046875,-1.4745080471038818,0.016597000882029533,1.1244679689407349
1788164388525066000,10.91006591796875,-2.2690370082855225,0.35639700293540955,1.2969980239868164
1788164388535138300,10.92013818359375,-2.1598689556121826,0.9185979962348938,0.8876439929008484
1788164388545217300,10.93021728515625,-1.2675420045852661,1.1266720294952393,1.1444380283355713
1788164388555283200,10.940283203125,-0.5525509715080261,1.292991042137146,1.4316999912261963
1788164388565350100,10.95035009765625,-0.14558200538158417,1.178380012512207,1.4551730155944824
1788164388575421000,10.9604208984375,0.16988499462604523,0.7642459869384766,1.4829260110855103
1788164388585487600,10.970487548828125,0.3474549949169159,0.4501509964466095,1.5420470237731934
1788164388595564300,10.980564208984376,0.7119290232658386,0.48618200421333313,1.2600070238113403
1788164388605633000,10.990633056640625,0.7426789999008179,0.3879759907722473,1.099390983581543
1788164388615708700,11.000708740234375,0.13424399495124817,0.49148499965667725,0.7863559722900391
1788164388625787400,11.010787353515624,-0.30677101016044617,0.7535279989242554,0.508787989616394
1788164388635858000,11.02085791015625,-0.43522000312805176,0.632532000541687,0.1513420045375824
1788164388645936600,11.0309365234375,-0.4807330071926117,0.46970000863075256,0.1233609989285469
1788164388656008200,11.04100830078125,-0.4217430055141449,0.6343479752540588,0.15740999579429626
1788164388666087200,11.051087158203124,0.16570700705051422,0.459073007106781,0.11053299903869629
1788164388676171500,11.061171630859375,0.7006940245628357,-0.1609410047531128,0.6138269901275635
1788164388686243300,11.071243408203125,0.6474180221557617,-0.34214499592781067,0.6960489749908447
1788164388696318000,11.08131787109375,1.1060980558395386,-0.2342430055141449,0.1685360074043274
1788164388706388700,11.091388671875,1.6296709775924683,-0.37938201427459717,0.6963499784469604
1788164388716459300,11.101459228515624,1.5072269439697266,-0.024593999609351158,0.7776029706001282
1788164388726527700,11.11152783203125,1.6791499853134155,0.533282995223999,0.3747340142726898
1788164388736594700,11.1215947265625,2.0376930236816406,0.850163996219635,0.49049100279808044
1788164388746668500,11.13166845703125,1.726902961730957,1.0650520324707031,0.6902949810028076
1788164388756739800,11.14173974609375,1.1719199419021606,1.2409950494766235,0.8220319747924805
1788164388766817300,11.1518173828125,0.7083479762077332,1.324995994567871,0.9362339973449707
1788164388776895700,11.161895751953125,0.23734399676322937,1.4249860048294067,1.002271056175232
1788164388786983400,11.1719833984375,-0.08748999983072281,1.6509289741516113,0.7597439885139465
1788164388797054700,11.1820546875,-0.0876849964261055,1.790789008140564,0.26700499653816223
1788164388807130600,11.192130615234374,0.2634289860725403,1.904937982559204,0.07440699636936188
1788164388817201400,11.202201416015624,0.6685910224914551,2.045396089553833,-0.2292270064353943
1788164388827267000,11.21226708984375,1.138334035873413,2.2287991046905518,-0.5468590259552002
1788164388837336000,11.222336181640625,1.151453971862793,2.0713889598846436,-0.05886999890208244
1788164388847404300,11.232404296875,0.06740400195121765,2.1225409507751465,0.538424015045166
1788164388857468700,11.24246875,-1.2939939498901367,2.071397066116333,0.5883229970932007
1788164388867546600,11.252546630859374,-2.9661359786987305,2.126789093017578,0.4671410024166107
1788164388877610000,11.26260986328125,-4.428865909576416,2.19930100440979,0.015436000190675259
1788164388887678700,11.2726787109375,-3.9208550453186035,2.3167049884796143,-0.8773329854011536
1788164388897747000,11.282746826171875,-2.1000120639801025,2.5806689262390137,-1.2323969602584839
1788164388907821000,11.292821044921874,-0.1352519989013672,2.702756881713867,-1.083927035331726
1788164388917886000,11.302885986328125,1.4429670572280884,2.692286968231201,-1.1845250129699707
1788164388927955000,11.312954833984374,1.738347053527832,2.301295042037964,-0.8031389713287354
1788164388938020000,11.32302001953125,1.2403830289840698,1.7120749950408936,-0.18591099977493286
1788164388948095000,11.333094970703126,0.635765016078949,1.5127370357513428,-0.26505500078201294
1788164388958155000,11.343155029296875,-0.11477500200271606,1.0160479545593262,0.5164080262184143
1788164388968227000,11.35322705078125,-1.044988989830017,0.6729819774627686,1.1939380168914795
1788164388978294300,11.363294189453125,-1.2605030536651611,0.8992940187454224,1.2217799425125122
1788164388988365600,11.373365478515625,-1.3517940044403076,1.6472829580307007,1.2453420162200928
1788164388998424600,11.383424560546874,-1.5608839988708496,2.24639892578125,0.41159600019454956
1788164389008495000,11.3934951171875,-1.8375170230865479,2.348992109298706,-0.7349200248718262
1788164389018552800,11.403552734375,-1.3236759901046753,1.944025993347168,-1.3507020473480225
1788164389028621300,11.413621337890625,0.08644100278615952,1.225836992263794,-1.1478320360183716
1788164389038681900,11.423681884765625,1.5326570272445679,0.6207380294799805,-1.0131809711456299
1788164389048751400,11.43375146484375,2.329216957092285,0.2709659934043884,-0.6355760097503662
1788164389058816500,11.44381640625,1.770372986793518,0.36196601390838623,0.11667799949645996
1788164389068885800,11.4538857421875,0.9464730024337769,0.5808860063552856,0.6214420199394226
1788164389078951700,11.46395166015625,0.2676889896392822,0.6525310277938843,0.613165020942688
1788164389089022700,11.474022705078125,-0.03921300172805786,0.8928409814834595,0.21605299413204193
1788164389099086600,11.484086669921876,0.28668299317359924,1.2786020040512085,-0.46001100540161133
1788164389109164800,11.494164794921875,0.7941150069236755,1.2583190202713013,-0.9805030226707458
1788164389119230200,11.504230224609374,1.0629550218582153,0.9661070108413696,-0.7702230215072632
1788164389129301000,11.514301025390624,0.9835469722747803,0.7150999903678894,-0.4641140103340149
1788164389139360800,11.52436083984375,0.7014600038528442,0.521589994430542,-0.1514810025691986
1788164389149436400,11.5344365234375,0.0007340000011026859,0.46362200379371643,0.4991540014743805
1788164389159500500,11.54450048828125,-0.6835989952087402,0.5750979781150818,0.8627520203590393
1788164389169567200,11.554567138671874,-1.0451420545578003,0.877062976360321,0.8216710090637207
1788164389179637200,11.56463720703125,-1.0892159938812256,1.622372031211853,0.4663650095462799
1788164389189706500,11.57470654296875,-0.6280549764633179,2.5151419639587402,0.061337001621723175
1788164389199780000,11.584780029296875,-0.061430998146533966,3.1300599575042725,-0.19998699426651
1788164389209857000,11.59485693359375,-0.23843300342559814,3.6335361003875732,-0.543815016746521
1788164389219927800,11.604927734375,-0.6528480052947998,3.7239959239959717,-0.5081539750099182
1788164389229997000,11.6149970703125,-1.0527340173721313,3.24719500541687,-0.5945500135421753
1788164389240069000,11.625069091796876,-1.5947070121765137,2.2163100242614746,-0.7896490097045898
1788164389250139100,11.63513916015625,-1.008221983909607,1.09683096408844,-0.9741700291633606
1788164389260214000,11.645214111328125,0.42491400241851807,0.3803659975528717,-1.1612579822540283
1788164389270282500,11.655282470703124,1.8770099878311157,0.2604849934577942,-1.213649034500122
1788164389280353000,11.66535302734375,2.368911027908325,0.5177940130233765,-0.8023989796638489
1788164389290423300,11.67542333984375,1.790490984916687,0.9352390170097351,-0.3986870050430298
1788164389300502500,11.68550244140625,0.10657099634408951,0.961558997631073,0.17553099989891052
1788164389310568700,11.695568603515625,-1.7566859722137451,0.6215680241584778,0.7215679883956909
1788164389320641000,11.70564111328125,-1.8693640232086182,0.1855420023202896,1.044100046157837
1788164389330698200,11.7156982421875,-0.6606400012969971,0.17345300316810608,0.6056879758834839
1788164389340774700,11.725774658203125,0.559552013874054,0.5094919800758362,0.42733100056648254
1788164389350839300,11.73583935546875,1.5480480194091797,0.6873630285263062,0.4574579894542694
1788164389360910000,11.74591015625,1.67535400390625,0.5786290168762207,0.14203499257564545
1788164389370974000,11.755973876953124,0.9710649847984314,0.4037820100784302,-0.07523299753665924
1788164389381050400,11.76605029296875,0.4139940142631531,0.0961339995265007,0.06797999888658524
1788164389391112700,11.77611279296875,0.18834899365901947,-0.2369839996099472,0.339682012796402
1788164389401179600,11.7861796875,0.09149300307035446,-0.43805500864982605,0.47775799036026
1788164389411241700,11.79624169921875,0.20604799687862396,-0.14125199615955353,0.3266499936580658
1788164389421314800,11.806314697265625,-0.12074299901723862,0.5650950074195862,0.05400000140070915
1788164389431384800,11.816384765625,-0.9541230201721191,1.4885629415512085,0.21674500405788422
1788164389441448700,11.82644873046875,-1.8574730157852173,2.2309200763702393,0.5060369968414307
1788164389451529200,11.836529296875,-2.6500909328460693,2.7576680183410645,0.3071669936180115
1788164389461594600,11.8465947265625,-2.820578098297119,2.6552960872650146,0.15341100096702576
1788164389471659300,11.8566591796875,-2.07731294631958,2.004714012145996,-0.2970060110092163
1788164389481728800,11.866728759765625,-0.5443739891052246,1.414607048034668,-0.8358780145645142
1788164389491797000,11.876796875,1.187487006187439,1.1388119459152222,-1.161296010017395
1788164389501863200,11.88686328125,2.4190289974212646,0.9829009771347046,-1.3409860134124756
1788164389511936300,11.896936279296876,2.883641004562378,0.576291024684906,-1.3126180171966553
1788164389522012200,11.90701220703125,2.8615989685058594,0.02013299986720085,-0.8638420104980469
1788164389532088600,11.917088623046874,2.493130922317505,-0.3954940140247345,-0.4100100100040436
1788164389542157000,11.927156982421875,1.6184649467468262,-0.5042939782142639,0.10471999645233154
1788164389552227000,11.93722705078125,0.1727609932422638,-0.3189679980278015,0.5062500238418579
1788164389562291700,11.947291748046876,-1.6001269817352295,0.09907300025224686,0.7533929944038391
1788164389572358700,11.957358642578125,-3.3640658855438232,0.6503880023956299,0.7482699751853943
1788164389582429000,11.967428955078125,-4.55922794342041,1.330551028251648,0.16696099936962128
1788164389592508000,11.9775078125,-4.117591857910156,2.149717092514038,-0.8719409704208374
1788164389602600200,11.98760009765625,-2.4301950931549072,2.7602779865264893,-1.6970340013504028
1788164389612666400,11.997666259765625,-0.5047270059585571,2.7252089977264404,-2.0522658824920654
1788164389622740500,12.007740478515625,1.3827979564666748,2.185818910598755,-1.8068909645080566
1788164389632810200,12.017810302734375,2.3769760131835938,1.4160710573196411,-1.4154659509658813
1788164389642883300,12.02788330078125,2.715728998184204,1.0983740091323853,-0.811040997505188
1788164389652947500,12.037947509765624,2.057370901107788,0.5665910243988037,-0.3301829993724823
1788164389663006000,12.048005859375,1.12751305103302,0.38555899262428284,0.4372139871120453
1788164389673077000,12.058076904296875,-0.5806589722633362,0.9593949913978577,0.7336840033531189
1788164389683148000,12.06814794921875,-2.2038660049438477,1.4177809953689575,0.41373300552368164
1788164389693215500,12.078215576171875,-2.3955910205841064,1.5678009986877441,-0.30792000889778137
1788164389703284700,12.08828466796875,-1.5337539911270142,1.796368956565857,-1.0550589561462402
1788164389713361700,12.098361572265626,-0.11763899773359299,1.703909993171692,-1.1469030380249023
1788164389723431700,12.108431640625,1.0221079587936401,1.2561399936676025,-0.9723820090293884
1788164389733505000,12.118505126953124,1.351093053817749,0.8840019702911377,-0.881430983543396
1788164389743562800,12.128562744140625,0.577813982963562,-0.1225380003452301,-0.6874430179595947
1788164389753636400,12.13863623046875,0.2019210010766983,-1.0604469776153564,-0.4671970009803772
1788164389763701000,12.148700927734374,-0.2852169871330261,-1.347825050354004,-0.1870640069246292
1788164389773771000,12.15877099609375,-0.8215450048446655,-0.6484090089797974,-0.0762839987874031
1788164389783841800,12.168841796875,-0.9375100135803223,0.3099989891052246,-0.02900799922645092
1788164389793914000,12.1789140625,-0.9711899757385254,1.1726980209350586,-0.00774300005286932
1788164389803985200,12.188985107421875,-0.9140440225601196,1.7050479650497437,-0.3592129945755005
1788164389814057500,12.199057373046875,-0.503296971321106,1.4132219552993774,-0.3900560140609741
1788164389824137700,12.2091376953125,0.028031999245285988,0.9565939903259277,-0.28177300095558167
1788164389834215000,12.21921484375,0.2676520049571991,0.594290018081665,-0.4318679869174957
1788164389844290600,12.22929052734375,0.2928589880466461,0.18606999516487122,-0.46640700101852417
1788164389854367700,12.23936767578125,0.4527060091495514,-0.08702699840068817,-0.39101600646972656
1788164389864452000,12.2494521484375,0.8167330026626587,-0.046115998178720474,-0.6734660267829895
1788164389874531800,12.25953173828125,1.309512972831726,0.26500600576400757,-0.8274340033531189
1788164389884602600,12.2696025390625,1.4532500505447388,0.6285949945449829,-0.6766830086708069
1788164389894680600,12.2796806640625,1.0152169466018677,0.750236988067627,-0.2019750028848648
1788164389904756700,12.2897568359375,0.008918000385165215,0.6704559922218323,-0.14309200644493103
1788164389914824400,12.299824462890625,-0.6531599760055542,0.5289980173110962,-0.28678300976753235
1788164389924897000,12.30989697265625,-0.3809430003166199,0.3812829852104187,-0.48693200945854187
1788164389934967800,12.3199677734375,0.39792600274086,0.4717479944229126,-1.1346540451049805
1788164389945042700,12.330042724609376,1.7681610584259033,0.7434489727020264,-1.3981080055236816
1788164389955116800,12.34011669921875,3.127578020095825,1.0364329814910889,-1.0349220037460327
1788164389965193500,12.350193359375,3.3177289962768555,1.3190950155258179,-0.6695510149002075
1788164389975276000,12.360276123046875,2.4679388999938965,1.3578499555587769,-0.20762500166893005
1788164389985348000,12.37034814453125,0.48682901263237,1.017976999282837,0.22434599697589874
1788164389995426300,12.38042626953125,-2.7799489498138428,0.2885349988937378,0.7342190146446228
1788164390005505300,12.39050537109375,-5.66183614730835,0.2967279851436615,0.47046801447868347
1788164390015579400,12.400579345703125,-6.326554775238037,0.7412919998168945,-0.2573449909687042
1788164390025655800,12.41065576171875,-4.11822509765625,1.9197419881820679,-1.5205990076065063
1788164390035731000,12.42073095703125,-1.2575269937515259,2.7355690002441406,-1.9772510528564453
1788164390045806300,12.430806396484375,0.7478569746017456,2.3298048973083496,-1.8247090578079224
1788164390055879700,12.440879638671875,1.878985047340393,1.3615449666976929,-1.269544005393982
1788164390076024600,12.461024658203126,0.48800399899482727,-1.7694300413131714,0.1059349998831749
1788164390086099700,12.471099609375,-0.7168790102005005,-3.22279691696167,0.8920729756355286
1788164390096170200,12.481170166015625,-2.3918750286102295,-3.5213749408721924,0.6605119705200195
1788164390106245000,12.4912451171875,-4.224771976470947,-2.5534000396728516,-0.3735010027885437
1788164390116320000,12.501320068359375,-5.541470050811768,-1.1689410209655762,-0.7316660284996033
1788164390126399000,12.51139892578125,-6.30874490737915,0.14226000010967255,-0.631026029586792
1788164390136486100,12.521486083984374,-4.948525905609131,0.8581849932670593,-0.6087599992752075
1788164390146560500,12.531560546875,-1.265934944152832,0.8588510155677795,-0.9465439915657043
1788164390156638200,12.54163818359375,2.5483500957489014,0.2963300049304962,-1.290848970413208
1788164390166713300,12.55171337890625,4.934410095214844,-0.015336000360548496,-1.7337039709091187
1788164390176796700,12.561796630859375,5.266036033630371,0.2270520031452179,-2.654141902923584
1788164390186871600,12.57187158203125,4.3435797691345215,0.6970030069351196,-3.179971933364868
1788164390196948700,12.58194873046875,2.915621042251587,0.9816700220108032,-2.7208309173583984
1788164390207021600,12.592021484375,1.9603389501571655,1.1535429954528809,-1.751783013343811
1788164390217097700,12.60209765625,1.4496899843215942,1.0198099613189697,-0.6090660095214844
1788164390227168800,12.612168701171875,1.1055409908294678,0.9266600012779236,0.10971000045537949
1788164390237248300,12.622248291015625,1.3279680013656616,1.2009819746017456,-0.08190099895000458
1788164390247329000,12.6323291015625,1.8004790544509888,1.6311299800872803,-0.13580399751663208
1788164390257402400,12.64240234375,1.366575002670288,2.2798120975494385,-0.7908849716186523
1788164390267474400,12.652474365234376,0.3458090126514435,2.5106379985809326,-1.400223970413208
1788164390277550800,12.66255078125,-0.5356690287590027,2.3156449794769287,-2.225548028945923
1788164390287630600,12.672630615234375,-1.1262309551239014,1.7638460397720337,-2.3131821155548096
1788164390297703400,12.682703369140626,-0.9633470177650452,1.267016053199768,-2.2643260955810547
1788164390307783700,12.69278369140625,-0.6613100171089172,0.6450420022010803,-1.2354910373687744
1788164390317862000,12.70286181640625,-0.9626320004463196,0.2577970027923584,-0.40458598732948303
1788164390327938600,12.7129384765625,-2.078752040863037,0.10376899689435959,-0.28651198744773865
1788164390338014000,12.723013916015624,-3.4133338928222656,0.16619500517845154,-0.7707409858703613
1788164390348086800,12.733086669921875,-3.6664769649505615,0.4672220051288605,-1.3842439651489258
1788164390358159000,12.7431591796875,-2.8969109058380127,0.5422049760818481,-1.908460021018982
1788164390368242700,12.75324267578125,-1.7990479469299316,0.4936389923095703,-2.084923028945923
1788164390378324000,12.763323974609374,-0.7970439791679382,0.3819420039653778,-2.210308074951172
1788164390388396500,12.773396484375,0.42733100056648254,0.050342999398708344,-2.3445448875427246
1788164390398478300,12.783478271484375,1.5632870197296143,-0.4496839940547943,-1.2212419509887695
1788164390408558800,12.793558837890625,2.4063549041748047,-0.7196630239486694,-0.7673239707946777
1788164390418638300,12.803638427734375,2.7912769317626953,-0.9680730104446411,0.374765008687973
1788164390428714200,12.81371435546875,2.0631909370422363,-1.2962199449539185,1.39103102684021
1788164390438787600,12.82378759765625,0.5176079869270325,-1.6561880111694336,1.5822340250015259
1788164390448861700,12.83386181640625,-0.5480329990386963,-1.814309000968933,1.5940669775009155
1788164390458945000,12.843945068359375,-1.340162992477417,-1.4395049810409546,1.2466989755630493
1788164390469022500,12.8540224609375,-0.9988330006599426,-0.8416240215301514,0.47528600692749023
1788164390479098000,12.86409814453125,0.4080280065536499,-0.5664560198783875,0.44770199060440063
1788164390489175000,12.874175048828125,1.5830609798431396,-0.29848000407218933,0.6772599816322327
1788164390499250200,12.884250244140626,2.474355936050415,-0.14587800204753876,0.6517879962921143
1788164390509324300,12.89432421875,2.7323551177978516,-0.12502799928188324,0.7425169944763184
1788164390519402800,12.90440283203125,1.9750529527664185,-0.018957000225782394,0.8692319989204407
1788164390529481200,12.914481201171874,0.6510109901428223,0.33100101351737976,0.4437069892883301
1788164390539562800,12.924562744140625,-0.4691460132598877,0.837007999420166,-0.19536399841308594
1788164390549642800,12.934642822265625,-1.4630110263824463,1.4625940322875977,-0.6441910266876221
1788164390559725000,12.94472509765625,-2.2336599826812744,1.8626220226287842,-1.0778379440307617
1788164390569805000,12.95480517578125,-2.3709659576416016,1.781769037246704,-1.228361964225769
1788164390579888400,12.964888427734374,-1.661890983581543,1.3516839742660522,-0.8269050121307373
1788164390589964300,12.97496435546875,-0.6359689831733704,0.7881060242652893,-0.2899560034275055
1788164390600050000,12.9850498046875,-0.11495400220155716,0.3436940014362335,-0.20443899929523468
1788164390610133200,12.99513330078125,-0.021882999688386917,0.18981899321079254,-0.40448299050331116
1788164390620202000,13.005201904296875,0.07023300230503082,0.16902700066566467,-0.7259359955787659
1788164390630277600,13.015277587890624,0.2925570011138916,0.24105800688266754,-1.2924389839172363
1788164390640362200,13.0253623046875,0.1190510019659996,0.22124800086021423,-0.8760449886322021
1788164390650440400,13.0354404296875,-0.327551007270813,0.06627599895000458,-0.8303459882736206
1788164390660519400,13.04551953125,-0.7545009851455688,-0.27695199847221375,-0.44247201085090637
1788164390670594300,13.05559423828125,-1.1676310300827026,-0.6811580061912537,0.5212720036506653
1788164390680682000,13.065681884765626,-1.6717909574508667,-0.9443730115890503,1.3519669771194458
1788164390690749000,13.0757490234375,-2.081782102584839,-0.9432500004768372,0.7657420039176941
1788164390710925000,13.095925048828125,0.3622109889984131,-0.6844580173492432,0.13987800478935242
1788164390720997600,13.10599755859375,1.9538459777832031,-0.6208000183105469,-0.35615798830986023
1788164390731071200,13.1160712890625,3.491060972213745,-0.5768470168113708,-0.38699400424957275
1788164390741154300,13.126154296875,4.083829879760742,-0.7884050011634827,-0.01789500005543232
1788164390751222500,13.136222412109374,3.6700050830841064,-0.9069949984550476,0.30661600828170776
1788164390761299200,13.14629931640625,2.3080759048461914,-0.9859679937362671,0.9101679921150208
1788164390771377700,13.156377685546875,0.1619970053434372,-0.7951560020446777,1.4734079837799072
1788164390781459000,13.166458984375,-2.487628936767578,-0.6351670026779175,2.007901906967163
1788164390791533000,13.176532958984374,-5.299917221069336,-0.676816999912262,2.2495601177215576
1788164390801619500,13.186619384765624,-5.684852123260498,-0.10191100090742111,1.4989290237426758
