time,seconds_elapsed,z,y,x
1788164377956968200,0.34196826171875,0.15262499451637268,-0.07383749634027481,-0.0317624993622303
1788164377967051800,0.3520517578125,0.13805000483989716,-0.0835999995470047,-0.032999999821186066
1788164377977140700,0.362140625,0.11962500214576721,-0.07864999771118164,-0.032999999821186066
1788164377987244500,0.37224462890625,0.08662500232458115,-0.07259999960660934,-0.020762499421834946
1788164377997341000,0.3823408203125,0.03904999792575836,-0.133650004863739,-0.002474999986588955
1788164378007445000,0.392445068359375,-0.01718750037252903,-0.24969999492168427,0.007287499960511923
1788164378017544200,0.402544189453125,-0.05871250107884407,-0.37674999237060547,-0.01347499992698431
1788164378027637500,0.412637451171875,-0.059950001537799835,-0.4622749984264374,-0.050187498331069946
1788164378047833000,0.4328330078125,-0.008662499487400055,-0.36217498779296875,-0.11123749613761902
1788164378057929500,0.442929443359375,0.00976249948143959,-0.23141250014305115,-0.1307625025510788
1788164378068024300,0.4530244140625,0.014574999921023846,-0.11659999936819077,-0.1344749927520752
1788164378078114000,0.463114013671875,0.0035749999806284904,-0.038362499326467514,-0.12594999372959137
1788164378088211000,0.4732109375,-0.01966249942779541,0.008112499490380287,-0.09047500044107437
1788164378098314200,0.483314208984375,-0.045237500220537186,0.023924998939037323,-0.029424998909235
1788164378108411600,0.49341162109375,-0.040424998849630356,0.04468749836087227,0.04633750021457672
1788164378118513200,0.50351318359375,0.0085249999538064,0.06063750013709068,0.0976250022649765
1788164378128616700,0.51361669921875,0.059812501072883606,0.055687498301267624,0.10628750175237656
1788164378138714600,0.523714599609375,0.09886249899864197,0.04592499881982803,0.06833750009536743
1788164378148819000,0.53381884765625,0.14533749222755432,-0.01759999990463257,0.025575000792741776
1788164378158912800,0.543912841796875,0.1331000030040741,-0.10188750177621841,0.013337500393390656
1788164378169023000,0.55402294921875,0.05609999969601631,-0.15070000290870667,0.028049999848008156
1788164378179116000,0.564115966796875,-0.032999999821186066,-0.11041250079870224,0.04028749838471413
1788164378189216300,0.57421630859375,-0.0952875018119812,-0.08841250091791153,0.0085249999538064
1788164378199312600,0.584312744140625,-0.1564749926328659,-0.06283749639987946,-0.06599999964237213
1788164378209400000,0.594400146484375,-0.201712504029274,-0.11288750171661377,-0.1625249981880188
1788164378219488000,0.604488037109375,-0.24557499587535858,-0.28022500872612,-0.22728750109672546
1788164378229582300,0.614582275390625,-0.29809999465942383,-0.319412499666214,-0.23100000619888306
1788164378239669000,0.6246689453125,-0.42281249165534973,-0.1471250057220459,-0.11976250261068344
1788164378249758000,0.634758056640625,-0.34581249952316284,0.0019249999895691872,0
1788164378259847000,0.644846923828125,-0.11728750169277191,0.164450004696846,0.08181250095367432
1788164378269941000,0.65494091796875,-0.01347499992698431,0.3244999945163727,0.0952875018119812
1788164378280031500,0.665031494140625,0.05004999786615372,0.15097500383853912,0.032999999821186066
1788164378290131200,0.675131103515625,0.05252499878406525,0.08744999766349792,-0.030524998903274536
1788164378300220000,0.685219970703125,0.014574999921023846,-0.08112499862909317,-0.05142499879002571
1788164378310318600,0.695318603515625,-0.04166249930858612,-0.19470000267028809,-0.02694999985396862
1788164378320407800,0.70540771484375,-0.14547500014305115,-0.12993749976158142,0.01952499896287918
1788164378330504400,0.71550439453125,-0.2480500042438507,-0.08717499673366547,0.059812501072883606
1788164378340594400,0.725594482421875,-0.22247499227523804,-0.36822500824928284,0.09886249899864197
1788164378350689800,0.735689697265625,-0.015949999913573265,-0.6223250031471252,0.042762499302625656
1788164378360779500,0.745779541015625,0.16609999537467957,-0.6650875210762024,-0.10271249711513519
1788164378370867200,0.7558671875,0.18933749198913574,-0.3657499849796295,-0.24076250195503235
1788164378380954600,0.76595458984375,0.1929125040769577,-0.3877499997615814,-0.2737624943256378
1788164378391051500,0.776051513671875,0.19538749754428864,-0.40369999408721924,-0.2639999985694885
1788164378401136600,0.78613671875,0.28943750262260437,-0.3302749991416931,-0.2810499966144562
1788164378411226400,0.796226318359375,0.40191251039505005,-0.43779999017715454,-0.3702875077724457
1788164378421316600,0.806316650390625,0.4372499883174896,-0.593037486076355,-0.5803874731063843
1788164378431411700,0.81641162109375,0.3431999981403351,-0.23746250569820404,-0.8039624691009521
1788164378441501000,0.8265009765625,0.282150000333786,0.0471624992787838,-0.9468249678611755
1788164378451594200,0.83659423828125,0.35791251063346863,-0.011412499472498894,-1.0067750215530396
1788164378461695500,0.846695556640625,0.5522000193595886,0.04496249929070473,-0.9333499670028687
1788164378471796000,0.8567958984375,0.695062518119812,0.604449987411499,-0.6804875135421753
1788164378481884400,0.866884521484375,0.7880125045776367,1.1750749349594116,-0.3030500113964081
1788164378491987000,0.876987060546875,0.9271624684333801,0.9905499815940857,0.02199999988079071
1788164378502076400,0.887076416015625,0.9956374764442444,-0.023512499406933784,0.19538749754428864
1788164378512180700,0.8971806640625,0.6767749786376953,-1.1682000160217285,0.30291250348091125
1788164378522272300,0.907272216796875,0.02199999988079071,-2.338599920272827,0.1013374999165535
1788164378532369000,0.917368896484375,-0.5828624963760376,-3.0031375885009766,-0.20528750121593475
1788164378542459000,0.927458984375,-0.7929624915122986,-2.978800058364868,-0.38609999418258667
1788164378552547800,0.9375478515625,-0.8980125188827515,-2.404599905014038,-0.4300999939441681
1788164378562636500,0.947636474609375,-1.0678249597549438,-1.6421624422073364,-0.49114999175071716
1788164378572736000,0.957736083984375,-1.3488750457763672,-0.9103875160217285,-0.590149998664856
1788164378582830300,0.967830322265625,-1.621262550354004,-0.3521375060081482,-0.7037249803543091
1788164378592937500,0.9779375,-1.9023125171661377,0.34677499532699585,-0.7612000107765198
1788164378603038700,0.988038818359375,-2.087937593460083,1.1970750093460083,-0.7415375113487244
1788164378613137200,0.99813720703125,-1.5332624912261963,1.2801250219345093,-0.37386250495910645
1788164378623221800,1.0082216796875,-0.3176249861717224,0.7291625142097473,0.6962999701499939
1788164378633317000,1.018317138671875,0.015812499448657036,1.5452250242233276,1.363450050354004
1788164378643408100,1.028408203125,-0.07218749821186066,2.2867624759674072,1.5112625360488892
1788164378653503000,1.0385029296875,-0.0611874982714653,2.6606249809265137,1.4232624769210815
1788164378663592400,1.048592529296875,0.22481249272823334,2.621574878692627,1.2999249696731567
1788164378673689300,1.058689453125,0.6560124754905701,2.2660000324249268,1.1166374683380127
1788164378683784700,1.06878466796875,0.8856375217437744,1.652750015258789,0.813587486743927
1788164378693879600,1.078879638671875,0.8392999768257141,0.1671999990940094,0.4862000048160553
1788164378703966200,1.08896630859375,0.6718249917030334,-0.6710000038146973,0.18205000460147858
1788164378714062300,1.099062255859375,0.5619624853134155,-1.130387544631958,-0.07328750193119049
1788164378724168000,1.10916796875,0.5717250108718872,-1.438249945640564,-0.2516250014305115
1788164378734259500,1.119259521484375,0.6413000226020813,-1.2475374937057495,-0.36162498593330383
1788164378744353300,1.129353271484375,0.6962999701499939,-0.7613375186920166,-0.38981249928474426
1788164378754450700,1.13945068359375,0.6914874911308289,-0.2824249863624573,-0.31404998898506165
1788164378764551700,1.1495517578125,0.7012500166893005,0.20377500355243683,-0.2798124849796295
1788164378774639000,1.15963916015625,0.8318749666213989,0.6606875061988831,-0.2223374992609024
1788164378784737000,1.169737060546875,1.0726374387741089,1.3058375120162964,-0.13928750157356262
1788164378794830800,1.179830810546875,1.3877874612808228,2.186662435531616,-0.047712501138448715
1788164378804919600,1.18991943359375,1.7579374313354492,2.8194375038146973,0.020762499421834946
1788164378815013000,1.20001318359375,2.1440374851226807,2.951437473297119,0.04633750021457672
1788164378825102800,1.210102783203125,2.451900005340576,2.6593875885009766,-0.03423750028014183
1788164378835199000,1.220198974609375,2.51666259765625,1.3876500129699707,-0.5559124946594238
1788164378845303600,1.230303466796875,2.3981375694274902,-0.0625625029206276,-0.7953000068664551
1788164378855393800,1.240393798828125,2.1245124340057373,-0.7748125195503235,-0.7097749710083008
1788164378875576000,1.260576171875,1.5503125190734863,-0.7601000070571899,-0.39586248993873596
1788164378885672000,1.270671875,1.264449954032898,-0.5964750051498413,-0.3335750102996826
1788164378895761000,1.280760986328125,0.7035874724388123,-0.5537124872207642,-0.2858625054359436
1788164378905858000,1.290858154296875,0.15262499451637268,-0.4571875035762787,-0.17104999721050262
1788164378915952400,1.300952392578125,0.06228749826550484,-0.10161250084638596,-0.14657500386238098
1788164378926048800,1.311048828125,0.15028749406337738,0.49211248755455017,-0.12828749418258667
1788164378936143400,1.321143310546875,0.10986249893903732,1.066312551498413,0.007287499960511923
1788164378946245400,1.331245361328125,0.07809999585151672,1.3509374856948853,0.16609999537467957
1788164378956336000,1.341336181640625,0.18438750505447388,1.3021249771118164,0.35062500834465027
1788164378966434600,1.3514345703125,0.28462499380111694,1.2141250371932983,0.42143750190734863
1788164378976530000,1.361530029296875,0.32862499356269836,1.2104125022888184,0.36162498593330383
1788164378986626800,1.371626708984375,0.37619999051094055,1.1578874588012695,0.23938749730587006
1788164378996715300,1.38171533203125,0.42391249537467957,1.0125499963760376,0.09652499854564667
1788164379006805500,1.391805419921875,0.45925000309944153,0.8855000138282776,-0.02694999985396862
1788164379016894000,1.40189404296875,0.4702500104904175,0.9074999690055847,-0.10271249711513519
1788164379026993400,1.411993408203125,0.49720001220703125,0.791450023651123,-0.13199999928474426
1788164379037093600,1.42209375,0.559487521648407,0.6777374744415283,-0.11371249705553055
1788164379047188200,1.432188232421875,0.5704874992370605,0.7022125124931335,-0.13323749601840973
1788164379057282000,1.442281982421875,0.5167250037193298,0.9735000133514404,-0.18933749198913574
1788164379067372500,1.45237255859375,0.45567500591278076,1.132312536239624,-0.18205000460147858
1788164379077470000,1.462469970703125,0.42391249537467957,1.2508374452590942,-0.09281250089406967
1788164379087567000,1.472567138671875,0.476437509059906,1.4108874797821045,0.059812501072883606
1788164379097663200,1.482663330078125,0.5680124759674072,1.6295125484466553,0.24914999306201935
1788164379107753700,1.492753662109375,0.6498249769210815,1.8335624933242798,0.4006749987602234
1788164379117849300,1.502849365234375,0.6657750010490417,1.8788000345230103,0.4422000050544739
1788164379127939000,1.51293896484375,0.6377249956130981,1.7760875225067139,0.33838748931884766
1788164379138026500,1.523026611328125,0.630299985408783,1.4902249574661255,0.13928750157356262
1788164379148123600,1.53312353515625,0.6278250217437744,1.1273624897003174,-0.09652499854564667
1788164379158212400,1.54321240234375,0.6437749862670898,0.8024500012397766,-0.36038750410079956
1788164379168314000,1.553314208984375,0.6670125126838684,0.6472125053405762,-0.568149983882904
1788164379178407400,1.563407470703125,0.730537474155426,0.5813499689102173,-0.6609625220298767
1788164379188503600,1.573503662109375,0.8075374960899353,0.5471125245094299,-0.6169624924659729
1788164379198603000,1.58360302734375,0.8025875091552734,0.5788750052452087,-0.5411999821662903
1788164379208702700,1.59370263671875,0.8098750114440918,0.551925003528595,-0.4386250078678131
1788164379218802200,1.60380224609375,0.7757750153541565,0.6876375079154968,-0.37386250495910645
1788164379228895200,1.613895263671875,0.739062488079071,0.8390250205993652,-0.32381248474121094
1788164379238996000,1.623995849609375,0.7500625252723694,0.853737473487854,-0.26633748412132263
1788164379249091600,1.634091552734375,0.7293000221252441,0.81826251745224,-0.26881250739097595
1788164379259187500,1.6441875,0.6902499794960022,0.7559750080108643,-0.30428749322891235
1788164379269273000,1.654273193359375,0.6425374746322632,0.7279250025749207,-0.3115749955177307
1788164379279362000,1.664362060546875,0.594962477684021,0.8157874941825867,-0.29205000400543213
1788164379289450800,1.67445068359375,0.5680124759674072,0.8744999766349792,-0.25286251306533813
1788164379299534800,1.684534912109375,0.5607249736785889,0.865975022315979,-0.2638624906539917
1788164379309633500,1.694633544921875,0.5314375162124634,0.7754999995231628,-0.329862505197525
1788164379319729000,1.70472900390625,0.48977500200271606,0.6313999891281128,-0.38733750581741333
1788164379329827300,1.714827392578125,0.4446749985218048,0.5324000120162964,-0.40191251039505005
1788164379339919400,1.72491943359375,0.39214998483657837,0.5275874733924866,-0.36781248450279236
1788164379350014500,1.735014404296875,0.3431999981403351,0.5678749680519104,-0.29809999465942383
1788164379360109000,1.745109130859375,0.3188624978065491,0.56045001745224,-0.2199999988079071
1788164379370208300,1.755208251953125,0.3176249861717224,0.5324000120162964,-0.18205000460147858
1788164379380307500,1.765307373046875,0.3176249861717224,0.4713499844074249,-0.1722874939441681
1788164379390413000,1.7754130859375,0.29315000772476196,0.4248749911785126,-0.17104999721050262
1788164379400504000,1.785504150390625,0.24062499403953552,0.44811248779296875,-0.16128750145435333
1788164379410595800,1.795595947265625,0.1746249943971634,0.5128750205039978,-0.10999999940395355
1788164379420685600,1.805685546875,0.11357499659061432,0.6166874766349792,-0.020762499421834946
1788164379430775300,1.815775390625,0.057337500154972076,0.7864999771118164,0.1050499975681305
1788164379440860400,1.8258603515625,0.01209999993443489,0.9735000133514404,0.2723875045776367
1788164379450956000,1.8359560546875,-0.02694999985396862,1.1763124465942383,0.4507249891757965
1788164379461046300,1.84604638671875,-0.08676250278949738,1.411987543106079,0.5887749791145325
1788164379471141600,1.8561416015625,-0.18576249480247498,1.6685625314712524,0.6829624772071838
1788164379481236500,1.866236572265625,-0.3152875006198883,1.898324966430664,0.7818250060081482
1788164379491325700,1.87632568359375,-0.4166249930858612,2.182950019836426,0.9223499894142151
1788164379501414700,1.88641455078125,-0.47533750534057617,2.531100034713745,1.1031625270843506
1788164379511509000,1.896509033203125,-0.5438125133514404,2.8939623832702637,1.288925051689148
1788164379521600300,1.906600341796875,-0.6598625183105469,3.1395375728607178,1.4097875356674194
1788164379531702500,1.91670263671875,-0.8234875202178955,3.1248250007629395,1.4085500240325928
1788164379541800200,1.92680029296875,-1.0348249673843384,2.956249952316284,1.293737530708313
1788164379551905000,1.936905029296875,-1.2253999710083008,2.9232499599456787,1.2119250297546387
1788164379562001400,1.94700146484375,-1.3096874952316284,3.131012439727783,1.210687518119812
1788164379572095700,1.957095703125,-1.4038749933242798,3.6013998985290527,1.3377374410629272
1788164379582187500,1.9671875,-1.6152124404907227,4.181650161743164,1.5747874975204468
1788164379592286200,1.9772861328125,-1.9145499467849731,4.543274879455566,1.7666000127792358
1788164379602378000,1.9873779296875,-2.185699939727783,4.659325122833252,1.7470749616622925
1788164379612467200,1.99746728515625,-2.37146258354187,4.6140875816345215,1.5991250276565552
1788164379622565400,2.0075654296875,-2.5045623779296875,4.363699913024902,1.485550045967102
1788164379632661500,2.01766162109375,-2.6536123752593994,4.195125102996826,1.4904999732971191
1788164379642752000,2.027751953125,-2.7563250064849854,4.164599895477295,1.6785999536514282
1788164379652849400,2.037849365234375,-2.852712392807007,4.261125087738037,2.0487499237060547
1788164379662943700,2.04794384765625,-2.9517123699188232,4.483462333679199,2.4910874366760254
1788164379673044700,2.058044677734375,-3.0629498958587646,4.687512397766113,2.906475067138672
1788164379683135500,2.068135498046875,-3.23152494430542,4.90366268157959,3.227674961090088
1788164379693243100,2.0782431640625,-3.369575023651123,4.7473249435424805,3.4171500205993652
1788164379703329500,2.08832958984375,-3.447812557220459,4.313650131225586,3.486725091934204
1788164379713426000,2.098426025390625,-3.2815749645233154,3.7112624645233154,3.5624873638153076
1788164379723516700,2.1085166015625,-3.0054750442504883,3.073537588119507,3.6308250427246094
1788164379733608700,2.118608642578125,-2.850374937057495,2.6728625297546387,3.703012466430664
1788164379743701200,2.128701171875,-2.7880873680114746,2.4248125553131104,3.8006374835968018
1788164379753797600,2.138797607421875,-2.752612590789795,2.391812562942505,3.897162437438965
1788164379763890000,2.148889892578125,-2.7428500652313232,2.5518624782562256,4.063399791717529
1788164379773982200,2.158982177734375,-2.7343249320983887,2.7486250400543213,4.255212306976318
1788164379784083000,2.1690830078125,-2.575512409210205,2.8939623832702637,4.299212455749512
1788164379794181000,2.17918115234375,-2.1929874420166016,2.87072491645813,4.189212322235107
1788164379804339200,2.189339111328125,-1.8620250225067139,2.5493874549865723,4.132975101470947
1788164379814434600,2.1994345703125,-1.5846874713897705,2.2757625579833984,3.941162586212158
1788164379824525000,2.209525146484375,-1.2548249959945679,1.7760875225067139,3.4927749633789062
1788164379834615300,2.219615234375,-1.114300012588501,1.343649983406067,2.4409000873565674
1788164379844710700,2.229710693359375,-0.9897249937057495,1.116362452507019,1.9278874397277832
1788164379854807300,2.239807373046875,-0.6573874950408936,1.2006499767303467,1.5015000104904175
1788164379864899800,2.24989990234375,-0.4105750024318695,1.269124984741211,1.1544499397277832
1788164379874991000,2.2599912109375,-0.1344749927520752,0.9343125224113464,0.17957499623298645
1788164379885084200,2.270084228515625,-0.050187498331069946,0.743737518787384,-0.4923875033855438
1788164379895181800,2.280181884765625,-0.00013749999925494194,0.4749250113964081,-0.9725375175476074
1788164379905278200,2.2902783203125,0.08786249905824661,0.5043500065803528,-1.2791625261306763
1788164379915372000,2.3003720703125,0.14767499268054962,0.6679750084877014,-1.3524500131607056
1788164379925474300,2.310474365234375,0.15262499451637268,1.0382624864578247,-1.1691625118255615
1788164379935566600,2.320566650390625,0.06462500244379044,1.5159374475479126,-0.7587249875068665
1788164379945667300,2.330667236328125,0.08662500232458115,2.186662435531616,-0.4423374831676483
1788164379955758800,2.3407587890625,-0.023237500339746475,2.678912401199341,-0.2162874937057495
1788164379965858600,2.350858642578125,-0.20528750121593475,3.069962501525879,-0.14176249504089355
1788164379975954000,2.360953857421875,-0.45210000872612,3.1480624675750732,-0.25533750653266907
1788164379986049800,2.3710498046875,-0.7148625254631042,2.7511000633239746,-0.4483875036239624
1788164379996145000,2.381144775390625,-0.8724374771118164,2.3490500450134277,-0.49486249685287476
1788164380006244400,2.391244384765625,-1.1008249521255493,2.0143749713897705,-0.5081999897956848
1788164380016333800,2.401333740234375,-1.3293499946594238,1.107837438583374,-0.5913875102996826
1788164380026435800,2.411435791015625,-1.394112467765808,-0.07727500051259995,-0.7134875059127808
1788164380036528000,2.421528076171875,-1.3378750085830688,-0.8860499858856201,-0.7489625215530396
1788164380046625500,2.43162548828125,-1.2010624408721924,-1.1046749353408813,-0.5656750202178955
1788164380056718300,2.44171826171875,-1.2328250408172607,-1.035099983215332,-0.14547500014305115
1788164380066806500,2.451806640625,-1.210824966430664,-0.9140999913215637,0.02928750030696392
1788164380076901400,2.4619013671875,-0.8467249870300293,-1.1424875259399414,-0.432574987411499
1788164380086999800,2.471999755859375,-0.2957625091075897,-1.4907749891281128,-1.4001624584197998
1788164380097097700,2.48209765625,0.010862499475479126,-2.282362461090088,-2.185699939727783
1788164380107193000,2.492193115234375,0.035337500274181366,-2.859037399291992,-2.6536123752593994
1788164380117285000,2.50228515625,-0.01966249942779541,-2.9262750148773193,-2.96628737449646
1788164380127379700,2.512379638671875,0.037812501192092896,-2.4974124431610107,-3.125237464904785
1788164380137461800,2.522461669921875,0.04138749837875366,-1.7485874891281128,-2.9297125339508057
1788164380147556600,2.532556640625,-0.20047499239444733,-1.0203875303268433,-2.508275032043457
1788164380157654500,2.542654541015625,-0.5083374977111816,0.6459749937057495,-2.051224946975708
1788164380167745000,2.5527451171875,-0.7246249914169312,3.0943000316619873,-1.6040749549865723
1788164380177840600,2.562840576171875,-0.9077749848365784,5.3092875480651855,-1.2339249849319458
1788164380187934000,2.572933837890625,-1.019012451171875,5.556099891662598,-0.3470500111579895
1788164380198019000,2.58301904296875,-0.9372000098228455,3.7845499515533447,1.04458749294281
1788164380208107500,2.593107421875,-0.7391999959945679,1.548937439918518,2.447087526321411
1788164380218194000,2.60319384765625,-0.6304374933242798,-0.11756250262260437,3.1508123874664307
1788164380228288000,2.6132880859375,-0.7331500053405762,-1.476062536239624,2.1807498931884766
1788164380238372400,2.623372314453125,-0.48028749227523804,0.10119999945163727,-0.6329125165939331
1788164380248466700,2.633466796875,-0.3983374834060669,0.9380249977111816,-1.9987000226974487
1788164380258558700,2.643558837890625,-0.3067624866962433,0.9440749883651733,-2.2186999320983887
1788164380268650000,2.65364990234375,-0.23223750293254852,0.5116375088691711,-1.9168875217437744
1788164380278742500,2.663742431640625,-0.2810499966144562,0.652162492275238,-1.5369750261306763
1788164380288837600,2.673837646484375,-0.4265249967575073,1.836037516593933,-1.4159749746322632
1788164380298929700,2.6839296875,-0.3067624866962433,3.021012544631958,-1.2436875104904175
1788164380309021200,2.694021240234375,-0.06971249729394913,3.143249988555908,-0.49114999175071716
1788164380319106300,2.704106201171875,0.32243749499320984,2.0376124382019043,0.5912500023841858
1788164380329202000,2.714201904296875,0.550962507724762,1.0296000242233276,1.2253999710083008
1788164380339282200,2.7242822265625,0.8025875091552734,0.1340624988079071,0.9015874862670898
1788164380349367300,2.7343671875,0.9821624755859375,-1.3832499980926514,0.5814874768257141
1788164380359455500,2.74445556640625,0.8514000177383423,-0.6392375230789185,0.15633749961853027
1788164380369552000,2.7545517578125,0.952875018119812,0.45663750171661377,-0.18205000460147858
1788164380379643100,2.76464306640625,0.8233500123023987,0.6411625146865845,-0.19552500545978546
1788164380389742000,2.7747421875,0.19538749754428864,-0.6624749898910522,0.08057499676942825
1788164380399840300,2.78484033203125,-0.6866750121116638,-2.2090749740600586,0.05252499878406525
1788164380409939200,2.794939208984375,-1.463687539100647,-2.8675625324249268,-0.08923749625682831
1788164380420030700,2.80503076171875,-1.5467374324798584,-2.260362386703491,-0.09652499854564667
1788164380430134500,2.815134521484375,-1.1448249816894531,-1.5738250017166138,0.10986249893903732
1788164380440221200,2.82522119140625,-0.856487512588501,-1.201200008392334,0.4141499996185303
1788164380450319000,2.835319091796875,-0.7929624915122986,-0.9946749806404114,0.7842999696731567
1788164380460415200,2.845415283203125,-0.7379624843597412,-0.8298124670982361,1.0971125364303589
1788164380470505200,2.855505126953125,-0.8687250018119812,-0.8920999765396118,1.2241624593734741
1788164380480592100,2.865592041015625,-1.1998250484466553,-1.301437497138977,1.2925000190734863
1788164380490679300,2.87567919921875,-1.4283499717712402,-1.4528249502182007,1.2094500064849854
1788164380500765700,2.885765625,-1.6237374544143677,-0.995912492275238,0.778249979019165
1788164380510864000,2.89586376953125,-1.0764875411987305,-0.08084999769926071,0
1788164380520955600,2.90595556640625,0.007287499960511923,0.6179249882698059,-0.6389625072479248
1788164380531049500,2.916049560546875,0.7683500051498413,0.6765000224113464,-0.9235875010490417
1788164380541130800,2.926130859375,0.6815875172615051,0.5726875066757202,-0.9395374655723572
1788164380551229000,2.93622900390625,0.27348750829696655,0.20858749747276306,-0.7684875130653381
1788164380561313800,2.946313720703125,0.24791249632835388,-0.403425008058548,-0.6402000188827515
1788164380571404500,2.956404541015625,0.3774375021457672,-0.3361875116825104,-0.7159624695777893
1788164380581492700,2.96649267578125,0.6425374746322632,0.5592125058174133,-0.9725375175476074
1788164380591582500,2.97658251953125,0.7096375226974487,1.5207500457763672,-1.219349980354309
1788164380601669400,2.98666943359375,0.2381500005722046,1.9531874656677246,-1.2009249925613403
1788164380611764000,2.996763916015625,-0.23718750476837158,2.0974249839782715,-1.0738749504089355
1788164380621851000,3.006850830078125,-0.2798124849796295,1.7846125364303589,-1.1081124544143677
1788164380631937000,3.01693701171875,-0.09542500227689743,1.0845999717712402,-1.3256374597549438
1788164380642032000,3.0270322265625,0.14409999549388885,0.36506250500679016,-1.5577374696731567
1788164380652135000,3.037135009765625,0.5044875144958496,0.8683124780654907,-1.863124966621399
1788164380662223000,3.04722314453125,1.2460249662399292,1.4414124488830566,-1.9388874769210815
1788164380672315000,3.05731494140625,2.0450375080108643,1.98618745803833,-1.7067874670028687
1788164380682401000,3.067401123046875,2.4824249744415283,3.265349864959717,-1.5087875127792358
1788164380692488200,3.07748828125,2.3150875568389893,2.812150001525879,-0.9162999987602234
1788164380702574800,3.087574951171875,1.7384124994277954,0.7474499940872192,-0.11247500032186508
1788164380712671200,3.097671142578125,1.123924970626831,-0.32284998893737793,0.09776250272989273
1788164380722756400,3.10775634765625,0.6645374894142151,-0.3251875042915344,0.05376249924302101
1788164380732851200,3.117851318359375,0.3480125069618225,-0.1518000066280365,0.14162500202655792
1788164380742943000,3.12794287109375,0.306487500667572,-0.15661250054836273,0.2283875048160553
1788164380753034000,3.138033935546875,0.31267499923706055,-0.1578499972820282,0.32243749499320984
1788164380763121400,3.148121337890625,-0.21147499978542328,-0.052799999713897705,0.16733749210834503
1788164380773211400,3.15821142578125,-0.48028749227523804,-0.4241875112056732,0.0170499999076128
1788164380783295700,3.168295654296875,-0.24323749542236328,-1.013100028038025,0.35667499899864197
1788164380793386000,3.178385986328125,-0.04895000159740448,-1.4882999658584595,0.8355875015258789
1788164380803464200,3.188464111328125,0.006049999967217445,-1.5701124668121338,1.184975028038025
1788164380813553400,3.198553466796875,-0.2774749994277954,-0.7613375186920166,1.3437875509262085
1788164380823640000,3.20864013671875,-0.681862473487854,-0.2849000096321106,1.351212501525879
1788164380833723600,3.2187236328125,-1.2780624628067017,-0.6099500060081482,1.1422125101089478
1788164380843810800,3.228810791015625,-1.8680750131607056,-2.104024887084961,0.7623000144958496
1788164380853899800,3.238899658203125,-1.9450750350952148,-2.542649984359741,-0.13928750157356262
1788164380863990500,3.248990478515625,-2.015887498855591,-2.1125500202178955,-0.7880125045776367
1788164380874079200,3.259079345703125,-1.6714500188827515,-1.384487509727478,-0.8760125041007996
1788164380884171300,3.269171142578125,-0.9579625129699707,-0.724762499332428,-0.6206749677658081
1788164380894258000,3.2792578125,-0.37757501006126404,0.3198249936103821,-0.11371249705553055
1788164380904349200,3.28934912109375,-0.16376249492168427,1.6160374879837036,0.520437479019165
1788164380914426000,3.299426025390625,-0.06613750010728836,2.1524250507354736,0.7745375037193298
1788164380924517000,3.30951708984375,-0.28847500681877136,1.7602750062942505,0.7244874835014343
1788164380934607000,3.319607177734375,-0.5033875107765198,0.8842625021934509,0.608299970626831
1788164380944697000,3.329697021484375,-0.4020499885082245,0.33082500100135803,0.4251500070095062
1788164380954786600,3.33978662109375,0.013337500393390656,0.12196250259876251,0.3371500074863434
1788164380964877600,3.349877685546875,0.26743748784065247,0.1377750039100647,0.4384874999523163
1788164380974967800,3.3599677734375,0.3651999831199646,0.32958748936653137,0.4422000050544739
1788164380985052200,3.37005224609375,0.4739624857902527,0.7034500241279602,0.476437509059906
1788164380995144000,3.38014404296875,0.5972999930381775,1.128600001335144,0.39820000529289246
1788164381005235700,3.390235595703125,0.608299970626831,0.4823499917984009,0.5057250261306763
1788164381015321300,3.4003212890625,0.5179625153541565,-0.11756250262260437,0.8722999691963196
1788164381025410600,3.41041064453125,0.5105375051498413,0.11219999939203262,0.7830625176429749
1788164381035494000,3.420493896484375,0.2844874858856201,0.28806251287460327,0.7354875206947327
1788164381045585700,3.430585693359375,0.09267500042915344,0.5018749833106995,0.7060624957084656
1788164381055669200,3.440669189453125,-0.0966624990105629,0.652162492275238,0.547249972820282
1788164381065774600,3.450774658203125,-0.1919499933719635,0.45058751106262207,0.34814998507499695
1788164381075857400,3.460857421875,-0.11371249705553055,0.4908750057220459,0.13557499647140503
1788164381085950200,3.4709501953125,-0.10766249895095825,0.8305000066757202,-0.2578125
1788164381096040400,3.48104052734375,-0.1247124969959259,1.3008874654769897,-0.6364874839782715
1788164381106135600,3.491135498046875,-0.1979999989271164,1.8005625009536743,-0.8490625023841858
1788164381116223500,3.501223388671875,-0.4118124842643738,2.440762519836426,-0.7501999735832214
1788164381126315300,3.511315185546875,-0.909012496471405,3.156587600708008,-0.369049996137619
1788164381136405200,3.5214052734375,-1.555400013923645,3.7247374057769775,0.04399999976158142
1788164381146494000,3.531493896484375,-2.1576499938964844,3.7235000133514404,0.7330124974250793
1788164381156582000,3.541581787109375,-2.2664124965667725,3.9433624744415283,1.5833125114440918
1788164381166674400,3.55167431640625,-2.20770001411438,4.694799900054932,2.5203750133514404
1788164381176763400,3.561763427734375,-2.256649971008301,4.014312267303467,4.037687301635742
1788164381186851800,3.571851806640625,-2.568087577819824,3.2103500366210938,5.209324836730957
1788164381196942000,3.581942138671875,-3.0177125930786133,2.3137125968933105,6.4492998123168945
1788164381207025200,3.592025146484375,-3.3842875957489014,1.9838500022888184,6.846399784088135
1788164381217107700,3.602107666015625,-4.278587341308594,2.4785749912261963,6.300250053405762
1788164381227210200,3.612210205078125,-4.596212387084961,3.7955498695373535,2.392087459564209
1788164381237299200,3.62229931640625,-4.660974979400635,5.9800124168396,-0.6976749897003174
1788164381247386400,3.632386474609375,-4.582737445831299,7.565800189971924,-2.0952250957489014
1788164381257477600,3.6424775390625,-3.9242498874664307,8.098474502563477,-2.357987403869629
1788164381267626000,3.6526259765625,-2.764849901199341,5.901774883270264,-2.4153249263763428
1788164381277720300,3.66272021484375,-1.4404499530792236,2.9416749477386475,-1.7410249710083008
1788164381287806000,3.672805908203125,-0.5975750088691711,0.26977500319480896,-0.7184374928474426
1788164381297892000,3.68289208984375,-1.0030624866485596,-0.4204750061035156,0.12457499653100967
1788164381307981300,3.692981201171875,-2.059887409210205,0.5079249739646912,0.42143750190734863
1788164381318073600,3.703073486328125,-2.8296124935150146,1.6002249717712402,0.07933750003576279
1788164381328161000,3.7131611328125,-2.6976125240325928,2.202475070953369,-0.5339124798774719
1788164381338250500,3.72325048828125,-1.6787375211715698,2.680150032043457,-0.7892500162124634
1788164381348341800,3.733341796875,-0.3422375023365021,3.5146374702453613,-0.6267250180244446
1788164381358427400,3.743427490234375,0.6510624885559082,3.7479748725891113,-0.3763374984264374
1788164381368522800,3.753522705078125,0.7475875020027161,3.225062370300293,-0.20528750121593475
1788164381378612200,3.7636123046875,0.2723875045776367,2.1108999252319336,0.04399999976158142
1788164381388700200,3.7737001953125,-0.00494999997317791,0.3185875117778778,0.15633749961853027
1788164381398794200,3.783794189453125,-0.2297624945640564,-1.375962495803833,0.03657500073313713
1788164381429058300,3.814058349609375,-0.14176249504089355,-2.6696999073028564,1.0653499364852905
1788164381479482600,3.864482666015625,0.34264999628067017,0.12402500212192535,0.4982999861240387
1788164381499667500,3.88466748046875,-0.5748875141143799,0.2303124964237213,0.1428624987602234
1788164381519853300,3.904853271484375,-0.871749997138977,1.8979125022888184,-0.2872374951839447
1788164381540042800,3.925042724609375,-0.7226999998092651,4.302237510681152,-1.0019625425338745
1788164381550140200,3.93514013671875,-0.7837499976158142,5.499587535858154,-1.1534874439239502
1788164381560230000,3.94522998046875,-1.0476125478744507,1.999387502670288,-0.45333749055862427
1788164381570312400,3.9553125,-1.3237124681472778,-3.0475499629974365,0.6743000149726868
1788164381580400400,3.965400390625,-1.1405625343322754,-4.401237487792969,0.9063999652862549
1788164381610661000,3.9956611328125,0.39765000343322754,-3.665750026702881,-0.233474999666214
1788164381620752100,4.005752197265625,0.9413250088691711,-3.1965999603271484,-0.5963374972343445
1788164381630837800,4.015837646484375,1.383525013923645,-3.1305999755859375,-0.9127249717712402
1788164381640931800,4.025931884765625,1.737862467765808,-3.326124906539917,-1.1155375242233276
1788164381651023600,4.036023681640625,1.9540125131607056,-3.8538498878479004,-0.9311500191688538
1788164381661112000,4.046112060546875,1.9052000045776367,-4.051712512969971,-0.39723750948905945
1788164381671198000,4.056197998046875,1.6620999574661255,-3.2368874549865723,0.010862499475479126
1788164381691384800,4.076384765625,0.9143750071525574,-0.27541249990463257,0.4067249894142151
1788164381701469000,4.086468994140625,0.4856500029563904,0.9755625128746033,0.4800125062465668
1788164381711552500,4.096552490234375,0.12031249701976776,1.6438125371932983,0.4824874997138977
1788164381721644500,4.10664453125,-0.13626250624656677,1.7806249856948853,0.43353748321533203
1788164381731734800,4.11673486328125,-0.34636250138282776,0.5724124908447266,-0.06861250102519989
1788164381741827300,4.126827392578125,-0.3268375098705292,0.3110249936580658,-0.09418749809265137
1788164381751912000,4.136911865234375,-0.23649999499320984,0.13021250069141388,-0.08689999580383301
1788164381761995800,4.146995849609375,-0.09721250087022781,-0.16307500004768372,-0.16266250610351562
1788164381772087600,4.157087646484375,0.03355000168085098,-0.4844124913215637,-0.26647499203681946
1788164381792251100,4.177251220703125,0.13378749787807465,-0.40369999408721924,-0.22123749554157257
1788164381802337300,4.187337158203125,0.12155000120401382,-0.09226249903440475,-0.08442500233650208
1788164381822511900,4.207511962890625,0.0005499999970197678,0.3293125033378601,0.19043749570846558
1788164381832599600,4.217599609375,-0.029975000768899918,0.3011249899864197,0.19648750126361847
1788164381842680800,4.227680908203125,-0.026262499392032623,0.21931250393390656,0.1354375034570694
1788164381852767000,4.23776708984375,-0.017737500369548798,0.09597499668598175,0.032862499356269836
1788164381862850600,4.2478505859375,-0.027499999850988388,-0.03849999979138374,-0.07837499678134918
1788164381872945400,4.2579453125,-0.05926249921321869,-0.08855000138282776,-0.13571250438690186
1788164381883035600,4.26803564453125,-0.09844999760389328,-0.07383749634027481,-0.10766249895095825
1788164381893131800,4.2781318359375,-0.11302500218153,-0.02983750030398369,-0.018424998968839645
1788164381903215000,4.288215087890625,-0.09226249903440475,0.05678749829530716,0.07315000146627426
1788164381913299700,4.2982998046875,-0.06902500241994858,0.11921250075101852,0.12443749606609344
1788164381923376600,4.308376708984375,-0.048262499272823334,0.10078749805688858,0.11343749612569809
1788164381933470500,4.318470458984375,-0.03973750025033951,0.005499999970197678,0.045099999755620956
1788164381943550200,4.32855029296875,-0.03849999979138374,-0.07383749634027481,-0.03918749839067459
1788164381953642500,4.338642578125,-0.04468749836087227,-0.11659999936819077,-0.08566249907016754
1788164381963732200,4.348732177734375,-0.03973750025033951,-0.12278749793767929,-0.08318749815225601
1788164381973826300,4.358826416015625,-0.015262499451637268,-0.06531249731779099,-0.050187498331069946
1788164381983914000,4.3689140625,0.022549999877810478,0.016499999910593033,-0.00989999994635582
1788164381994016800,4.379016845703125,0.036024998873472214,0.06778749823570251,0.0193875003606081
1788164382004109800,4.38910986328125,0.03726249933242798,0.08373750001192093,0.030387500301003456
1788164382014203100,4.399203125,0.015262499451637268,0.09721250087022781,0.040150001645088196
1788164382024288500,4.40928857421875,-0.0019249999895691872,-0.0017874999903142452,0.05967500060796738
1788164382034375700,4.419375732421875,0.02983750030398369,-0.4562250077724457,0.0719124972820282
1788164382044468700,4.42946875,0.11178749799728394,-1.388474941253662,0.040150001645088196
1788164382054552600,4.439552490234375,0.2143625020980835,-2.5808749198913574,-0.1639000028371811
1788164382064640300,4.44964013671875,0.1545500010251999,-1.9284374713897705,-0.4815250039100647
1788164382074726400,4.459726318359375,0.05678749829530716,-0.7422249913215637,-0.5841000080108643
1788164382084817400,4.4698173828125,0.048262499272823334,0.2890250086784363,-0.4094749987125397
1788164382094899500,4.4798994140625,0.12636250257492065,0.8338000178337097,-0.11866249889135361
1788164382104988200,4.48998828125,0.2083124965429306,0.6982250213623047,0.1256749927997589
1788164382115068400,4.500068359375,0.25341248512268066,0.2718375027179718,0.23925000429153442
1788164382125158100,4.510158203125,0.2778874933719635,0.03478749841451645,0.2307250052690506
1788164382135245300,4.520245361328125,0.3156999945640564,-0.1093124970793724,0.17215000092983246
1788164382145337000,4.530337158203125,0.30841249227523804,-0.31088748574256897,0.07686249911785126
1788164382155423000,4.540423095703125,0.24488750100135803,-0.4086500108242035,-0.02708750031888485
1788164382165506600,4.550506591796875,0.1471250057220459,-0.38788750767707825,-0.10037499666213989
1788164382175591400,4.56059130859375,0.06159999966621399,-0.23759999871253967,-0.11742500215768814
1788164382185682000,4.570681884765625,-0.055687498301267624,0.03244999796152115,-0.047849997878074646
1788164382195766000,4.58076611328125,-0.19002500176429749,0.20583750307559967,0.10243749618530273
1788164382205857000,4.59085693359375,-0.23154999315738678,0.22055000066757202,0.24791249632835388
1788164382215948800,4.60094873046875,-0.19002500176429749,0.20350000262260437,0.30277499556541443
1788164382226039300,4.611039306640625,-0.16197499632835388,0.1545500010251999,0.26372501254081726
1788164382236122000,4.6211220703125,-0.17778749763965607,0.1802625060081482,0.18796250224113464
1788164382246213600,4.631213623046875,-0.21449999511241913,0.1985500007867813,0.14038750529289246
1788164382256295000,4.641294921875,-0.2303124964237213,0.1313125044107437,0.12319999933242798
1788164382266388500,4.651388427734375,-0.13997499644756317,0.13626250624656677,0.0976250022649765
1788164382276479700,4.661479736328125,0.012787500396370888,0.2560249865055084,0.06091250106692314
1788164382286569500,4.671569580078125,0.12759999930858612,0.3854124844074249,0.023099999874830246
1788164382296645000,4.68164501953125,0.1471250057220459,0.41359999775886536,0.014574999921023846
1788164382306736000,4.691736083984375,0.10807500034570694,0.36959999799728394,0.02914999984204769
1788164382316818000,4.70181787109375,0.050599999725818634,0.3536500036716461,0.045099999755620956
1788164382326911200,4.7119111328125,0.023787500336766243,0.3891249895095825,0.05115000158548355
1788164382336992500,4.721992431640625,0.04207500070333481,0.4661250114440918,0.05609999969601631
1788164382347079700,4.73207958984375,0.08112499862909317,0.4111250042915344,0.05967500060796738
1788164382357165300,4.742165283203125,0.10078749805688858,0.22302499413490295,0.03657500073313713
1788164382367266800,4.752266845703125,0.07878749817609787,-0.2523125112056732,0.0010999999940395355
1788164382377358800,4.76235888671875,0.12031249701976776,-0.6627500057220459,-0.04661250114440918
1788164382387458300,4.772458251953125,0.06407500058412552,-1.0073250532150269,-0.08318749815225601
1788164382397551000,4.782551025390625,-0.1387374997138977,-1.029325008392334,-0.11990000307559967
1788164382407637000,4.792636962890625,-0.31459999084472656,-0.25712499022483826,0.04633750021457672
1788164382417727000,4.80272705078125,-0.4025999903678894,-0.18383750319480896,0.04867500066757202
1788164382427820800,4.81282080078125,-0.3573625087738037,-0.021312499418854713,-0.04166249930858612
1788164382437915600,4.82291552734375,-0.25850000977516174,-0.2046000063419342,-0.18700000643730164
1788164382448001000,4.8330009765625,-0.1350249946117401,-0.14354999363422394,-0.21876250207424164
1788164382458087400,4.84308740234375,-0.015262499451637268,-0.12526249885559082,-0.14190000295639038
1788164382468175000,4.853175048828125,0.13378749787807465,-0.19978749752044678,-0.07713750004768372
1788164382478265600,4.863265625,0.2901250123977661,-0.284074991941452,-0.037950001657009125
1788164382488354800,4.873354736328125,0.30717501044273376,-0.35241249203681946,-0.040424998849630356
1788164382498445300,4.8834453125,0.2241249978542328,-0.45746248960494995,-0.08813749998807907
1788164382508540200,4.8935400390625,0.12388750165700912,-0.5149375200271606,-0.14066250622272491
1788164382518626600,4.90362646484375,0.03959999978542328,-0.5026999711990356,-0.1564749926328659
1788164382528718800,4.91371875,-0.007974999956786633,-0.4281750023365021,-0.13337500393390656
1788164382538808000,4.92380810546875,0.0042624999769032,-0.3328875005245209,-0.09418749809265137
1788164382548909800,4.933909912109375,0.06531249731779099,-0.19978749752044678,-0.05142499879002571
1788164382558996500,4.94399658203125,0.06531249731779099,-0.0775500014424324,-0.00989999994635582
1788164382569081900,4.954081787109375,0.005499999970197678,-0.007974999956786633,0.01691249944269657
1788164382579177200,4.96417724609375,-0.05197500064969063,0.010449999943375587,0.04386249929666519
1788164382589273300,4.9742734375,-0.10078749805688858,0.022687500342726707,0.05843750014901161
1788164382599354400,4.984354248046875,-0.06668750196695328,-0.16788749396800995,0.05609999969601631
1788164382609447700,4.99444775390625,-0.0494999997317791,-0.09459999948740005,0.020624998956918716
1788164382619531800,5.00453173828125,-0.04221250116825104,0.15207499265670776,0.018149999901652336
1788164382629628200,5.014628173828125,-0.03726249933242798,0.11302500218153,0.013337500393390656
1788164382639720200,5.02472021484375,-0.048262499272823334,0.1093124970793724,-0.01718750037252903
1788164382649804500,5.034804443359375,-0.05444999784231186,0.08249999582767487,-0.030662499368190765
1788164382659890400,5.044890380859375,-0.07768750190734863,0.141075000166893,-0.018424998968839645
1788164382669988600,5.054988525390625,-0.07026249915361404,0.16431249678134918,0.020624998956918716
1788164382680082400,5.06508251953125,-0.04592499881982803,0.0873124971985817,0.062150001525878906
1788164382690179000,5.075178955078125,-0.0006874999962747097,-0.017737500369548798,0.06462500244379044
1788164382700278500,5.085278564453125,-0.026262499392032623,-0.1373624950647354,0.025575000792741776
1788164382710363100,5.095363037109375,-0.08373750001192093,-0.1863124966621399,-0.033137500286102295
1788164382720451300,5.105451416015625,-0.09350000321865082,-0.1508374959230423,-0.062424998730421066
1788164382730532900,5.115532958984375,-0.05197500064969063,-0.08978749811649323,-0.042899999767541885
1788164382740622300,5.125622314453125,-0.07273750007152557,0.04702499881386757,-0.011137500405311584
1788164382750710500,5.13571044921875,-0.1545500010251999,0.116737499833107,-0.002612499985843897
1788164382760799700,5.1457998046875,-0.09473749995231628,-0.07383749634027481,-0.02213750034570694
1788164382770890800,5.155890869140625,0.005499999970197678,-0.3316499888896942,-0.06861250102519989
1788164382780988000,5.16598779296875,0.03231250122189522,-0.48922500014305115,-0.10161250084638596
1788164382791073300,5.1760732421875,0.022549999877810478,-0.6077499985694885,-0.09913749992847443
1788164382801159000,5.186158935546875,-0.0042624999769032,-0.6077499985694885,-0.08318749815225601
1788164382811250000,5.19625,-0.03244999796152115,-0.3096500039100647,-0.04895000159740448
1788164382821340400,5.20634033203125,-0.020212499424815178,0.2523125112056732,0.0340999998152256
1788164382831427300,5.21642724609375,-0.04592499881982803,0.6762250065803528,0.13667500019073486
1788164382841513200,5.22651318359375,-0.08978749811649323,0.9487500190734863,0.1929125040769577
1788164382851603200,5.236603271484375,-0.148499995470047,1.017087459564209,0.1891999989748001
1788164382861693400,5.246693359375,-0.14354999363422394,1.12090003490448,0.14891250431537628
1788164382871773700,5.256773681640625,-0.1264999955892563,1.200374960899353,0.10491249710321426
1788164382881864000,5.266864013671875,-0.12278749793767929,1.155137538909912,0.06462500244379044
1788164382891951000,5.276951171875,-0.10326249897480011,1.0720875263214111,0.03891250118613243
1788164382902033700,5.28703369140625,-0.020212499424815178,1.3249499797821045,0.02433750033378601
1788164382912112000,5.297112060546875,0.0873124971985817,1.1673749685287476,0.037675000727176666
1788164382922198300,5.3071982421875,0.03355000168085098,0.15950000286102295,0.035337500274181366
1788164382932284400,5.317284423828125,-0.07878749817609787,-1.0133750438690186,-0.013612499460577965
1788164382942373600,5.32737353515625,-0.07768750190734863,-1.461762547492981,-0.13942499458789825
1788164382952462000,5.337462158203125,-0.0006874999962747097,-1.1892374753952026,-0.24818749725818634
1788164382962549800,5.3475498046875,0.07012499868869781,-0.5087500214576721,-0.25671249628067017
1788164382972634000,5.357634033203125,0.03355000168085098,0.19483749568462372,-0.15523749589920044
1788164382992810500,5.377810546875,-0.0006874999962747097,0.7605124711990356,0.13062499463558197
1788164383002905900,5.38790576171875,-0.010449999943375587,0.8082249760627747,0.21615000069141388
1788164383012993300,5.3979931640625,-0.027499999850988388,0.9400874972343445,0.26496249437332153
1788164383023088000,5.408088134765625,-0.03244999796152115,1.0745625495910645,0.2942500114440918
1788164383033179100,5.41817919921875,-0.09350000321865082,0.4978874921798706,0.2917749881744385
1788164383043261700,5.42826171875,-0.26455000042915344,-0.6089875102043152,0.08786249905824661
1788164383053346300,5.43834619140625,-0.35983750224113464,-1.051187515258789,-0.33976250886917114
1788164383063432200,5.44843212890625,-0.3195500075817108,-1.0073250532150269,-0.6000499725341797
1788164383073513500,5.458513427734375,-0.05321250110864639,-0.7750874757766724,-0.5010499954223633
1788164383093698000,5.478697998046875,0.8007999658584595,-0.27541249990463257,-0.013612499460577965
1788164383103784400,5.488784423828125,0.8533250093460083,-0.21683749556541443,0.06338749825954437
1788164383113874400,5.49887451171875,0.7310875058174133,-0.04207500070333481,0.040150001645088196
1788164383123964400,5.50896435546875,0.566224992275238,-0.029975000768899918,0.002337499987334013
1788164383134043400,5.51904345703125,0.37564998865127563,-0.2583625018596649,-0.01966249942779541
1788164383144134700,5.529134765625,0.172837495803833,-0.17531250417232513,0.0010999999940395355
1788164383154227500,5.5392275390625,0.005499999970197678,0.5516499876976013,0.07438749819993973
1788164383164311600,5.5493115234375,-0.22426250576972961,1.702525019645691,0.16967499256134033
1788164383174400000,5.55939990234375,-0.3330250084400177,1.8686250448226929,0.28696250915527344
1788164383184477700,5.569477783203125,-0.36959999799728394,1.3567124605178833,0.2662000060081482
1788164383194567700,5.579567626953125,-0.3353624939918518,0.5979874730110168,0.06462500244379044
1788164383204657700,5.58965771484375,-0.2180749922990799,-0.5906999707221985,-0.21889999508857727
1788164383214740500,5.599740478515625,-0.06544999778270721,-1.7256250381469727,-0.47533750534057617
1788164383224830500,5.60983056640625,0.08112499862909317,-1.824625015258789,-0.5963374972343445
1788164383234920000,5.619919921875,0.17407499253749847,-1.1758999824523926,-0.5010499954223633
1788164383245008400,5.63000830078125,0.2913624942302704,-0.6700375080108643,-0.25423750281333923
1788164383255088600,5.640088623046875,0.3817000091075897,-0.2363625019788742,0.04633750021457672
1788164383265174300,5.65017431640625,0.41222500801086426,0.09831249713897705,0.28091248869895935
1788164383275261700,5.66026171875,0.391462504863739,0.32807499170303345,0.3651999831199646
1788164383285346000,5.670345947265625,0.3694624900817871,0.43683749437332153,0.297962486743927
1788164383295436800,5.680436767578125,0.3438875079154968,0.522362470626831,0.14038750529289246
1788164383305514200,5.69051416015625,0.3474625051021576,0.6199874877929688,-0.013612499460577965
1788164383315607800,5.70060791015625,0.3694624900817871,0.34154999256134033,-0.17366249859333038
1788164383325695200,5.7106953125,0.4086500108242035,0.1190750002861023,-0.24695000052452087
1788164383335781600,5.72078173828125,0.4769875109195709,-0.05926249921321869,-0.24818749725818634
1788164383345865700,5.73086572265625,0.5992249846458435,-0.32436248660087585,-0.23471249639987946
1788164383355960600,5.740960693359375,0.7287499904632568,-0.46970000863075256,-0.11495000123977661
1788164383366041900,5.751041748046875,0.7530875205993652,-0.39765000343322754,0.07919999957084656
1788164383376136200,5.76113623046875,0.7605124711990356,-0.16060000658035278,0.24172499775886536
1788164383396314400,5.781314453125,0.8703749775886536,0.05073750019073486,0.25148749351501465
1788164383406397700,5.791397705078125,0.7836124897003174,-0.0518375001847744,0.12196250259876251
1788164383416496600,5.80149658203125,0.5124624967575073,-0.18136249482631683,0.05362499877810478
1788164383426584300,5.811584228515625,0.12264999747276306,-0.24131250381469727,0.004674999974668026
1788164383436662500,5.82166259765625,-0.2523125112056732,-0.2730749845504761,-0.013612499460577965
1788164383446744600,5.83174462890625,-0.5101249814033508,-0.2326499968767166,0.0035749999806284904
1788164383456840400,5.84184033203125,-0.6126999855041504,-0.10807500034570694,0.06091250106692314
1788164383466927400,5.85192724609375,-0.5736500024795532,0.16554999351501465,0.13296249508857727
1788164383477014300,5.86201416015625,-0.4563624858856201,0.5259374976158142,0.16596250236034393
1788164383487102500,5.8721025390625,-0.26455000042915344,1.0023750066757202,0.17215000092983246
1788164383497201700,5.88220166015625,-0.026399999856948853,1.440999984741211,0.16362500190734863
1788164383507292400,5.89229248046875,0.04331250116229057,1.5302374362945557,0.10986249893903732
1788164383517388000,5.902387939453125,-0.17902499437332153,1.2016124725341797,0.08415000140666962
1788164383527480600,5.91248046875,-0.3880249857902527,0.7556999921798706,0.02186249941587448
1788164383537575400,5.922575439453125,-0.5003625154495239,0.3830749988555908,-0.11495000123977661
1788164383547653600,5.932653564453125,-0.5016000270843506,-0.06283749639987946,-0.2079000025987625
1788164383557752000,5.942751953125,-0.4025999903678894,-0.5589374899864197,-0.19689999520778656
1788164383567839200,5.952839111328125,-0.2718375027179718,-0.9400874972343445,-0.10395000129938126
1788164383577936100,5.96293603515625,-0.20473749935626984,-1.0866625308990479,-0.01484999991953373
1788164383588020000,5.97302001953125,-0.20350000262260437,-0.9363750219345093,0.0193875003606081
1788164383598108700,5.983108642578125,-0.25107499957084656,-0.6089875102043152,0.02433750033378601
1788164383608193500,5.993193603515625,-0.3097875118255615,-0.1863124966621399,0.05486249923706055
1788164383618283500,6.003283447265625,-0.3255999982357025,0.16307500004768372,0.11096250265836716
1788164383628368100,6.0133681640625,-0.26455000042915344,0.3207874894142151,0.1354375034570694
1788164383638469400,6.023469482421875,-0.16197499632835388,0.2595999836921692,0.10986249893903732
1788164383648552400,6.033552490234375,-0.1106875017285347,0.09721250087022781,0.04743750020861626
1788164383658640400,6.043640380859375,-0.05444999784231186,0.009212499484419823,-0.013612499460577965
1788164383668732200,6.053732177734375,0.0017874999903142452,0.05555000156164169,-0.038087498396635056
1788164383678827000,6.063826904296875,0.03355000168085098,0.17902499437332153,-0.03189999982714653
1788164383688907800,6.07390771484375,0.011549999937415123,0.1985500007867813,-0.045375000685453415
1788164383698999600,6.08399951171875,-0.029975000768899918,0.1765500009059906,-0.057612501084804535
1788164383709083600,6.094083740234375,-0.07644999772310257,0.16431249678134918,-0.04661250114440918
1788164383719175400,6.104175537109375,-0.11550000309944153,0.09831249713897705,-0.016087500378489494
1788164383729259800,6.114259765625,-0.11550000309944153,0.08373750001192093,0.02914999984204769
1788164383739345200,6.12434521484375,-0.09226249903440475,0.1289750039577484,0.08538749814033508
1788164383749439000,6.13443896484375,-0.04221250116825104,0.2046000063419342,0.1391499936580658
1788164383759530000,6.144530029296875,0.005362499970942736,0.2498375028371811,0.15262499451637268
1788164383769619200,6.154619140625,0.03712499886751175,0.24860000610351562,0.12691250443458557
1788164383779708200,6.164708251953125,0.04207500070333481,0.1985500007867813,0.08910000324249268
1788164383789795300,6.17479541015625,0.04702499881386757,0.14231249690055847,0.06091250106692314
1788164383799893000,6.18489306640625,0.08607500046491623,0.1313125044107437,0.04386249929666519
1788164383809971200,6.19497119140625,0.141075000166893,0.15826250612735748,0.03891250118613243
1788164383820067800,6.20506787109375,0.19483749568462372,0.18754999339580536,0.040150001645088196
1788164383830153000,6.215153076171875,0.22783750295639038,0.1863124966621399,0.04386249929666519
1788164383840244000,6.225243896484375,0.23017500340938568,0.16926249861717224,0.04867500066757202
1788164383850326000,6.235325927734375,0.19607499241828918,0.15331250429153442,0.06091250106692314
1788164383860415700,6.245415771484375,0.15331250429153442,0.18150000274181366,0.07809999585151672
1788164383870500000,6.2555,0.133650004863739,0.2633124887943268,0.08662500232458115
1788164383880587500,6.26558740234375,0.13983750343322754,0.36959999799728394,0.09391249716281891
1788164383890677200,6.27567724609375,0.16307500004768372,0.42707499861717224,0.10615000128746033
1788164383900765200,6.28576513671875,0.18012499809265137,0.38788750767707825,0.10491249710321426
1788164383910848500,6.2958486328125,0.18012499809265137,0.28283751010894775,0.08786249905824661
1788164383920936400,6.3059365234375,0.16183750331401825,0.16802500188350677,0.07067500054836273
1788164383931026400,6.3160263671875,0.15207499265670776,0.0873124971985817,0.062150001525878906
1788164383941116400,6.326116455078125,0.15936249494552612,0.05926249921321869,0.05609999969601631
1788164383951207200,6.336207275390625,0.18507499992847443,0.07631249725818634,0.04867500066757202
1788164383961301200,6.34630126953125,0.2143625020980835,0.09226249903440475,0.037675000727176666
1788164383971382500,6.356382568359375,0.23512500524520874,0.08249999582767487,0.015675000846385956
1788164383981474300,6.366474365234375,0.23993749916553497,0.060499999672174454,-0.012374999932944775
1788164383991558700,6.37655859375,0.22536249458789825,0.027499999850988388,-0.033137500286102295
1788164384001650000,6.38664990234375,0.19841249287128448,-0.014024999924004078,-0.04413750022649765
1788164384011732500,6.396732421875,0.1691250056028366,-0.03973750025033951,-0.04661250114440918
1788164384021824000,6.406823974609375,0.14588749408721924,-0.05073750019073486,-0.04908749833703041
1788164384031910100,6.41691015625,0.12636250257492065,-0.06902500241994858,-0.05389999970793724
1788164384042000000,6.426999755859375,0.11055000126361847,-0.0812624990940094,-0.06366249918937683
1788164384052077300,6.437077392578125,0.09088750183582306,-0.08483749628067017,-0.07095000147819519
1788164384062163000,6.447162841796875,0.053075000643730164,-0.10202500224113464,-0.06366249918937683
1788164384072249000,6.4572490234375,0.026124998927116394,-0.10202500224113464,-0.040424998849630356
1788164384082338800,6.4673388671875,0.0017874999903142452,-0.05555000156164169,-0.00989999994635582
1788164384092434200,6.47743408203125,-0.020212499424815178,0.0042624999769032,0.023099999874830246
1788164384102535200,6.48753515625,-0.05073750019073486,0.03478749841451645,0.040150001645088196
1788164384112631600,6.497631591796875,-0.08016250282526016,0.03355000168085098,0.030387500301003456
1788164384122727400,6.5077275390625,-0.10821250081062317,0.015262499451637268,0.0193875003606081
1788164384142906600,6.52790673828125,-0.1522125005722046,-0.07507500052452087,0.035337500274181366
1788164384152996900,6.537996826171875,-0.15468749403953552,-0.06407500058412552,0.05238749831914902
1788164384163081000,6.5480810546875,-0.1522125005722046,-0.04097500070929527,0.06710000336170197
1788164384173181200,6.55818115234375,-0.15702499449253082,-0.04331250116229057,0.062150001525878906
1788164384183260000,6.568260009765625,-0.16197499632835388,-0.06283749639987946,0.02433750033378601
1788164384193351000,6.578350830078125,-0.16926249861717224,-0.07273750007152557,-0.01484999991953373
1788164384203422700,6.588422607421875,-0.1802625060081482,-0.10078749805688858,-0.03918749839067459
1788164384213521400,6.598521484375,-0.18150000274181366,-0.13255000114440918,-0.05142499879002571
1788164384223606300,6.608606201171875,-0.16321249306201935,-0.12155000120401382,-0.047849997878074646
1788164384233694000,6.61869384765625,-0.1350249946117401,-0.08855000138282776,-0.03684999793767929
1788164384243781000,6.628781005859375,-0.11302500218153,-0.0775500014424324,-0.030662499368190765
1788164384253870000,6.6388701171875,-0.09350000321865082,-0.06531249731779099,-0.047849997878074646
1788164384263961600,6.648961669921875,-0.08868750184774399,-0.031075000762939453,-0.059950001537799835
1788164384274050000,6.659050048828125,-0.09721250087022781,-0.0017874999903142452,-0.050187498331069946
1788164384284144600,6.66914453125,-0.09350000321865082,0.005499999970197678,-0.033137500286102295
1788164384294240500,6.679240478515625,-0.0752125009894371,0.015262499451637268,-0.013612499460577965
1788164384304327700,6.68932763671875,-0.05692499876022339,0.03244999796152115,-0.00013749999925494194
1788164384314417700,6.699417724609375,-0.04468749836087227,0.021449999883770943,0.0035749999806284904
1788164384324507000,6.7095068359375,-0.03616249933838844,0.0006874999962747097,-0.002612499985843897
1788164384334596400,6.719596435546875,-0.029975000768899918,-0.028737500309944153,-0.00013749999925494194
1788164384344694000,6.729694091796875,-0.03973750025033951,-0.07878749817609787,0.007149999961256981
1788164384354782000,6.739781982421875,-0.04592499881982803,-0.09583749622106552,0.010862499475479126
1788164384364873500,6.74987353515625,-0.04468749836087227,-0.05555000156164169,0.009624999947845936
1788164384374966800,6.759966796875,-0.03616249933838844,0.0042624999769032,0.005912499967962503
1788164384385066000,6.77006591796875,-0.028737500309944153,0.031212499365210533,-0.005087499972432852
1788164384395165700,6.780165771484375,-0.004399999976158142,0.0494999997317791,-0.018424998968839645
1788164384405260000,6.790260009765625,0.005362499970942736,0.027499999850988388,-0.02213750034570694
1788164384415361800,6.80036181640625,-0.009212499484419823,-0.03355000168085098,-0.02708750031888485
1788164384425456400,6.810456298828125,-0.010449999943375587,-0.028737500309944153,-0.018424998968839645
1788164384435550700,6.82055078125,0.0017874999903142452,0.026262499392032623,0.010862499475479126
1788164384445643500,6.8306435546875,0.0030249999836087227,0.08249999582767487,0.02667500078678131
1788164384455737000,6.840737060546875,0.022549999877810478,0.1350249946117401,0.023099999874830246
1788164384465843000,6.850843017578125,0.031075000762939453,0.11055000126361847,0.002337499987334013
1788164384475929300,6.860929443359375,0.022549999877810478,0.048262499272823334,-0.02461249940097332
1788164384486013200,6.87101318359375,0.02502499893307686,0.0042624999769032,-0.033137500286102295
1788164384496106200,6.881106201171875,0.03355000168085098,-0.0042624999769032,-0.035612501204013824
1788164384506205700,6.891205810546875,0.06283749639987946,0.07631249725818634,-0.01966249942779541
1788164384516345000,6.901344970703125,0.0775500014424324,0.06902500241994858,-0.02461249940097332
1788164384526432800,6.911432861328125,0.09212499856948853,0.0017874999903142452,-0.05884999781847
1788164384536520700,6.921520751953125,0.10188750177621841,-0.0518375001847744,-0.07342500239610672
1788164384546615600,6.931615478515625,0.09212499856948853,-0.06902500241994858,-0.059950001537799835
1788164384556696800,6.94169677734375,0.07012499868869781,-0.027499999850988388,-0.03918749839067459
1788164384566789000,6.9517890625,0.050599999725818634,0.05678749829530716,-0.023375000804662704
1788164384576878300,6.96187841796875,0.048124998807907104,0.1264999955892563,-0.005087499972432852
1788164384586966800,6.971966796875,0.028599999845027924,0.09226249903440475,-0.013612499460577965
1788164384597050600,6.982050537109375,0.0042624999769032,0.02502499893307686,-0.06613750010728836
1788164384607144400,6.99214453125,-0.0031624999828636646,0.009212499484419823,-0.10518749803304672
1788164384617235000,7.00223486328125,-0.021449999883770943,-0.04097500070929527,-0.13942499458789825
1788164384627324400,7.012324462890625,-0.05444999784231186,-0.12636250257492065,-0.1699499934911728
1788164384637411600,7.02241162109375,-0.043449997901916504,-0.17036250233650208,-0.16266250610351562
1788164384647500500,7.03250048828125,-0.04097500070929527,-0.16183750331401825,-0.1662375032901764
1788164384657585400,7.04258544921875,-0.0789249986410141,-0.09707500040531158,-0.1919499933719635
1788164384667675000,7.0526748046875,-0.09597499668598175,-0.036024998873472214,-0.1882375031709671
1788164384677767000,7.062766845703125,-0.11302500218153,-0.011549999937415123,-0.17847499251365662
1788164384687857400,7.072857421875,-0.17173749208450317,0.016499999910593033,-0.17847499251365662
1788164384697946000,7.082946044921875,-0.22550000250339508,0.031212499365210533,-0.12347500026226044
1788164384708041700,7.093041748046875,-0.2620750069618225,0.03244999796152115,-0.07218749821186066
1788164384718134000,7.103134033203125,-0.3073124885559082,0.0494999997317791,-0.08195000141859055
1788164384728229400,7.1132294921875,-0.358599990606308,0.08855000138282776,-0.050187498331069946
1788164384738318600,7.123318603515625,-0.3793624937534332,0.13378749787807465,-0.0038499999791383743
1788164384748411400,7.133411376953125,-0.3867875039577484,0.17407499253749847,-0.02213750034570694
1788164384758495200,7.1434951171875,-0.3745499849319458,0.20350000262260437,-0.03918749839067459
1788164384768586200,7.153586181640625,-0.3330250084400177,0.2461249977350235,-0.03684999793767929
1788164384778672000,7.163672119140625,-0.27431249618530273,0.2730749845504761,-0.05142499879002571
1788164384788762600,7.1737626953125,-0.2120250016450882,0.2461249977350235,-0.04166249930858612
1788164384808947200,7.193947265625,-0.1069749966263771,0.18507499992847443,-0.020899999886751175
1788164384819031300,7.20403125,-0.0849749967455864,0.1190750002861023,-0.00013749999925494194
1788164384829124000,7.2141240234375,-0.0849749967455864,0.0494999997317791,0.007149999961256981
1788164384839215400,7.22421533203125,-0.10326249897480011,0.045787498354911804,-0.002612499985843897
1788164384849309700,7.234309814453125,-0.12773749232292175,0.0775500014424324,0.02186249941587448
1788164384859393500,7.2443935546875,-0.13378749787807465,0.12278749793767929,0.02186249941587448
1788164384869482800,7.254482666015625,-0.116737499833107,0.1545500010251999,0.009624999947845936
1788164384879564500,7.264564453125,-0.0849749967455864,0.14973749220371246,0.0340999998152256
1788164384889655300,7.2746552734375,-0.07026249915361404,0.1508374959230423,0.015675000846385956
1788164384899735300,7.2847353515625,-0.07273750007152557,0.14973749220371246,-0.025849999859929085
1788164384909831000,7.294830810546875,-0.07397499680519104,0.10573749989271164,-0.050187498331069946
1788164384919921200,7.304921142578125,-0.07397499680519104,0.007974999956786633,-0.1284250020980835
1788164384930014000,7.315013916015625,-0.055687498301267624,-0.13859999179840088,-0.1919499933719635
1788164384940100400,7.325100341796875,-0.026399999856948853,-0.21683749556541443,-0.24695000052452087
1788164384950197000,7.335197021484375,-0.017737500369548798,-0.2008875012397766,-0.3409999907016754
1788164384960292900,7.34529296875,0.012787500396370888,-0.16802500188350677,-0.41071251034736633
1788164384970384000,7.3553837890625,0.06283749639987946,-0.14836250245571136,-0.4632374942302704
1788164384980471800,7.365471923828125,0.1214125007390976,-0.09226249903440475,-0.49857500195503235
1788164384990568400,7.375568359375,0.2143625020980835,0.016499999910593033,-0.5170000195503235
1788164385010745600,7.39574560546875,0.319412499666214,0.07273750007152557,-0.5828624963760376
1788164385020835800,7.4058359375,0.34869998693466187,0.02502499893307686,-0.5816249847412109
1788164385030957600,7.41595751953125,0.37441250681877136,0.009212499484419823,-0.5805249810218811
1788164385041039400,7.426039306640625,0.39393749833106995,0.05678749829530716,-0.5768125057220459
1788164385051132000,7.4361318359375,0.39998748898506165,0.1387374997138977,-0.5498625040054321
1788164385061216800,7.446216796875,0.3975124955177307,0.1765500009059906,-0.47423750162124634
1788164385071312100,7.45631201171875,0.42570000886917114,0.1508374959230423,-0.3605250120162964
1788164385081390000,7.46639013671875,0.45746248960494995,0.16183750331401825,-0.22495000064373016
1788164385091481900,7.47648193359375,0.46970000863075256,0.2217874974012375,-0.1223749965429306
1788164385101571600,7.486571533203125,0.47203749418258667,0.31212499737739563,-0.0611874982714653
1788164385111656700,7.49665673828125,0.46598750352859497,0.36588749289512634,-0.01484999991953373
1788164385121744100,7.506744140625,0.4489375054836273,0.37812501192092896,0.015675000846385956
1788164385131839700,7.51683984375,0.4171749949455261,0.36959999799728394,0.025437500327825546
1788164385141925000,7.526925048828125,0.3438875079154968,0.3548874855041504,0.025437500327825546
1788164385152023600,7.5370234375,0.22769999504089355,0.3610749840736389,0.018149999901652336
1788164385162110200,7.547110107421875,0.07012499868869781,0.3806000053882599,0.018149999901652336
1788164385172195600,7.557195556640625,-0.0849749967455864,0.38183748722076416,-0.002612499985843897
1788164385182280400,7.567280517578125,-0.15468749403953552,0.3011249899864197,-0.04661250114440918
1788164385192376600,7.57737646484375,-0.09968750178813934,0.19978749752044678,-0.07590000331401825
1788164385202464800,7.58746484375,-0.03492499887943268,0.1264999955892563,-0.0966624990105629
1788164385212561000,7.597560791015625,-0.023924998939037323,0.08249999582767487,-0.11495000123977661
1788164385222649000,7.607649169921875,-0.03244999796152115,0.010449999943375587,-0.13089999556541443
1788164385232751900,7.617751953125,-0.0471624992787838,-0.07507500052452087,-0.12966249883174896
1788164385242837500,7.62783740234375,-0.07273750007152557,-0.1691250056028366,-0.10271249711513519
1788164385263025400,7.648025390625,-0.1802625060081482,-0.06655000150203705,-0.11866249889135361
1788164385273122800,7.658122802734375,-0.23278750479221344,-0.022549999877810478,-0.11866249889135361
1788164385283209000,7.668208984375,-0.2780250012874603,-0.010312499478459358,-0.10161250084638596
1788164385293299000,7.678298828125,-0.30607500672340393,0.012787500396370888,-0.07218749821186066
1788164385303387400,7.688387451171875,-0.30483749508857727,0.03726249933242798,-0.04908749833703041
1788164385313476000,7.69847607421875,-0.2730749845504761,0.048262499272823334,-0.055137500166893005
1788164385323558400,7.708558349609375,-0.22550000250339508,0.029975000768899918,-0.06613750010728836
1788164385333645800,7.718645751953125,-0.16926249861717224,-0.012787500396370888,-0.0611874982714653
1788164385343732700,7.728732666015625,-0.11550000309944153,-0.036024998873472214,-0.05142499879002571
1788164385353831400,7.73883154296875,-0.08373750001192093,-0.07026249915361404,-0.03189999982714653
1788164385363927600,7.748927490234375,-0.07768750190734863,-0.08978749811649323,-0.00989999994635582
1788164385374020400,7.759020263671875,-0.09226249903440475,-0.053075000643730164,0.004674999974668026
1788164385384115500,7.769115478515625,-0.11426249891519547,-0.020075000822544098,0.0340999998152256
1788164385394209000,7.779208984375,-0.11921250075101852,0.009212499484419823,0.06091250106692314
1788164385404300000,7.789300048828125,-0.1106875017285347,0.08249999582767487,0.06338749825954437
1788164385414390000,7.79939013671875,-0.09226249903440475,0.14973749220371246,0.07562500238418579
1788164385424478500,7.809478515625,-0.06421250104904175,0.1802625060081482,0.09638749808073044
1788164385434571800,7.81957177734375,-0.05197500064969063,0.19607499241828918,0.0999625027179718
1788164385444663000,7.8296630859375,-0.06297499686479568,0.2120250016450882,0.09638749808073044
1788164385454761700,7.83976171875,-0.06544999778270721,0.2083124965429306,0.09638749808073044
1788164385464851500,7.8498515625,-0.04468749836087227,0.18878750503063202,0.10615000128746033
1788164385474942500,7.8599423828125,-0.014162499457597733,0.1545500010251999,0.1451999992132187
1788164385485031200,7.87003125,0.010312499478459358,0.14602500200271606,0.20514999330043793
1788164385495122000,7.880121826171875,0.04688749834895134,0.17159999907016754,0.26743748784065247
1788164385505226800,7.890226806640625,0.08841250091791153,0.1985500007867813,0.3137750029563904
1788164385515327500,7.900327392578125,0.13612499833106995,0.21078750491142273,0.3382500112056732
1788164385525411800,7.910411865234375,0.1691250056028366,0.20954999327659607,0.3357749879360199
1788164385535496700,7.92049658203125,0.19470000267028809,0.1825999915599823,0.3260124921798706
1788164385545594000,7.930593994140625,0.21312500536441803,0.16802500188350677,0.29548749327659607
1788164385565782500,7.950782470703125,0.1116499975323677,0.18136249482631683,0.19415000081062317
1788164385575870200,7.9608701171875,0.07012499868869781,0.13255000114440918,0.15372499823570251
1788164385585965600,7.970965576171875,0.040837500244379044,0.07631249725818634,0.1354375034570694
1788164385596051500,7.981051513671875,0.022549999877810478,0.020212499424815178,0.13062499463558197
1788164385606147000,7.99114697265625,0.005362499970942736,-0.0494999997317791,0.14038750529289246
1788164385616241700,8.00124169921875,-0.021449999883770943,-0.10683749616146088,0.1574375033378601
1788164385626338600,8.011338623046875,-0.05087500065565109,-0.09583749622106552,0.17572499811649323
1788164385636423000,8.0214228515625,-0.055687498301267624,0.005499999970197678,0.19648750126361847
1788164385646521600,8.031521484375,-0.06544999778270721,0.10573749989271164,0.23567499220371246
1788164385656607200,8.041607177734376,-0.08744999766349792,0.13626250624656677,0.27348750829696655
1788164385666697700,8.05169775390625,-0.11797499656677246,0.19359999895095825,0.26977500319480896
1788164385676787000,8.061786865234374,-0.14492499828338623,0.25478750467300415,0.22948749363422394
1788164385686882000,8.071882080078124,-0.16692499816417694,0.2938374876976013,0.1769624948501587
1788164385696967200,8.08196728515625,-0.18645000457763672,0.29631251096725464,0.12815000116825104
1788164385707061200,8.092061279296875,-0.2096875011920929,0.2681249976158142,0.0999625027179718
1788164385717148000,8.10214794921875,-0.23045000433921814,0.22659999132156372,0.11591249704360962
1788164385727249200,8.112249267578125,-0.2475000023841858,0.19978749752044678,0.15867500007152557
1788164385737337300,8.12233740234375,-0.2560249865055084,0.21683749556541443,0.20514999330043793
1788164385747436800,8.132436767578126,-0.24997499585151672,0.2620750069618225,0.23196250200271606
1788164385757528800,8.14252880859375,-0.22921249270439148,0.3293125033378601,0.23567499220371246
1788164385767623000,8.152622802734374,-0.1999250054359436,0.3708375096321106,0.2124374955892563
1788164385777711000,8.162711181640624,-0.16692499816417694,0.367125004529953,0.16843749582767487
1788164385787810000,8.17281005859375,-0.1424500048160553,0.3073124885559082,0.11962500214576721
1788164385797899500,8.1828994140625,-0.11921250075101852,0.2143625020980835,0.08538749814033508
1788164385807987000,8.192987060546875,-0.07163749635219574,0.14231249690055847,0.0658624991774559
1788164385818073000,8.203072998046874,-0.006874999962747097,0.11055000126361847,0.06338749825954437
1788164385828163800,8.213163818359375,0.05431250110268593,0.13378749787807465,0.0658624991774559
1788164385838247000,8.223246826171875,0.10188750177621841,0.1863124966621399,0.08167500048875809
1788164385848342800,8.2333427734375,0.1691250056028366,0.2046000063419342,0.10119999945163727
1788164385858431700,8.243431640625,0.255887508392334,0.16307500004768372,0.13062499463558197
1788164385868521000,8.25352099609375,0.3339875042438507,0.11426249891519547,0.15991249680519104
1788164385878616800,8.263616943359375,0.40974998474121094,0.09831249713897705,0.20514999330043793
1788164385888702700,8.27370263671875,0.47327500581741333,0.10078749805688858,0.2527250051498413
1788164385898788600,8.28378857421875,0.5075125098228455,0.1313125044107437,0.2844874858856201
1788164385908872400,8.29387255859375,0.5368000268936157,0.17407499253749847,0.3137750029563904
1788164385918952200,8.3039521484375,0.549037516117096,0.18507499992847443,0.3114374876022339
1788164385929044200,8.314044189453124,0.5405125021934509,0.19483749568462372,0.2807750105857849
1788164385939134500,8.324134521484375,0.5319874882698059,0.19359999895095825,0.24543750286102295
1788164385979479300,8.364479248046875,0.6223250031471252,0.020212499424815178,0.12691250443458557
1788164385999653600,8.384653564453124,0.6650875210762024,0.060499999672174454,0.1293874979019165
1788164386009748000,8.394748046875,0.6773250102996826,0.1264999955892563,0.11715000122785568
1788164386019838200,8.404838134765624,0.6663249731063843,0.16307500004768372,0.07919999957084656
1788164386029933300,8.414933349609376,0.6480374932289124,0.17407499253749847,0.04619999974966049
1788164386040016100,8.42501611328125,0.6272749900817871,0.1288374960422516,0.002337499987334013
1788164386050115800,8.43511572265625,0.6028000116348267,0.05678749829530716,-0.052662499248981476
1788164386060198000,8.445197998046876,0.5917999744415283,0.045787498354911804,-0.11013749986886978
1788164386070286600,8.45528662109375,0.5942749977111816,0.05555000156164169,-0.1601874977350235
1788164386080377600,8.465377685546875,0.5942749977111816,0.08855000138282776,-0.20666250586509705
1788164386090472000,8.475471923828126,0.5735124945640564,0.09473749995231628,-0.2554749846458435
1788164386100554800,8.4855546875,0.545324981212616,0.10326249897480011,-0.272662490606308
1788164386110649300,8.4956494140625,0.5282750129699707,0.10202500224113464,-0.27623748779296875
1788164386120734700,8.505734619140625,0.5160375237464905,0.12278749793767929,-0.2774749994277954
1788164386130828800,8.515828857421875,0.4904625117778778,0.15578749775886536,-0.29823750257492065
1788164386140918300,8.525918212890625,0.4622749984264374,0.16802500188350677,-0.3251875042915344
1788164386151013600,8.536013671875,0.4622749984264374,0.09707500040531158,-0.344712495803833
1788164386161102300,8.546102294921875,0.4745124876499176,0.03973750025033951,-0.36547499895095825
1788164386171191800,8.55619189453125,0.47574999928474426,0.048262499272823334,-0.3862375020980835
1788164386181275100,8.566275146484376,0.4525125026702881,0.10449999570846558,-0.40094998478889465
1788164386191364400,8.5763642578125,0.40974998474121094,0.1802625060081482,-0.41071251034736633
1788164386201442300,8.5864423828125,0.3792249858379364,0.2730749845504761,-0.42899999022483826
1788164386211534800,8.596534912109375,0.4049375057220459,0.32065001130104065,-0.44481250643730164
1788164386221626600,8.606626708984376,0.4342249929904938,0.31212499737739563,-0.46076250076293945
1788164386231711700,8.616711669921875,0.45003750920295715,0.2461249977350235,-0.4692874848842621
1788164386241802200,8.62680224609375,0.4745124876499176,0.15950000286102295,-0.4545750021934509
1788164386251901400,8.6369013671875,0.509987473487854,0.10807500034570694,-0.4240500032901764
1788164386261993700,8.64699365234375,0.5417500138282776,0.13255000114440918,-0.3959999978542328
1788164386272081700,8.65708154296875,0.5343250036239624,0.24860000610351562,-0.4119499921798706
1788164386282170600,8.667170654296875,0.5087500214576721,0.358599990606308,-0.45704999566078186
1788164386292262700,8.6772626953125,0.48179998993873596,0.37812501192092896,-0.5095750093460083
1788164386302349300,8.687349365234375,0.4587000012397766,0.3511750102043152,-0.5670499801635742
1788164386312444200,8.697444091796875,0.4464625120162964,0.28036248683929443,-0.619575023651123
1788164386322535000,8.707534912109375,0.4207499921321869,0.22783750295639038,-0.6232874989509583
1788164386342722000,8.72772216796875,0.3279374837875366,0.21559999883174896,-0.5010499954223633
1788164386352819000,8.73781884765625,0.3022249937057495,0.22302499413490295,-0.408237487077713
1788164386362911700,8.747911865234375,0.2924624979496002,0.31088748574256897,-0.3227125108242035
1788164386373008400,8.75800830078125,0.28022500872612,0.47341248393058777,-0.26647499203681946
1788164386383100000,8.768099853515626,0.24488750100135803,0.566224992275238,-0.24199999868869781
1788164386393227800,8.778227783203125,0.19470000267028809,0.49912500381469727,-0.23594999313354492
1788164386403317000,8.78831689453125,0.12759999930858612,0.4246000051498413,-0.2457125037908554
1788164386413405000,8.798405029296875,0.05431250110268593,0.41964998841285706,-0.2689499855041504
1788164386423492000,8.8084921875,-0.010449999943375587,0.38788750767707825,-0.2872374951839447
1788164386433581000,8.8185810546875,-0.05939999967813492,0.2876499891281128,-0.2934249937534332
1788164386443670000,8.828669921875,-0.10573749989271164,0.17036250233650208,-0.2872374951839447
1788164386453756700,8.838756591796875,-0.15468749403953552,0.04097500070929527,-0.2628999948501587
1788164386463843600,8.848843505859374,-0.18658749759197235,-0.015262499451637268,-0.2199999988079071
1788164386473937000,8.85893701171875,-0.19511249661445618,0.010449999943375587,-0.1699499934911728
1788164386484028700,8.869028564453124,-0.1755875051021576,0.07273750007152557,-0.13571250438690186
1788164386494120000,8.879119873046875,-0.13653749227523804,0.12155000120401382,-0.11247500032186508
1788164386504216300,8.88921630859375,-0.09129999577999115,0.1765500009059906,-0.08318749815225601
1788164386514303000,8.899302978515625,-0.03629999980330467,0.13997499644756317,-0.12099999934434891
1788164386524395500,8.9093955078125,0.01746249943971634,-0.05555000156164169,-0.19304999709129333
1788164386534489600,8.919489501953125,0.06751249730587006,-0.2241249978542328,-0.2199999988079071
1788164386544583700,8.929583740234374,0.11151249706745148,-0.1788875013589859,-0.18095000088214874
1788164386554664400,8.93966455078125,0.1358499974012375,-0.03478749841451645,-0.1405249983072281
1788164386564759300,8.94975927734375,0.15674999356269836,-0.011549999937415123,-0.12347500026226044
1788164386574842600,8.959842529296875,0.14932499825954437,-0.0030249999836087227,-0.11371249705553055
1788164386584935400,8.969935302734376,0.1163249984383583,0.14231249690055847,-0.10023749619722366
1788164386595016200,8.98001611328125,0.082225002348423,0.2633124887943268,-0.0989999994635582
1788164386605107500,8.990107421875,0.043037500232458115,0.2877874970436096,-0.11852499842643738
1788164386615202800,9.000202880859375,-0.0032999999821186066,0.23154999315738678,-0.13199999928474426
1788164386625299000,9.010298828125,-0.06324999779462814,0.1350249946117401,-0.11371249705553055
1788164386635392800,9.020392822265626,-0.14024999737739563,0.05678749829530716,-0.08195000141859055
1788164386645489200,9.0304892578125,-0.21834999322891235,0.06297499686479568,-0.047712501138448715
1788164386655580400,9.040580322265624,-0.2733500003814697,0.15097500383853912,-0.011137500405311584
1788164386665681000,9.050680908203125,-0.3063499927520752,0.284074991941452,0.02681249938905239
1788164386675771600,9.060771728515626,-0.3161124885082245,0.3891249895095825,0.04633750021457672
1788164386685864000,9.070864013671875,-0.3100624978542328,0.3745499849319458,0.05128749832510948
1788164386695949800,9.08094970703125,-0.3026374876499176,0.20954999327659607,0.06228749826550484
1788164386706039000,9.0910390625,-0.31735000014305115,0.04221250116825104,0.08415000140666962
1788164386716122400,9.101122314453125,-0.35516250133514404,0.014024999924004078,0.12581250071525574
1788164386726219500,9.111219482421875,-0.39434999227523804,0.15702499449253082,0.17586250603199005
1788164386736299800,9.1212998046875,-0.4358749985694885,0.367125004529953,0.17586250603199005
1788164386746393600,9.1313935546875,-0.4553999900817871,0.5246999859809875,0.14038750529289246
1788164386756486700,9.141486572265626,-0.4394499957561493,0.5259374976158142,0.14409999549388885
1788164386766580200,9.151580322265625,-0.4248749911785126,0.37578749656677246,0.1746249943971634
1788164386776673300,9.16167333984375,-0.4456374943256378,0.13021250069141388,0.1966249942779541
1788164386786769200,9.17176904296875,-0.477400004863739,-0.1471250057220459,0.234437495470047
1788164386796862500,9.181862548828125,-0.49939998984336853,-0.22907499969005585,0.297962486743927
1788164386806959000,9.191958984375,-0.4846875071525574,0.0042624999769032,0.34443750977516174
1788164386817052700,9.202052734375,-0.44440001249313354,0.3683624863624573,0.3614875078201294
1788164386827147500,9.2121474609375,-0.41635000705718994,0.6274124979972839,0.38472500443458557
1788164386837238500,9.222238525390624,-0.4174500107765198,0.771512508392334,0.4152500033378601
1788164386847339500,9.232339599609375,-0.4516874849796295,0.8557999730110168,0.47519999742507935
1788164386857430500,9.242430419921876,-0.5091624855995178,0.8839874863624573,0.5887749791145325
1788164386867522800,9.252522705078125,-0.5946875214576721,0.8998000025749207,0.686537504196167
1788164386877619700,9.26261962890625,-0.6472125053405762,0.8925125002861023,0.7231125235557556
1788164386887714300,9.27271435546875,-0.6092625260353088,0.7935125231742859,0.7561125159263611
1788164386897811500,9.2828115234375,-0.4811125099658966,0.6542249917984009,0.8184000253677368
1788164386907901000,9.29290087890625,-0.29906249046325684,0.6114624738693237,0.8893499970436096
1788164386918012400,9.303012451171876,-0.12182500213384628,0.6639875173568726,0.9198749661445618
1788164386928101400,9.313101318359376,0.10779999941587448,0.7935125231742859,0.8991125226020813
1788164386938182100,9.32318212890625,0.320374995470047,0.7666999697685242,0.8086374998092651
1788164386948274700,9.333274658203125,0.5121874809265137,0.4844124913215637,0.612012505531311
1788164386958364400,9.343364501953126,0.49994999170303345,0.15702499449253082,0.38596248626708984
1788164386968487200,9.353487060546875,0.42666250467300415,-0.28283751010894775,0.18314999341964722
1788164386978569500,9.363569580078124,0.3436124920845032,-0.7555624842643738,0.02186249941587448
1788164386988657000,9.373656982421876,0.2593249976634979,-1.134374976158142,-0.07947500050067902
1788164386998743800,9.383743896484376,0.16279999911785126,-1.312712550163269,-0.1247124969959259
1788164387008830500,9.39383056640625,0.050324998795986176,-1.2614250183105469,-0.11247500032186508
1788164387018944000,9.403944091796875,-0.06806249916553497,-1.0146124362945557,-0.03918749839067459
1788164387029034500,9.414034423828125,-0.179299995303154,-0.649275004863739,0.07809999585151672
1788164387039125200,9.424125244140624,-0.29782500863075256,-0.20212499797344208,0.19167499244213104
1788164387049217300,9.43421728515625,-0.39668750762939453,0.19978749752044678,0.2576749920845032
1788164387059304700,9.4443046875,-0.4456374943256378,0.40012499690055847,0.29438748955726624
1788164387069392100,9.45439208984375,-0.45663750171661377,0.4283125102519989,0.2857249975204468
1788164387079474700,9.464474609375,-0.43463748693466187,0.3745499849319458,0.22220000624656677
1788164387089567000,9.47456689453125,-0.36616250872612,0.22055000066757202,0.15262499451637268
1788164387099653000,9.484653076171876,-0.2733500003814697,0.03244999796152115,0.10257499665021896
1788164387109745700,9.49474560546875,-0.18535000085830688,-0.07878749817609787,0.08304999768733978
1788164387119841000,9.504841064453124,-0.13282500207424164,-0.07383749634027481,0.08786249905824661
1788164387129938000,9.51493798828125,-0.11948750168085098,0.010449999943375587,0.11110000312328339
1788164387140023300,9.525023193359376,-0.14135000109672546,0.15207499265670776,0.08304999768733978
1788164387150117400,9.535117431640625,-0.15853749215602875,0.23759999871253967,-0.0037124999798834324
1788164387160206300,9.545206298828125,-0.16224999725818634,0.1447875052690506,-0.11371249705553055
1788164387170308000,9.55530810546875,-0.16335000097751617,-0.0518375001847744,-0.18947499990463257
1788164387180396000,9.56539599609375,-0.14135000109672546,-0.28036248683929443,-0.17118750512599945
1788164387190495500,9.57549560546875,-0.08030000329017639,-0.47574999928474426,-0.07342500239610672
1788164387200583400,9.58558349609375,0.023512499406933784,-0.513700008392334,0.09281250089406967
1788164387210684200,9.59568408203125,0.17379999160766602,-0.3596999943256378,0.32120001316070557
1788164387220767200,9.605767333984375,0.34732499718666077,0.029975000768899918,0.5410624742507935
1788164387230860500,9.615860595703126,0.4657124876976013,0.6859874725341797,0.6523000001907349
1788164387240950800,9.62595068359375,0.49018749594688416,1.4386625289916992,0.6462500095367432
1788164387251034400,9.636034423828125,0.455949991941452,1.9175750017166138,0.5960624814033508
1788164387261116200,9.6461162109375,0.38142499327659607,1.8453874588012695,0.559487521648407
1788164387271204900,9.656204833984376,0.3143250048160553,1.2821874618530273,0.6278250217437744
1788164387281308000,9.666307861328125,0.2910875082015991,0.414837509393692,0.7732999920845032
1788164387291400000,9.67639990234375,0.2727999985218048,-0.5307499766349792,0.8600624799728394
1788164387301491700,9.68649169921875,0.2593249976634979,-1.0634249448776245,0.7341125011444092
1788164387311583500,9.69658349609375,0.31913748383522034,-0.8923749923706055,0.35048750042915344
1788164387321671700,9.706671630859375,0.5366625189781189,-0.31088748574256897,-0.10999999940395355
1788164387331763000,9.716762939453124,0.8982874751091003,0.27431249618530273,-0.44728749990463257
1788164387341852000,9.726851806640624,1.2586749792099,0.494174987077713,-0.5803874731063843
1788164387351944400,9.7369443359375,1.4199625253677368,0.21931250393390656,-0.6183375120162964
1788164387362036500,9.747036376953124,1.3869625329971313,-0.2876499891281128,-0.6609625220298767
1788164387372136400,9.757136474609375,1.267199993133545,-0.6822749972343445,-0.7514374852180481
1788164387382225000,9.767224853515625,1.1376750469207764,-0.8313249945640564,-0.8955374956130981
1788164387392318700,9.777318603515624,0.9898625016212463,-0.7702749967575073,-1.0630124807357788
1788164387402406400,9.787406494140624,0.7822374701499939,-0.5612750053405762,-1.205875039100647
1788164387412501200,9.797501220703126,0.49994999170303345,-0.3255999982357025,-1.263350009918213
1788164387422591700,9.807591796875,0.19085000455379486,-0.08978749811649323,-1.2218250036239624
1788164387432687000,9.81768701171875,-0.05953750014305115,0.15578749775886536,-1.1350624561309814
1788164387442777300,9.82777734375,-0.2147749960422516,0.3965499997138977,-1.0507750511169434
1788164387452878000,9.837878173828125,-0.2513499855995178,0.5773624777793884,-0.9700624942779541
1788164387462967300,9.84796728515625,-0.19634999334812164,0.6456999778747559,-0.8822000026702881
1788164387473069800,9.85806982421875,-0.11082500219345093,0.5724124908447266,-0.7844374775886536
1788164387483163000,9.868162841796876,-0.0424874983727932,0.3610749840736389,-0.6634374856948853
1788164387493257000,9.878257080078125,0.016224998980760574,0.1802625060081482,-0.49857500195503235
1788164387503340000,9.888340087890626,0.15661250054836273,0.22426250576972961,-0.31652501225471497
1788164387513433600,9.89843359375,0.3936625123023987,0.6029375195503235,-0.33976250886917114
1788164387523517400,9.908517333984374,0.4731374979019165,0.9487500190734863,-0.7624375224113464
1788164387533605000,9.918605224609376,0.510949969291687,0.5663625001907349,-0.9212499856948853
1788164387543704000,9.9287041015625,0.7552874684333801,0.33783748745918274,-0.7343875169754028
1788164387553802000,9.938802001953125,0.8677625060081482,1.0903749465942383,-0.45938751101493835
1788164387563882000,9.948882080078125,-0.17434999346733093,1.6047624349594116,-0.43133750557899475
1788164387573972000,9.958971923828125,-1.2238874435424805,0.8277499675750732,-0.966487467288971
1788164387584068000,9.969068115234375,-1.9421875476837158,-1.8563874959945679,-1.205875039100647
1788164387594162400,9.979162353515624,-2.643437385559082,-4.059137344360352,-0.8601999878883362
1788164387604252400,9.98925244140625,-2.966012477874756,-5.1110124588012695,-0.4838624894618988
1788164387614343000,9.999343017578125,-2.663100004196167,-4.666337490081787,-0.651199996471405
1788164387624437800,10.009437744140625,-1.798087477684021,-1.686574935913086,-1.1435874700546265
1788164387634530600,10.019530517578126,-1.1847000122070312,2.546637535095215,-1.1290124654769897
1788164387644621600,10.02962158203125,-0.9953625202178955,4.1606125831604,-0.7074375152587891
1788164387654696700,10.03969677734375,-0.9025499820709229,3.3420748710632324,-0.2199999988079071
1788164387664767000,10.04976708984375,-0.7290250062942505,1.6523374319076538,-0.033137500286102295
1788164387674837000,10.0598369140625,-0.18177500367164612,0.6298875212669373,-0.3030500113964081
1788164387684906800,10.06990673828125,0.6124249696731567,0.4563624858856201,-0.7904874682426453
1788164387694983400,10.0799833984375,1.2244374752044678,0.40741249918937683,-1.205875039100647
1788164387705047000,10.090047119140625,1.4687750339508057,0.3073124885559082,-1.3756874799728394
1788164387715119600,10.10011962890625,1.3514875173568726,0.3097875118255615,-1.3293499946594238
1788164387725185800,10.110185791015626,1.0496749877929688,0.5479375123977661,-1.2010624408721924
1788164387735254000,10.12025390625,0.7735750079154968,0.6994624733924866,-1.1167750358581543
1788164387745326300,10.130326416015626,0.6367624998092651,0.6824125051498413,-1.1863499879837036
1788164387755397000,10.140397216796876,0.6197124719619751,0.5601750016212463,-1.3623499870300293
1788164387765468200,10.15046826171875,0.6551874876022339,0.3708375096321106,-1.5186874866485596
1788164387775537400,10.160537353515625,0.6489999890327454,0.24131250381469727,-1.5822124481201172
1788164387785614000,10.170614013671875,0.6344249844551086,0.3110249936580658,-1.568737506866455
1788164387795686100,10.18068603515625,0.589187502861023,0.5028374791145325,-1.547974944114685
1788164387805751800,10.190751708984376,0.523187518119812,0.6212249994277954,-1.5662624835968018
1788164387815822300,10.200822265625,0.44618749618530273,0.6811749935150146,-1.5956875085830688
1788164387825894100,10.21089404296875,0.3460874855518341,0.7471749782562256,-1.5529249906539917
1788164387835975200,10.22097509765625,0.1676124930381775,0.8387500047683716,-1.4161125421524048
1788164387846052000,10.231052001953126,-0.025299999862909317,0.9047499895095825,-1.288925051689148
1788164387856127500,10.24112744140625,-0.15358750522136688,0.9487500190734863,-1.2548249959945679
1788164387866196000,10.251196044921874,-0.2147749960422516,0.9498500227928162,-1.2658250331878662
1788164387876267500,10.261267578125,-0.2648249864578247,0.8863250017166138,-1.2583999633789062
1788164387886340900,10.2713408203125,-0.3148750066757202,0.736175000667572,-1.2474000453948975
1788164387896409600,10.28140966796875,-0.3821125030517578,0.5174124836921692,-1.2168749570846558
1788164387906481400,10.2914814453125,-0.4493499994277954,0.2657875120639801,-1.1497750282287598
1788164387916564500,10.301564453125,-0.5201625227928162,0.018975000828504562,-1.0202499628067017
1788164387926636800,10.31163671875,-0.5726875066757202,-0.13378749787807465,-0.8784874677658081
1788164387936718600,10.321718505859375,-0.6104999780654907,-0.13612499833106995,-0.8199124932289124
1788164387946798800,10.331798828125,-0.631262481212616,-0.09583749622106552,-0.817437469959259
1788164387956872200,10.3418720703125,-0.6362124681472778,-0.11302500218153,-0.7807250022888184
1788164387966962700,10.351962646484376,-0.6484500169754028,-0.19731250405311584,-0.7123875021934509
1788164387977033200,10.362033203125,-0.6215000152587891,-0.2546499967575073,-0.6304374933242798
1788164387987102200,10.372102294921875,-0.5751624703407288,-0.1765500009059906,-0.5021499991416931
1788164387997169000,10.3821689453125,-0.5641624927520752,-0.012787500396370888,-0.4142875075340271
1788164388007235800,10.39223583984375,-0.5909749865531921,0.021449999883770943,-0.32752498984336853
1788164388017317000,10.402317138671876,-0.6496874690055847,-0.05678749829530716,-0.18947499990463257
1788164388027397400,10.4123974609375,-0.6814500093460083,-0.1691250056028366,0.002337499987334013
1788164388037477400,10.422477294921874,-0.6631624698638916,-0.22288750112056732,0.202674999833107
1788164388047548400,10.43254833984375,-0.6264500021934509,-0.1545500010251999,0.3749625086784363
1788164388057623800,10.442623779296875,-0.5726875066757202,-0.07259999960660934,0.4702500104904175
1788164388067692000,10.452692138671875,-0.5592125058174133,-0.1373624950647354,0.476437509059906
1788164388077767700,10.462767578125,-0.6106374859809875,-0.2583625018596649,0.46777498722076416
1788164388087855900,10.47285595703125,-0.6692125201225281,-0.3499374985694885,0.5191999673843384
1788164388097930800,10.4829306640625,-0.7107374668121338,-0.48069998621940613,0.6352499723434448
1788164388107996200,10.49299609375,-0.7497875094413757,-0.6687999963760376,0.7805874943733215
1788164388118072800,10.50307275390625,-0.8035500049591064,-0.8911374807357788,0.9466875195503235
1788164388128142600,10.513142578125,-0.8683124780654907,-1.1978999376296997,1.1274999380111694
1788164388138211800,10.5232119140625,-0.9355499744415283,-1.536287546157837,1.298550009727478
1788164388148289000,10.5332890625,-1.0258874893188477,-1.861199975013733,1.4365999698638916
1788164388158359800,10.54335986328125,-1.1261249780654907,-1.9564875364303589,1.4916000366210938
1788164388168425000,10.553425048828124,-1.2066999673843384,-1.9199124574661255,1.1679250001907349
1788164388178498600,10.56349853515625,-1.1103124618530273,-2.057962417602539,0.420199990272522
1788164388188573700,10.57357373046875,-0.7767375111579895,-2.3645875453948975,-0.44728749990463257
1788164388198646500,10.583646484375,-0.322299987077713,-2.5441625118255615,-1.0678249597549438
1788164388208715000,10.593715087890626,0.142037495970726,-2.1605374813079834,-1.2352999448776245
1788164388218786600,10.60378662109375,0.495137482881546,-1.1098999977111816,-1.0202499628067017
1788164388228859400,10.613859375,0.6209499835968018,0.06902500241994858,-0.6109125018119812
1788164388238928100,10.62392822265625,0.5769500136375427,0.8509874939918518,-0.1625249981880188
1788164388248989200,10.6339892578125,0.5451874732971191,1.042799949645996,0.1331000030040741
1788164388259055400,10.644055419921875,0.4914250075817108,0.8912749886512756,0.2320999950170517
1788164388269136400,10.654136474609375,0.4474250078201294,0.7556999921798706,0.25891250371932983
1788164388279219500,10.664219482421874,0.3899500072002411,0.6224625110626221,0.27114999294281006
1788164388289302800,10.674302734375,0.2886124849319458,0.4184125065803528,0.2576749920845032
1788164388299379200,10.684379150390624,0.18713749945163727,0.24255000054836273,0.21615000069141388
1788164388309454600,10.69445458984375,0.14079999923706055,0.10326249897480011,0.13433749973773956
1788164388319533300,10.704533203125,0.11027500033378601,-0.04702499881386757,-0.008662499487400055
1788164388329602000,10.71460205078125,0.10175000131130219,-0.22783750295639038,-0.17118750512599945
1788164388339676200,10.72467626953125,0.1480875015258789,-0.3951750099658966,-0.2750000059604645
1788164388349753600,10.734753662109375,0.22632500529289246,-0.5307499766349792,-0.3190000057220459
1788164388359829500,10.74482958984375,0.31542500853538513,-0.5759875178337097,-0.3092375099658966
1788164388369910000,10.754909912109374,0.38142499327659607,-0.4904625117778778,-0.25905001163482666
1788164388379988500,10.764988525390624,0.4096125066280365,-0.3499374985694885,-0.1845249980688095
1788164388390062300,10.775062255859375,0.41690000891685486,-0.22055000066757202,-0.13695000112056732
1788164388400138000,10.785137939453126,0.41690000891685486,-0.12278749793767929,-0.09047500044107437
1788164388410220000,10.795219970703124,0.4217124879360199,-0.07259999960660934,-0.03423750028014183
1788164388420289800,10.805289794921874,0.4021874964237213,-0.050599999725818634,0.01209999993443489
1788164388430362400,10.8153623046875,0.3716624975204468,-0.018837500363588333,0.057337500154972076
1788164388440425200,10.82542529296875,0.31790000200271606,0.03244999796152115,0.10862500220537186
1788164388450500400,10.835500244140626,0.23608750104904175,0.06297499686479568,0.11838749796152115
1788164388460578000,10.845578125,0.1518000066280365,0.07026249915361404,0.09281250089406967
1788164388470656500,10.855656494140625,0.12361250072717667,0.03849999979138374,0.07809999585151672
1788164388480728000,10.86572802734375,0.12361250072717667,0.014024999924004078,0.08786249905824661
1788164388490806300,10.87580615234375,0.0845625028014183,0.055687498301267624,0.1073874980211258
1788164388500875500,10.88587548828125,0.06379999965429306,0.12773749232292175,0.12457499653100967
1788164388510950400,10.895950439453125,0.03932499885559082,0.1667875051498413,0.14891250431537628
1788164388521027600,10.906027587890625,-0.004537499975413084,0.11550000309944153,0.12086249887943268
1788164388531105500,10.91610546875,-0.03148749843239784,0.09831249713897705,0.07562500238418579
1788164388541180000,10.926179931640625,-0.05719999969005585,0.10821250081062317,0.07562500238418579
1788164388551255600,10.936255615234375,-0.08896250277757645,0.06902500241994858,0.08662500232458115
1788164388561320700,10.94632080078125,-0.12925000488758087,0.05321250110864639,0.0976250022649765
1788164388571392500,10.956392578125,-0.18301250040531158,0.06902500241994858,0.12209999561309814
1788164388581454300,10.966454345703125,-0.2465374916791916,0.03726249933242798,0.10381250083446503
1788164388591530500,10.976530517578125,-0.31130000948905945,-0.07631249725818634,0.05857500061392784
1788164388601598700,10.9865986328125,-0.3503499925136566,-0.2046000063419342,0.05004999786615372
1788164388611675100,10.996675048828125,-0.3735874891281128,-0.2620750069618225,0.05362499877810478
1788164388621756700,11.006756591796876,-0.3796375095844269,-0.22907499969005585,0.05609999969601631
1788164388631824400,11.016824462890625,-0.35282498598098755,-0.1190750002861023,0.07686249911785126
1788164388641899800,11.026899658203124,-0.32106250524520874,0.029975000768899918,0.09515000134706497
1788164388651980000,11.03697998046875,-0.30387499928474426,0.1289750039577484,0.07686249911785126
1788164388662044700,11.047044677734375,-0.26977500319480896,0.21326249837875366,0.059812501072883606
1788164388672137200,11.05713720703125,-0.27211248874664307,0.19373749196529388,0.05004999786615372
1788164388682211000,11.067211181640625,-0.3258749842643738,0.08855000138282776,-0.00989999994635582
1788164388692285200,11.07728515625,-0.3515875041484833,0.05926249921321869,-0.06847500056028366
1788164388702356200,11.087356201171875,-0.37716248631477356,0.023787500336766243,-0.0966624990105629
1788164388712426800,11.0974267578125,-0.421162486076355,-0.06407500058412552,-0.1284250020980835
1788164388722494200,11.107494140625,-0.42858749628067017,-0.05678749829530716,-0.1284250020980835
1788164388732566300,11.117566162109375,-0.42239999771118164,-0.03478749841451645,-0.08566249907016754
1788164388742631200,11.127631103515625,-0.4358749985694885,-0.06778749823570251,-0.052662499248981476
1788164388752705800,11.137705810546874,-0.46268749237060547,-0.10202500224113464,-0.040424998849630356
1788164388762782200,11.1477822265625,-0.5018749833106995,-0.12278749793767929,-0.035475000739097595
1788164388772854800,11.157854736328124,-0.5421624779701233,-0.1471250057220459,-0.042899999767541885
1788164388782939600,11.167939697265625,-0.5714499950408936,-0.18754999339580536,-0.07947500050067902
1788164388793019600,11.17801953125,-0.5654000043869019,-0.19359999895095825,-0.13323749601840973
1788164388803091500,11.188091552734376,-0.5274500250816345,-0.15812499821186066,-0.19318750500679016
1788164388813166800,11.198166748046875,-0.4846875071525574,-0.12402500212192535,-0.25905001163482666
1788164388823237600,11.208237548828125,-0.421162486076355,-0.07383749634027481,-0.2835249900817871
1788164388833302500,11.218302490234375,-0.37716248631477356,-0.12031249701976776,-0.2578125
1788164388843368200,11.2283681640625,-0.40411248803138733,-0.2730749845504761,-0.22728750109672546
1788164388853438200,11.238438232421874,-0.44440001249313354,-0.37441250681877136,-0.18576249480247498
1788164388863503400,11.24850341796875,-0.4969249963760376,-0.41346248984336853,-0.14918750524520874
1788164388873579300,11.258579345703126,-0.5384500026702881,-0.33041250705718994,-0.1504250019788742
1788164388883642000,11.26864208984375,-0.5348749756813049,-0.04207500070333481,-0.1601874977350235
1788164388893713200,11.278713134765624,-0.4713499844074249,0.2718375027179718,-0.12594999372959137
1788164388903779300,11.288779296875,-0.4016374945640564,0.3964124917984009,-0.08442500233650208
1788164388913854500,11.2988544921875,-0.3258749842643738,0.39160001277923584,0.02433750033378601
1788164388923918000,11.30891796875,-0.27953749895095825,0.3268375098705292,0.20762500166893005
1788164388933986800,11.31898681640625,-0.2843500077724457,0.22426250576972961,0.3492499887943268
1788164388944052000,11.329052001953125,-0.28187498450279236,0.13626250624656677,0.43367499113082886
1788164388954127400,11.33912744140625,-0.28929999470710754,0.011687500402331352,0.42748749256134033
1788164388964188700,11.349188720703125,-0.33934998512268066,-0.17159999907016754,0.306487500667572
1788164388974262800,11.3592626953125,-0.3735874891281128,-0.2523125112056732,0.18933749198913574
1788164388984328700,11.36932861328125,-0.36739999055862427,-0.2046000063419342,0.16843749582767487
1788164388994398000,11.37939794921875,-0.33934998512268066,-0.10326249897480011,0.1966249942779541
1788164389004457700,11.389457763671874,-0.2782999873161316,0.04221250116825104,0.22343750298023224
1788164389014526700,11.399526611328126,-0.2012999951839447,0.31459999084472656,0.2186249941587448
1788164389024585000,11.4095849609375,-0.15125000476837158,0.5186499953269958,0.17710000276565552
1788164389034657800,11.41965771484375,-0.11948750168085098,0.47341248393058777,0.11481250077486038
1788164389044714000,11.4297138671875,-0.08524999767541885,0.2670249938964844,0.09391249716281891
1788164389054785800,11.439785888671874,-0.0742499977350235,0.009212499484419823,0.11110000312328339
1788164389064851200,11.449851318359375,-0.09501250088214874,-0.1373624950647354,0.1331000030040741
1788164389074919000,11.4599189453125,-0.11329999566078186,-0.0873124971985817,0.14891250431537628
1788164389084985900,11.46998583984375,-0.12182500213384628,0.12031249701976776,0.11962500214576721
1788164389095055600,11.4800556640625,-0.09253749996423721,0.28036248683929443,0.03657500073313713
1788164389105126400,11.49012646484375,-0.010724999941885471,0.30607500672340393,-0.057475000619888306
1788164389115198200,11.5001982421875,0.06875000149011612,0.2022625058889389,-0.11247500032186508
1788164389125264100,11.51026416015625,0.12251249700784683,0.011687500402331352,-0.13323749601840973
1788164389135334100,11.520334228515624,0.1615625023841858,-0.11783749610185623,-0.10518749803304672
1788164389145391000,11.53039111328125,0.15908749401569366,-0.1288374960422516,-0.06366249918937683
1788164389155467800,11.5404677734375,0.11027500033378601,-0.14231249690055847,-0.08071249723434448
1788164389165534700,11.55053466796875,0.060087498277425766,-0.12155000120401382,-0.11371249705553055
1788164389175599000,11.56059912109375,0.038087498396635056,-0.04702499881386757,-0.12099999934434891
1788164389185671200,11.570671142578124,0.052799999713897705,0.014024999924004078,-0.09542500227689743
1788164389195743500,11.580743408203125,0.09803749620914459,0.04097500070929527,-0.01718750037252903
1788164389205815300,11.590815185546875,0.15661250054836273,0.09955000132322311,0.10009999573230743
1788164389215889200,11.60088916015625,0.18837499618530273,0.23278750479221344,0.20886249840259552
1788164389225960700,11.610960693359376,0.17379999160766602,0.30607500672340393,0.2747249901294708
1788164389236035600,11.62103564453125,0.12127500027418137,0.3195500075817108,0.24296249449253082
1788164389246104000,11.63110400390625,0.030799999833106995,0.342787504196167,0.10862500220537186
1788164389256177200,11.64117724609375,-0.05348749831318855,0.35007500648498535,-0.011137500405311584
1788164389276318000,11.66131787109375,-0.08401250094175339,0.22907499969005585,-0.01718750037252903
1788164389286385700,11.6713857421875,-0.04124999791383743,0.03478749841451645,0.04881250113248825
1788164389296464400,11.68146435546875,0.01732499897480011,-0.03231250122189522,0.14891250431537628
1788164389306537500,11.691537353515624,0.0625625029206276,0.20707499980926514,0.2246749997138977
1788164389316601900,11.701601806640625,0.06379999965429306,0.5601750016212463,0.21615000069141388
1788164389326672600,11.711672607421875,0.035750001668930054,0.7349374890327454,0.11715000122785568
1788164389336731600,11.721731689453126,0.060087498277425766,0.7349374890327454,0.010862499475479126
1788164389346806500,11.731806640625,0.10656250268220901,0.5149375200271606,-0.04895000159740448
1788164389356871700,11.74187158203125,0.14561249315738678,0.21326249837875366,-0.047712501138448715
1788164389366942700,11.751942626953126,0.1518000066280365,0.06421250104904175,-0.02447500079870224
1788164389377007000,11.762007080078124,0.1358499974012375,0.10573749989271164,-0.030662499368190765
1788164389387080700,11.772080810546875,0.09556250274181366,0.19126249849796295,-0.09418749809265137
1788164389397144800,11.782144775390625,0.025987500324845314,0.20583750307559967,-0.19552500545978546
1788164389407211500,11.79221142578125,-0.0387750007212162,0.14354999363422394,-0.24323749542236328
1788164389417277400,11.80227734375,-0.06077500060200691,0.036024998873472214,-0.2102375030517578
1788164389427357200,11.812357177734375,-0.0364375002682209,0.005499999970197678,-0.1284250020980835
1788164389437418000,11.82241796875,-0.013199999928474426,0.015262499451637268,-0.05623750016093254
1788164389447487700,11.83248779296875,0.010037500411272049,0.15097500383853912,-0.012374999932944775
1788164389457561000,11.84256103515625,0.03203750029206276,0.3708375096321106,0.002337499987334013
1788164389467626500,11.85262646484375,0.03932499885559082,0.4123624861240387,-0.0648999959230423
1788164389477695000,11.862695068359375,0.03932499885559082,0.37207499146461487,-0.14918750524520874
1788164389487761000,11.872760986328124,0.05156249925494194,0.3353624939918518,-0.1942874938249588
1788164389497829600,11.88282958984375,0.06132499873638153,0.20102499425411224,-0.21752500534057617
1788164389507901200,11.892901123046874,0.07232499867677689,0.07026249915361404,-0.1979999989271164
1788164389517980400,11.90298046875,0.05884999781847,0.022687500342726707,-0.14547500014305115
1788164389528052000,11.913052001953124,0.010037500411272049,-0.022549999877810478,-0.09171249717473984
1788164389538125800,11.923125732421875,-0.05843750014901161,-0.06283749639987946,-0.029424998909235
1788164389548190000,11.93318994140625,-0.12553749978542328,-0.10078749805688858,0.020624998956918716
1788164389558264800,11.943264892578124,-0.17682500183582306,-0.1765500009059906,0.023099999874830246
1788164389568324600,11.95332470703125,-0.195250004529953,-0.2083124965429306,-0.018424998968839645
1788164389578396200,11.963396240234376,-0.1634874939918518,-0.06902500241994858,-0.07218749821186066
1788164389588465700,11.973465576171876,-0.08153750002384186,0.24255000054836273,-0.10642500221729279
1788164389598569000,11.98356884765625,0.04427500069141388,0.5418875217437744,-0.10766249895095825
1788164389608634600,11.993634521484376,0.19208750128746033,0.6701750159263611,-0.11495000123977661
1788164389618701800,12.003701904296875,0.31542500853538513,0.5626500248908997,-0.11618749797344208
1788164389628773000,12.013773193359375,0.37661248445510864,0.3097875118255615,-0.09047500044107437
1788164389638845000,12.023844970703125,0.3704249858856201,0.007974999956786633,-0.05389999970793724
1788164389648916000,12.033916015625,0.30937498807907104,-0.23154999315738678,0.009624999947845936
1788164389658979000,12.04397900390625,0.21779999136924744,-0.30607500672340393,0.11357499659061432
1788164389669039900,12.054039794921875,0.1297999918460846,-0.2718375027179718,0.20762500166893005
1788164389679110100,12.064110107421875,0.09927500039339066,-0.11426249891519547,0.23319999873638153
1788164389689179400,12.074179443359375,0.11756250262260437,0.16183750331401825,0.19415000081062317
1788164389699251000,12.0842509765625,0.17861250042915344,0.4281750023365021,0.1293874979019165
1788164389709323500,12.094323486328125,0.2605625092983246,0.640749990940094,0.07686249911785126
1788164389719398000,12.10439794921875,0.3020874857902527,0.6529874801635742,0.05486249923706055
1788164389729468700,12.11446875,0.31185001134872437,0.3488374948501587,0.02433750033378601
1788164389739535600,12.12453564453125,0.27390000224113464,0.13007499277591705,0.007287499960511923
1788164389749602300,12.134602294921875,0.1798499971628189,0.04097500070929527,0.006049999967217445
1788164389759669500,12.14466943359375,0.055275000631809235,-0.016499999910593033,-0.020899999886751175
1788164389769735700,12.154735595703125,-0.0364375002682209,-0.040837500244379044,-0.09047500044107437
1788164389779804200,12.16480419921875,-0.0705375000834465,0.011687500402331352,-0.11618749797344208
1788164389789879600,12.174879638671875,-0.06572499871253967,0.0849749967455864,-0.07699999958276749
1788164389799950600,12.18495068359375,-0.026537500321865082,0.23278750479221344,0.009624999947845936
1788164389810025700,12.195025634765624,0.023512499406933784,0.4501749873161316,0.09886249899864197
1788164389820097000,12.205096923828124,0.023512499406933784,0.5687000155448914,0.1331000030040741
1788164389830178600,12.215178466796875,0.010037500411272049,0.5761250257492065,0.11233749985694885
1788164389840253400,12.22525341796875,-0.025437500327825546,0.4441249966621399,0.047575000673532486
1788164389850333700,12.235333740234376,-0.0742499977350235,0.21078750491142273,-0.050187498331069946
1788164389860408300,12.245408203125,-0.11096250265836716,0.023787500336766243,-0.11618749797344208
1788164389870500900,12.2555009765625,-0.10477499663829803,-0.026262499392032623,-0.11742500215768814
1788164389880570600,12.265570556640625,-0.07177499681711197,-0.020075000822544098,-0.07095000147819519
1788164389890645800,12.275645751953125,-0.04124999791383743,0.0042624999769032,-0.00013749999925494194
1788164389910798000,12.295798095703125,-0.05224999785423279,0.19978749752044678,0.10615000128746033
1788164389920866800,12.30586669921875,-0.07796250283718109,0.30855000019073486,0.09033749997615814
1788164389930929700,12.3159296875,-0.08277499675750732,0.3940750062465668,0.023099999874830246
1788164389941010000,12.326010009765625,-0.0705375000834465,0.44536250829696655,-0.057475000619888306
1788164389951082200,12.336082275390625,-0.05596249923110008,0.2853125035762787,-0.10395000129938126
1788164389961161000,12.346160888671875,-0.06077500060200691,0.023787500336766243,-0.05871250107884407
1788164389971236400,12.356236328125,-0.09872499853372574,-0.2106499969959259,0.07204999774694443
1788164389981319200,12.366319091796875,-0.17201249301433563,-0.37812501192092896,0.20886249840259552
1788164389991391700,12.376391845703125,-0.2782999873161316,-0.439175009727478,0.2516250014305115
1788164390001471500,12.386471435546875,-0.37482500076293945,-0.23388749361038208,0.17710000276565552
1788164390011547100,12.396547119140624,-0.39063748717308044,0.058024998754262924,-0.029424998909235
1788164390021622300,12.406622314453125,-0.2843500077724457,0.36465001106262207,-0.18700000643730164
1788164390031699000,12.416698974609375,-0.09129999577999115,0.5761250257492065,-0.201712504029274
1788164390041773600,12.426773681640626,0.11151249706745148,0.5979874730110168,-0.10395000129938126
1788164390051842300,12.43684228515625,0.24584999680519104,0.5101249814033508,0.057337500154972076
1788164390061924000,12.446924072265626,0.28132501244544983,0.2718375027179718,0.21738749742507935
1788164390071993600,12.45699365234375,0.2116124927997589,-0.006737499963492155,0.273624986410141
1788164390082069000,12.467069091796875,0.05156249925494194,-0.3218874931335449,0.20514999330043793
1788164390092138500,12.477138427734374,-0.14272500574588776,-0.5735124945640564,0.05362499877810478
1788164390102212900,12.487212890625,-0.24777500331401825,-0.46598750352859497,-0.0672374963760376
1788164390112287500,12.49728759765625,-0.2110625058412552,-0.09226249903440475,-0.12099999934434891
1788164390122365000,12.507364990234375,-0.08401250094175339,0.430649995803833,-0.1601874977350235
1788164390132443000,12.51744287109375,0.038087498396635056,0.9975624680519104,-0.29205000400543213
1788164390142527700,12.52752783203125,0.08579999953508377,1.3506624698638916,-0.4423374831676483
1788164390152605200,12.537605224609376,0.0845625028014183,1.291949987411499,-0.5022875070571899
1788164390162680800,12.547680908203125,0.07961250096559525,0.815512478351593,-0.46309998631477356
1788164390172755000,12.5577548828125,0.10779999941587448,0.148499995470047,-0.38981249928474426
1788164390182839300,12.56783935546875,0.2116124927997589,-0.40988749265670776,-0.3104749917984009
1788164390192910800,12.577910888671875,0.3423750102519989,-0.6994624733924866,-0.2554749846458435
1788164390202989000,12.587989013671875,0.4388999938964844,-0.73232501745224,-0.23100000619888306
1788164390213061400,12.598061279296875,0.466949999332428,-0.6272749900817871,-0.18700000643730164
1788164390223141000,12.60814111328125,0.41442498564720154,-0.4562250077724457,-0.10023749619722366
1788164390233209600,12.618209716796875,0.34718748927116394,-0.2546499967575073,0.02433750033378601
1788164390243288800,12.628288818359374,0.3008500039577484,-0.23512500524520874,0.1611499935388565
1788164390253366000,12.638365966796876,0.2849000096321106,-0.4221250116825104,0.2686749994754791
1788164390263443500,12.648443359375,0.31418749690055847,-0.6224625110626221,0.3639625012874603
1788164390273514000,12.658513916015625,0.3581874966621399,-0.776324987411499,0.4152500033378601
1788164390283592400,12.668592529296875,0.41071251034736633,-0.8716124892234802,0.3676750063896179
1788164390293672000,12.678671875,0.455949991941452,-0.903374969959259,0.2503874897956848
1788164390303746000,12.68874609375,0.4291374981403351,-0.933899998664856,0.15015000104904175
1788164390313824000,12.698823974609375,0.3044250011444092,-0.9315624833106995,0.12333749979734421
1788164390323901400,12.7089013671875,0.142037495970726,-0.8435624837875366,0.15867500007152557
1788164390333975600,12.7189755859375,0.014987500384449959,-0.6272749900817871,0.17943750321865082
1788164390344048600,12.729048583984374,-0.027775000780820847,-0.391462504863739,0.1428624987602234
1788164390354123000,12.739123046875,0.01979999989271164,-0.20707499980926514,0.08662500232458115
1788164390364205600,12.74920556640625,0.1223749965429306,-0.14231249690055847,0.0193875003606081
1788164390374288000,12.759287841796874,0.25189998745918274,-0.12031249701976776,-0.03671250119805336
1788164390384364800,12.76936474609375,0.40466248989105225,-0.005499999970197678,-0.04166249930858612
1788164390394441700,12.779441650390625,0.4926624894142151,0.11921250075101852,0.002337499987334013
1788164390404521700,12.789521728515625,0.5097125172615051,0.17173749208450317,0.0695749968290329
1788164390414601500,12.7996015625,0.46447500586509705,0.1264999955892563,0.14891250431537628
1788164390424676900,12.8096767578125,0.36918750405311584,0.007974999956786633,0.22714999318122864
1788164390434757000,12.819757080078125,0.24213749170303345,0.009212499484419823,0.25519999861717224
1788164390444825000,12.8298251953125,0.1480875015258789,0.09955000132322311,0.20391249656677246
1788164390454904000,12.839904052734376,0.09184999763965607,0.11797499656677246,0.028049999848008156
1788164390464982800,12.849982666015626,0.10284999758005142,0.1350249946117401,-0.18095000088214874
1788164390475061200,12.860061279296875,0.15427500009536743,0.05197500064969063,-0.3190000057220459
1788164390485138200,12.87013818359375,0.17503750324249268,-0.09955000132322311,-0.3605250120162964
1788164390495213300,12.88021337890625,0.14327499270439148,-0.2326499968767166,-0.2957625091075897
1788164390505288400,12.890288330078125,0.057750001549720764,-0.30607500672340393,-0.14423750340938568
1788164390515366000,12.900365966796874,-0.06572499871253967,-0.4404124915599823,-0.0147124994546175
1788164390525443600,12.910443603515626,-0.18177500367164612,-0.5992249846458435,0.018287500366568565
1788164390535524900,12.92052490234375,-0.24034999310970306,-0.7262749671936035,-0.008662499487400055
1788164390545605400,12.93060546875,-0.227012500166893,-0.7947499752044678,-0.06971249729394913
1788164390555688200,12.940688232421875,-0.16224999725818634,-0.7910374999046326,-0.1699499934911728
1788164390565763800,12.950763916015624,-0.07796250283718109,-0.6664624810218811,-0.2529999911785126
1788164390575853800,12.960853759765625,-0.020487500354647636,-0.3499374985694885,-0.22123749554157257
1788164390585926700,12.9709267578125,-0.025437500327825546,-0.040837500244379044,-0.0989999994635582
1788164390596012000,12.981011962890625,-0.07177499681711197,0.06655000150203705,-0.0037124999798834324
1788164390606092000,12.991092041015625,-0.11577499657869339,0.06902500241994858,0.02928750030696392
1788164390616170000,13.001169921875,-0.12196250259876251,0.0042624999769032,0.032862499356269836
1788164390626240300,13.011240234375,-0.0644875019788742,-0.1373624950647354,0.030387500301003456
1788164390636324900,13.021324951171875,-0.0009624999947845936,-0.26083749532699585,0.04028749838471413
1788164390646403000,13.031403076171875,0.09308750182390213,-0.27541249990463257,0.08538749814033508
1788164390656482800,13.04148291015625,0.17132499814033508,-0.21683749556541443,0.1611499935388565
1788164390666557200,13.05155712890625,0.20913749933242798,-0.16307500004768372,0.22962500154972076
1788164390676639700,13.0616396484375,0.1933249980211258,-0.16060000658035278,0.26138749718666077
1788164390686720000,13.071719970703125,0.17132499814033508,-0.09459999948740005,0.23196250200271606
1788164390696795600,13.081795654296876,0.20061250030994415,0.09350000321865082,0.18314999341964722
