time,seconds_elapsed,z,y,x
1788107983279573800,0.12657373046875,-1.1689300537109375,0.20342999696731567,0.37967199087142944
1788107983289666800,0.136666748046875,-1.1587140560150146,-0.2067590057849884,0.5679270029067993
1788107983309844700,0.1568447265625,-1.4185210466384888,-0.38586699962615967,0.5858410000801086
1788107983330024200,0.177024169921875,-2.2634239196777344,-1.407600998878479,0.7636950016021729
1788107983340115700,0.18711572265625,-1.8976739645004272,-1.4914389848709106,0.9713259935379028
1788107983350208800,0.197208740234375,-1.089424967765808,-0.5951370000839233,0.42713600397109985
1788107983360300500,0.207300537109375,-0.20926299691200256,0.5219709873199463,-0.5011609792709351
1788107983370399700,0.217399658203125,0.4762890040874481,0.4987959861755371,-1.1643949747085571
1788107983380484900,0.22748486328125,1.0115070343017578,-0.15138299763202667,-1.4277950525283813
1788107983390567700,0.237567626953125,1.6976079940795898,-0.6969090104103088,-1.553604006767273
1788107983400665000,0.2476650390625,2.2555909156799316,-1.1012109518051147,-1.4601199626922607
1788107983410767600,0.257767578125,2.3963420391082764,-1.514227032661438,-1.3949090242385864
1788107983420857300,0.267857421875,1.892104983329773,-1.8472460508346558,-1.4233779907226562
1788107983430953500,0.277953369140625,1.6913820505142212,-1.9099570512771606,-1.486124038696289
1788107983441044500,0.28804443359375,1.8398029804229736,-1.6324529647827148,-1.1164430379867554
1788107983451138800,0.298138916015625,1.945391058921814,-0.8854479789733887,-0.9330440163612366
1788107983461240800,0.30824072265625,1.5007749795913696,-0.32622599601745605,-0.4523319900035858
1788107983471333600,0.318333740234375,0.6823800206184387,-0.07693099975585938,0.09621799737215042
1788107983481420000,0.328419921875,-0.18779699504375458,0.03449200093746185,0.4804759919643402
1788107983491517400,0.338517333984375,-0.44186800718307495,0.35022398829460144,0.5463290214538574
1788107983501627100,0.348627197265625,-0.35543400049209595,0.989762008190155,0.3585659861564636
1788107983511722200,0.35872216796875,-0.001478999969549477,1.3700690269470215,-0.02548000030219555
1788107983521820200,0.368820068359375,0.4090920090675354,1.2465050220489502,-0.4113599956035614
1788107983531915800,0.378915771484375,1.1220070123672485,1.060397982597351,-0.7722219824790955
1788107983542009300,0.38900927734375,1.7643409967422485,1.0405030250549316,-1.070701003074646
1788107983552105500,0.39910546875,2.1522328853607178,0.9003490209579468,-1.246142029762268
1788107983562194700,0.409194580078125,2.515562057495117,0.6858900189399719,-1.4048609733581543
1788107983572298000,0.419298095703125,2.715430974960327,0.3933489918708801,-1.4082520008087158
1788107983582392600,0.429392578125,2.868825912475586,0.3864310085773468,-1.3883739709854126
1788107983592481300,0.439481201171875,2.4220640659332275,0.5208449959754944,-1.2799110412597656
1788107983602605000,0.44960498046875,0.9451090097427368,0.2899410128593445,-0.9526690244674683
1788107983612698400,0.459698486328125,0.3412719964981079,0.17875100672245026,-0.38388198614120483
1788107983622789600,0.46978955078125,-0.8052080273628235,-0.0969339981675148,0.1484919935464859
1788107983632883000,0.479883056640625,-1.5735540390014648,-0.25025299191474915,0.6549100279808044
1788107983642982400,0.489982421875,-2.318924903869629,-0.4827510118484497,0.9517459869384766
1788107983653076000,0.500075927734375,-2.3762691020965576,-1.081354022026062,0.7585729956626892
1788107983663160600,0.51016064453125,-2.925304889678955,-0.4175730049610138,-1.0216670036315918
1788107983673254000,0.52025390625,-2.0498290061950684,3.1649539470672607,-6.673989772796631
1788107983683340000,0.530340087890625,-0.30309200286865234,3.742997884750366,-7.20900297164917
1788107983693439200,0.540439208984375,-0.2403859943151474,-0.7746649980545044,-1.1971269845962524
1788107983703555800,0.550555908203125,-0.09353899955749512,-1.329596996307373,0.21921099722385406
1788107983713642200,0.560642333984375,1.2575139999389648,0.5161499977111816,-1.3712550401687622
1788107983723737000,0.570737060546875,1.6986620426177979,0.8419219851493835,-1.4907209873199463
1788107983733828900,0.580828857421875,0.531486988067627,-0.03013099916279316,-0.6576849818229675
1788107983743906800,0.59090673828125,0.025831999257206917,-0.3102479875087738,-0.46074000000953674
1788107983754000600,0.601000732421875,0.47977200150489807,-0.0547109991312027,-0.9421679973602295
1788107983764096000,0.611095947265625,0.8298580050468445,-0.12302800267934799,-1.4549959897994995
1788107983774188300,0.621188232421875,1.0123740434646606,-0.4243119955062866,-1.5101759433746338
1788107983784274200,0.631274169921875,0.8272299766540527,-0.4739919900894165,-1.70284104347229
1788107983794364400,0.641364501953125,0.4469980001449585,-0.7094380259513855,-1.3887410163879395
1788107983804450300,0.6514501953125,0.6256710290908813,-0.8505820035934448,-0.38235101103782654
1788107983814538200,0.661538330078125,0.8503959774971008,-0.9583839774131775,-0.1343809962272644
1788107983824629000,0.67162890625,0.12388800084590912,-0.6711789965629578,-0.767753005027771
1788107983834722300,0.681722412109375,0.436147004365921,-0.717881977558136,-1.1556199789047241
1788107983844813300,0.691813232421875,0.33397799730300903,-1.0989749431610107,-1.04025399684906
1788107983854898700,0.701898681640625,0.2773570120334625,-1.3114960193634033,-0.7971420288085938
1788107983864986400,0.711986328125,0.20854100584983826,-1.1624829769134521,-0.5050889849662781
1788107983875080400,0.72208056640625,-0.19792500138282776,-0.9559299945831299,-0.23878200352191925
1788107983885173500,0.732173583984375,-0.43524599075317383,-1.1220669746398926,0.0008660000166855752
1788107983895263700,0.742263671875,-0.5063199996948242,-1.2299309968948364,0.15328599512577057
1788107983905357800,0.75235791015625,-0.7591080069541931,-1.1468119621276855,-0.20068499445915222
1788107983915447600,0.762447509765625,-1.3900129795074463,-1.2740930318832397,-0.3445869982242584
1788107983925528600,0.772528564453125,-1.4502259492874146,-1.2937259674072266,0.12914599478244781
1788107983935620600,0.78262060546875,-1.2409160137176514,-1.0800590515136719,0.0047690002247691154
1788107983945714000,0.7927138671875,-0.3157530128955841,-0.8097710013389587,-0.3803879916667938
1788107983955805400,0.802805419921875,0.2454189956188202,-0.8059020042419434,-0.8919600248336792
1788107983965890300,0.812890380859375,0.544700026512146,-0.8900399804115295,-1.1512609720230103
1788107983975978500,0.822978515625,0.14558100700378418,-0.939631998538971,-0.8029490113258362
1788107983986064100,0.833064208984375,-0.8855350017547607,-0.540681004524231,-0.24762900173664093
1788107983996155000,0.84315478515625,-1.3373429775238037,-0.34508800506591797,0.13760200142860413
1788107984006249000,0.8532490234375,1.1301360130310059,-0.5737230181694031,-0.06078299880027771
1788107984016338200,0.863338134765625,1.2934190034866333,-0.3681670129299164,0.2086859941482544
1788107984026428400,0.873428466796875,1.1842329502105713,-0.7214710116386414,0.9040480256080627
1788107984036515800,0.883515869140625,1.3653589487075806,-0.32157400250434875,0.1092580035328865
1788107984046615300,0.893615234375,1.1560449600219727,-0.14245599508285522,-0.32953500747680664
1788107984056703000,0.903702880859375,0.8928110003471375,-0.36285200715065,-0.00913199968636036
1788107984076888800,0.923888916015625,0.49911901354789734,-0.31351399421691895,0.7619670033454895
1788107984086986800,0.93398681640625,0.7447230219841003,-0.3591890037059784,0.6416559815406799
1788107984097071000,0.944071044921875,1.2028930187225342,-0.42574700713157654,0.4482629895210266
1788107984107192300,0.9541923828125,1.3919730186462402,-0.32315000891685486,0.1392430067062378
1788107984117277000,0.96427685546875,1.0936440229415894,-0.1905129998922348,-0.14306700229644775
1788107984127367700,0.97436767578125,0.597819983959198,-0.22867999970912933,-0.30410000681877136
1788107984137462500,0.984462646484375,0.34297001361846924,-0.06272099912166595,-0.432081013917923
1788107984147546400,0.99454638671875,0.3549639880657196,0.060440998524427414,-0.5651419758796692
1788107984157644500,1.00464453125,0.6652349829673767,0.11477400362491608,-0.6781409978866577
1788107984167742000,1.014741943359375,0.9565430283546448,0.11810199916362762,-0.8170769810676575
1788107984177829000,1.0248291015625,1.0133880376815796,0.0656059980392456,-0.8328549861907959
1788107984187922200,1.034922119140625,1.168800950050354,-0.07666900008916855,-0.5873339772224426
1788107984208103400,1.055103515625,1.851775050163269,-0.27208900451660156,-0.43060699105262756
1788107984218191000,1.065191162109375,2.042107105255127,-0.3210360109806061,-0.37215501070022583
1788107984228282600,1.07528271484375,1.9378069639205933,-0.304747998714447,-0.44591599702835083
1788107984238372000,1.0853720703125,1.5843240022659302,-0.351951003074646,-0.6533480286598206
1788107984248465400,1.09546533203125,1.380416989326477,-0.5323830246925354,-0.6627280116081238
1788107984258544000,1.105544189453125,1.2505429983139038,-0.6264700293540955,-0.5185189843177795
1788107984268644600,1.11564453125,0.8963279724121094,-0.6883749961853027,-0.2828109860420227
1788107984278736100,1.125736083984375,0.8007469773292542,-0.6597030162811279,-0.36932799220085144
1788107984288829000,1.135828857421875,0.7262589931488037,-0.8342030048370361,-0.46478500962257385
1788107984298921000,1.1459208984375,0.6283280253410339,-0.920894980430603,-0.7304790019989014
1788107984309020400,1.1560205078125,0.42059800028800964,-0.9191219806671143,-0.9034630060195923
1788107984319111200,1.166111083984375,0.17093400657176971,-0.9465749859809875,-0.9261580109596252
1788107984329205800,1.176205810546875,-0.08830700069665909,-0.885155975818634,-0.767570972442627
1788107984339292200,1.186292236328125,-0.22220100462436676,-0.9994980096817017,-0.5337449908256531
1788107984349383200,1.196383056640625,-0.16418500244617462,-1.0308140516281128,-0.22581399977207184
1788107984359477200,1.206477294921875,-0.08168400079011917,-0.999114990234375,-0.28049901127815247
1788107984369567500,1.2165673828125,0.1313759982585907,-1.0419429540634155,-0.13527299463748932
1788107984379661000,1.2266611328125,0.18254199624061584,-1.0541620254516602,-0.05621799826622009
1788107984389757700,1.2367578125,0.3033050000667572,-0.9891999959945679,0.04461599886417389
1788107984399844000,1.246843994140625,0.139724999666214,-1.0174570083618164,0.24958199262619019
1788107984409936000,1.256935791015625,0.10197699815034866,-0.950314998626709,0.2943339943885803
1788107984420029200,1.267029296875,0.060074999928474426,-0.7973909974098206,0.20729799568653107
1788107984430128400,1.27712841796875,0.05342400074005127,-0.7817569971084595,0.2156679928302765
1788107984440216800,1.287216796875,0.0420290008187294,-0.7438639998435974,0.22533300518989563
1788107984450314500,1.297314453125,-0.056115999817848206,-0.556302011013031,0.020788999274373055
1788107984460408600,1.30740869140625,-0.3819909989833832,-0.45258399844169617,-0.004720000084489584
1788107984470501600,1.317501708984375,-0.6026970148086548,-0.3285770118236542,0.0834600031375885
1788107984480586500,1.32758642578125,-0.8850610256195068,-0.35700899362564087,0.03903299942612648
1788107984490686200,1.337686279296875,-0.7948449850082397,-0.2874720096588135,0.0631370022892952
1788107984500782300,1.3477822265625,-0.6017569899559021,-0.2257460057735443,0.0759510025382042
1788107984510872300,1.357872314453125,-0.4141789972782135,-0.21771900355815887,0.19513000547885895
1788107984520951600,1.36795166015625,-0.45393800735473633,-0.1599770039319992,0.19852299988269806
1788107984531047000,1.378046875,-0.6150259971618652,-0.18322700262069702,0.16488400101661682
1788107984541139000,1.388138916015625,-0.5576120018959045,-0.2875629961490631,0.15237000584602356
1788107984551233300,1.3982333984375,-0.1506900042295456,-0.29075801372528076,0.0683479979634285
1788107984561329400,1.408329345703125,0.3043439984321594,-0.331279993057251,0.0059830001555383205
1788107984571424800,1.4184248046875,0.4473310112953186,-0.3101609945297241,-0.06687500327825546
1788107984581513000,1.428512939453125,0.2913089990615845,-0.24750199913978577,-0.1594810038805008
1788107984591607000,1.43860693359375,0.09022299945354462,-0.2684279978275299,-0.3026910126209259
1788107984601698800,1.44869873046875,-0.13263699412345886,-0.29692599177360535,-0.2725270092487335
1788107984611796200,1.458796142578125,-0.24186600744724274,-0.3848850131034851,-0.1098100021481514
1788107984621893400,1.468893310546875,-0.1451600044965744,-0.4181640148162842,-0.10462299734354019
1788107984631987200,1.4789873046875,0.17616799473762512,-0.523048996925354,-0.04227200150489807
1788107984642074400,1.489074462890625,0.4753499925136566,-0.5788949728012085,0.10763099789619446
1788107984652170500,1.49917041015625,0.6853479743003845,-0.6403689980506897,0.2239769995212555
1788107984662258000,1.5092578125,0.7389219999313354,-0.6661689877510071,0.18254899978637695
1788107984672347100,1.51934716796875,0.5764549970626831,-0.7401390075683594,0.047499001026153564
1788107984682441500,1.52944140625,0.15042400360107422,-0.5044460296630859,-0.24013200402259827
1788107984692539400,1.539539306640625,-0.3072260022163391,-0.4940809905529022,-0.2777029871940613
1788107984702618600,1.54961865234375,-0.41901499032974243,-0.805092990398407,0.11648499965667725
1788107984712719000,1.559718994140625,-0.16355200111865997,-0.9412649869918823,0.5531780123710632
1788107984722808000,1.56980810546875,0.34644201397895813,-0.8918820023536682,0.7969300150871277
1788107984732902400,1.57990234375,0.6858239769935608,-0.8295909762382507,0.7170180082321167
1788107984742994700,1.58999462890625,0.4892680048942566,-0.7001789808273315,0.2306250035762787
1788107984753094700,1.6000947265625,-0.10838600248098373,-0.5023300051689148,-0.3854230046272278
1788107984763192300,1.6101923828125,-0.7127879858016968,-0.4529539942741394,-0.5974419713020325
1788107984773290200,1.620290283203125,-1.2716209888458252,-0.37406599521636963,-0.6188859939575195
1788107984783392800,1.630392822265625,-1.51016104221344,-0.23948200047016144,-0.3760310113430023
1788107984793484300,1.640484375,-1.589784026145935,-0.18247699737548828,-0.14588899910449982
1788107984803576300,1.650576416015625,-1.1324739456176758,-0.14759400486946106,-0.02545900084078312
1788107984813670100,1.660670166015625,-0.49296098947525024,-0.24575799703598022,0.06623300164937973
1788107984823760600,1.6707607421875,-0.26701799035072327,-0.29294300079345703,-0.03585600107908249
1788107984833854200,1.680854248046875,0.016394000500440598,-0.40049898624420166,-0.0065379999577999115
1788107984843939800,1.69093994140625,0.2725430130958557,-0.33102700114250183,-0.028071999549865723
1788107984854024400,1.7010244140625,0.32414400577545166,-0.27681899070739746,-0.02457300014793873
1788107984864111900,1.71111181640625,0.21804699301719666,-0.11501099914312363,-0.08793000131845474
1788107984874201900,1.721201904296875,0.09198900312185287,-0.0405689999461174,-0.2775120139122009
1788107984884284200,1.7312841796875,-0.02413799986243248,0.09535899758338928,-0.2547689974308014
1788107984894381600,1.741381591796875,-0.09788200259208679,0.16631899774074554,-0.21223600208759308
1788107984904468700,1.75146875,-0.06327100098133087,0.19669200479984283,-0.16482900083065033
1788107984914580200,1.761580322265625,0.23916399478912354,0.23545999825000763,-0.12071499973535538
1788107984924671500,1.77167138671875,0.6133300065994263,0.3264249861240387,-0.03277700021862984
1788107984934759400,1.781759521484375,0.9423969984054565,0.2643339931964874,0.14895200729370117
1788107984944862000,1.791862060546875,1.3110209703445435,0.2209710031747818,0.36488598585128784
1788107984954950400,1.801950439453125,1.489313006401062,0.21572500467300415,0.45274999737739563
1788107984965043000,1.81204296875,1.3923720121383667,0.30480799078941345,0.3585110008716583
1788107984975129300,1.82212939453125,1.2691559791564941,0.3637999892234802,0.17854900658130646
1788107984985224200,1.83222412109375,1.1629389524459839,0.40946999192237854,0.03918499872088432
1788107984995312000,1.84231201171875,0.8201889991760254,0.5729259848594666,0.16573399305343628
1788107985005409800,1.852409912109375,0.6207789778709412,0.6288859844207764,0.44939300417900085
1788107985015506200,1.862506103515625,0.6937710046768188,0.7244269847869873,0.47822999954223633
1788107985025603300,1.872603271484375,0.605597972869873,0.7481859922409058,0.41247498989105225
1788107985035694800,1.88269482421875,0.3687410056591034,0.7226269841194153,0.28411298990249634
1788107985045782500,1.892782470703125,0.0794610008597374,0.7604910135269165,-0.038913000375032425
1788107985055870500,1.902870361328125,-0.19750000536441803,0.6708099842071533,-0.22032800316810608
1788107985065961500,1.91296142578125,-0.4538019895553589,0.6060069799423218,-0.4015730023384094
1788107985076051500,1.923051513671875,-0.5845040082931519,0.5481470227241516,-0.3709239959716797
1788107985086148600,1.933148681640625,-0.4709469974040985,0.3493260145187378,-0.2573539912700653
1788107985096243700,1.94324365234375,-0.35450899600982666,0.27708399295806885,-0.4309200048446655
1788107985106345000,1.953344970703125,-0.32110899686813354,0.024827999994158745,-0.4951289892196655
1788107985116435700,1.963435791015625,-0.19893799722194672,-0.12511900067329407,-0.6238660216331482
1788107985126527200,1.97352734375,-0.10727900266647339,-0.18529100716114044,-0.6789100170135498
1788107985136626000,1.9836259765625,-0.03417100012302399,-0.39457499980926514,-0.3373129963874817
1788107985146720500,1.993720458984375,0.19117699563503265,-0.5341330170631409,-0.06764400005340576
1788107985156806100,2.00380615234375,0.3777180016040802,-0.5358750224113464,-0.056106001138687134
1788107985166902300,2.01390234375,0.3954150080680847,-0.5929089784622192,-0.11360300332307816
1788107985176997000,2.0239970703125,0.1415890008211136,-0.5742560029029846,-0.2273859977722168
1788107985187097600,2.03409765625,-0.05996600165963173,-0.46595099568367004,-0.2855350077152252
1788107985197187000,2.04418701171875,-0.26757198572158813,-0.34547001123428345,-0.3099600076675415
1788107985207276000,2.054276123046875,-0.350941002368927,-0.3732450008392334,-0.10252700001001358
1788107985217366800,2.06436669921875,-0.24153900146484375,-0.33626899123191833,0.04987100139260292
1788107985227466200,2.07446630859375,-0.08815199881792068,-0.28356099128723145,0.18589100241661072
1788107985237549000,2.084549072265625,0.23614899814128876,-0.3427889943122864,0.433571994304657
1788107985247637500,2.094637451171875,0.49990200996398926,-0.49046000838279724,0.7226160168647766
1788107985257723400,2.104723388671875,0.8527960181236267,-0.482136994600296,0.7357670068740845
1788107985267807500,2.114807373046875,1.1567000150680542,-0.4639430046081543,0.6872280240058899
1788107985277890000,2.12489013671875,1.2412110567092896,-0.51808100938797,0.688480019569397
1788107985287977000,2.13497705078125,1.0855239629745483,-0.4939979910850525,0.9040390253067017
1788107985298070300,2.1450703125,0.8917009830474854,-0.5487449765205383,1.1732579469680786
1788107985308165000,2.1551650390625,0.6112179756164551,-0.6339589953422546,1.324105978012085
1788107985318252000,2.165251953125,0.46276599168777466,-0.6647940278053284,1.1956549882888794
1788107985328345900,2.175345947265625,0.26927798986434937,-0.589684009552002,0.8397989869117737
1788107985338437600,2.185437744140625,0.10922999680042267,-0.6636319756507874,0.504306972026825
1788107985348539400,2.195539306640625,0.11194799840450287,-0.6851450204849243,0.1695989966392517
1788107985358624500,2.20562451171875,0.10322099924087524,-0.753633975982666,-0.11299499869346619
1788107985368720600,2.215720703125,0.3823679983615875,-0.5579919815063477,-0.22284799814224243
1788107985378805800,2.2258056640625,0.46056100726127625,-0.43004798889160156,-0.08921799808740616
1788107985388905200,2.2359052734375,0.4118559956550598,-0.4443170130252838,0.17689800262451172
1788107985398990800,2.245990966796875,0.21408599615097046,-0.41475701332092285,0.22867099940776825
1788107985409094100,2.25609423828125,0.016294000670313835,-0.39535999298095703,0.18871499598026276
1788107985419184600,2.2661845703125,-0.01833599992096424,-0.38458898663520813,0.23021200299263
1788107985429270500,2.2762705078125,-0.005601999815553427,-0.3548620045185089,0.07797800004482269
1788107985439356700,2.286356689453125,-0.08534999936819077,-0.2732430100440979,-0.05896599963307381
1788107985449454000,2.2964541015625,-0.2906549870967865,-0.19434499740600586,-0.22339500486850739
1788107985459542500,2.30654248046875,-0.4525589942932129,-0.2148360013961792,-0.23605699837207794
1788107985469641700,2.316641845703125,-0.6157490015029907,-0.11995500326156616,-0.1335970014333725
1788107985479730700,2.326730712890625,-0.43318599462509155,-0.1185699999332428,0.11539100110530853
1788107985489820400,2.3368203125,-0.36164799332618713,0.028644999489188194,0.10353799909353256
1788107985499908900,2.346908935546875,-0.11852499842643738,0.07735499739646912,0.019860999658703804
1788107985510002200,2.357002197265625,-0.22051799297332764,0.011316999793052673,-0.06861100345849991
1788107985520094200,2.36709423828125,-0.3609899878501892,0.03989500179886818,-0.4350689947605133
1788107985530195700,2.37719580078125,0.36304301023483276,0.5002269744873047,0.05457000061869621
1788107985540284200,2.3872841796875,0.5386729836463928,0.5898879766464233,0.11682000011205673
1788107985550376700,2.397376708984375,0.3271540105342865,0.4940800070762634,0.25293201208114624
1788107985560465200,2.407465087890625,0.4130229949951172,0.4710719883441925,0.3240649998188019
1788107985570563800,2.417563720703125,0.48688599467277527,0.6324020028114319,0.3948819935321808
1788107985580661800,2.427661865234375,0.6492249965667725,0.7454689741134644,0.4974049925804138
1788107985590753800,2.43775390625,0.9435610175132751,0.8336700201034546,0.5380759835243225
1788107985600842200,2.44784228515625,1.0958490371704102,0.8629230260848999,0.5916500091552734
1788107985610939000,2.45793896484375,1.1800179481506348,0.8911769986152649,0.5683850049972534
1788107985621028900,2.46802880859375,1.0468440055847168,0.9369680285453796,0.504518985748291
1788107985631128000,2.478128173828125,0.8117430210113525,0.7728139758110046,0.4913330078125
1788107985641218800,2.48821875,0.419981986284256,0.5106589794158936,0.4188440144062042
1788107985651312400,2.4983125,0.18895399570465088,0.2839770019054413,0.2301650047302246
1788107985661405400,2.508405517578125,0.014605999924242496,0.04706000164151192,-0.01686899922788143
1788107985671497700,2.518497802734375,-0.12547600269317627,-0.05838700011372566,-0.4012809991836548
1788107985681584600,2.528584716796875,-0.3195270001888275,-0.02395699918270111,-0.8492010235786438
1788107985691681500,2.538681640625,-0.630154013633728,0.09077099710702896,-1.080029010772705
1788107985701770000,2.54877001953125,-0.9601640105247498,0.019099999219179153,-0.8572689890861511
1788107985711863600,2.558863525390625,-1.427507996559143,-0.004238000139594078,-0.4813329875469208
1788107985721982200,2.568982177734375,-1.9722330570220947,0.03504600003361702,-0.26928699016571045
1788107985732079400,2.579079345703125,-2.4040260314941406,0.04257600009441376,-0.29191699624061584
1788107985742177000,2.589177001953125,-2.5587880611419678,0.14729100465774536,-0.3818010091781616
1788107985752271600,2.599271728515625,-2.3538029193878174,0.2063020020723343,-0.239315003156662
1788107985762366000,2.609365966796875,-2.225843906402588,0.1205729991197586,0.10922300070524216
1788107985772462600,2.619462646484375,-2.1364660263061523,0.12399300187826157,0.2575649917125702
1788107985782573000,2.629572998046875,-1.9152510166168213,0.14886200428009033,0.19059300422668457
1788107985792669400,2.63966943359375,-1.579206943511963,0.08350100368261337,-0.09970100224018097
1788107985812849400,2.659849365234375,-1.3039309978485107,-0.1245110034942627,-0.2454250007867813
1788107985822941700,2.669941650390625,-1.1779299974441528,-0.23656000196933746,-0.13813400268554688
1788107985833034200,2.6800341796875,-0.7503719925880432,-0.2687689960002899,-0.14553099870681763
1788107985843118800,2.690118896484375,-0.42691999673843384,-0.26524901390075684,-0.3139060139656067
1788107985853212200,2.700212158203125,-0.2648169994354248,-0.16057400405406952,-0.6045640110969543
1788107985863304700,2.7103046875,-0.26807498931884766,-0.010789000429213047,-0.7590050101280212
1788107985873399800,2.72039990234375,-0.4802899956703186,0.03614899888634682,-0.760873019695282
1788107985883476700,2.730476806640625,-0.7241449952125549,0.1100199967622757,-0.6999239921569824
1788107985893567200,2.740567138671875,-0.622501015663147,0.16500699520111084,-0.7195330262184143
1788107985903651600,2.750651611328125,-0.32528600096702576,0.14309799671173096,-0.6411849856376648
1788107985923831800,2.770831787109375,-0.027844000607728958,0.3628369867801666,-0.3915709853172302
1788107985933920000,2.780919921875,-0.10328300297260284,0.40959399938583374,-0.40028199553489685
1788107985944000000,2.791,-0.2453249990940094,0.41668701171875,-0.4163149893283844
1788107985954091800,2.801091796875,-0.2768220007419586,0.5123649835586548,-0.3286300003528595
1788107985964176100,2.811176025390625,-0.2825999855995178,0.5767819881439209,-0.3360710144042969
1788107985974265900,2.821265869140625,-0.2641969919204712,0.6419399976730347,-0.34784001111984253
1788107985984351500,2.8313515625,-0.18072299659252167,0.5712559819221497,-0.2514210045337677
1788107985994446300,2.8414462890625,-0.11287499964237213,0.4615049958229065,-0.2239290028810501
1788107986004531000,2.851531005859375,0.06882999837398529,0.4034520089626312,-0.12180200219154358
1788107986014632700,2.8616328125,0.30125799775123596,0.4873949885368347,-0.052104998379945755
1788107986024722000,2.871721923828125,0.38211798667907715,0.6456500291824341,-0.07285799831151962
1788107986034814700,2.881814697265625,0.2625890076160431,0.611162006855011,-0.009577999822795391
1788107986044905700,2.89190576171875,0.2045609951019287,0.44165098667144775,0.1356319934129715
1788107986054988800,2.90198876953125,0.2981800138950348,0.38750898838043213,0.1434819996356964
1788107986065069800,2.91206982421875,0.27191200852394104,0.4105690121650696,-0.014065999537706375
1788107986075159800,2.922159912109375,0.2557069957256317,0.4402959942817688,-0.22311900556087494
1788107986085253400,2.93225341796875,0.11623299866914749,0.29169800877571106,-0.1515520066022873
1788107986095347500,2.942347412109375,0.13326600193977356,0.19353699684143066,0.005005999933928251
1788107986105441300,2.952441162109375,0.14913399517536163,0.21565300226211548,0.11337599903345108
1788107986115529500,2.962529541015625,0.0013970000436529517,0.25460198521614075,0.16931499540805817
1788107986125626000,2.972626220703125,-0.19363300502300262,0.29195600748062134,0.059797000139951706
1788107986135710500,2.98271044921875,-0.49309900403022766,0.23360000550746918,-0.17697599530220032
1788107986145798400,2.99279833984375,-0.6285349726676941,0.2525089979171753,-0.26333799958229065
1788107986155894000,3.00289404296875,-1.0282119512557983,0.23747000098228455,-0.2857460081577301
1788107986165988000,3.012988037109375,-1.0126090049743652,0.25235098600387573,-0.295289009809494
1788107986176080600,3.02308056640625,-0.9264460206031799,0.24223800003528595,-0.3473210036754608
1788107986186182100,3.03318212890625,-0.9081060290336609,0.10391800105571747,-0.25158101320266724
1788107986196270600,3.0432705078125,-0.6248149871826172,-0.09085399657487869,-0.13090500235557556
1788107986206365200,3.053365234375,-0.2575579881668091,-0.21562500298023224,-0.05203099921345711
1788107986216455000,3.063454833984375,0.0864029973745346,-0.15511800348758698,-0.04136500135064125
1788107986226569000,3.07356884765625,0.36438798904418945,-0.2788250148296356,0.13819800317287445
1788107986246760200,3.09376025390625,0.31944799423217773,-0.37318798899650574,0.231330007314682
1788107986256852700,3.103852783203125,0.11181099712848663,-0.3366070091724396,0.24591200053691864
1788107986266945800,3.11394580078125,-0.027705000713467598,-0.34286201000213623,0.16054299473762512
1788107986277046000,3.1240458984375,-0.11823099851608276,-0.321821004152298,0.14647600054740906
1788107986287137500,3.134137451171875,-0.18524299561977386,-0.3518339991569519,0.14710800349712372
1788107986297234200,3.144234130859375,-0.2111629992723465,-0.3479970097541809,0.09084700047969818
1788107986307327500,3.154327392578125,-0.23842500150203705,-0.3690049946308136,0.13469600677490234
1788107986317412000,3.164412109375,-0.31766998767852783,-0.44817399978637695,0.16837100684642792
1788107986327526000,3.17452587890625,-0.39147600531578064,-0.6005550026893616,0.44236499071121216
1788107986337617400,3.184617431640625,-0.29595500230789185,-0.7415000200271606,0.7351419925689697
1788107986347715800,3.1947158203125,-0.118026003241539,-0.8543959856033325,0.8253819942474365
1788107986357811700,3.204811767578125,0.057819999754428864,-0.8628939986228943,0.6726719737052917
1788107986367907000,3.214906982421875,0.30046799778938293,-0.8247969746589661,0.424032986164093
1788107986377999400,3.224999267578125,0.016071999445557594,-0.7094839811325073,0.15124499797821045
1788107986388088600,3.235088623046875,0.018476000055670738,-0.7109879851341248,0.15482400357723236
1788107986398175000,3.245175048828125,-0.5881850123405457,-0.6844019889831543,-0.0064199999906122684
1788107986408270600,3.2552705078125,-0.901934027671814,-0.6852549910545349,-0.05728299915790558
1788107986418359600,3.265359619140625,-1.1367419958114624,-0.7713639736175537,-0.018393000587821007
1788107986428446000,3.275446044921875,-1.253983974456787,-0.6687600016593933,-0.04770800098776817
1788107986438526000,3.28552587890625,-1.1420079469680786,-0.5589219927787781,-0.05483299866318703
1788107986448621000,3.29562109375,-1.070180058479309,-0.5119240283966064,-0.07117599993944168
1788107986458717400,3.305717529296875,-0.9435930252075195,-0.5033460259437561,-0.25242599844932556
1788107986468809500,3.3158095703125,-0.8837640285491943,-0.4809570014476776,-0.37848100066185
1788107986478896400,3.325896484375,-0.7570469975471497,-0.37666699290275574,-0.3962700068950653
1788107986488979200,3.335979248046875,-0.679282009601593,-0.3637070059776306,-0.2349810004234314
1788107986499068200,3.346068115234375,-0.687969982624054,-0.2688409984111786,-0.13887299597263336
1788107986509158100,3.356158203125,-0.7349339723587036,-0.10517899692058563,-0.05648599937558174
1788107986519243000,3.366242919921875,-0.5843690037727356,0.0563340000808239,-0.11935999989509583
1788107986529336300,3.37633642578125,-0.36726701259613037,0.12678499519824982,-0.06251099705696106
1788107986539424000,3.386424072265625,-0.08419699966907501,0.19985400140285492,0.03329399973154068
1788107986549511200,3.39651123046875,0.21021099388599396,0.16035699844360352,0.21005700528621674
1788107986559595800,3.406595703125,0.5574749708175659,0.15411999821662903,0.23586499691009521
1788107986569695500,3.416695556640625,1.047813057899475,0.2908259928226471,0.23786400258541107
1788107986579794200,3.426794189453125,1.3366420269012451,0.29205799102783203,0.2223459929227829
1788107986589886200,3.43688623046875,1.4397130012512207,0.4271239936351776,0.11136200278997421
1788107986599974700,3.446974609375,1.3012219667434692,0.6413419842720032,-0.10245899856090546
1788107986610070500,3.457070556640625,1.13994300365448,0.7224500179290771,-0.2175920009613037
1788107986620152300,3.46715234375,0.9859600067138672,0.6317499876022339,-0.08456099778413773
1788107986630250000,3.47725,0.9750189781188965,0.5809429883956909,0.118927001953125
1788107986640340000,3.487340087890625,1.2181429862976074,0.5869389772415161,0.36145898699760437
1788107986650430200,3.49743017578125,1.3145289421081543,0.5578839778900146,0.49985501170158386
1788107986660528000,3.507528076171875,1.2488280534744263,0.5230680108070374,0.34334298968315125
1788107986670631700,3.517631591796875,1.0964529514312744,0.6783149838447571,0.03767700120806694
1788107986680722200,3.52772216796875,0.6110420227050781,0.8015400171279907,-0.4381349980831146
1788107986690828500,3.53782861328125,0.1092199981212616,0.7035620212554932,-0.46233099699020386
1788107986700918000,3.54791796875,-0.21166099607944489,0.5606279969215393,-0.15615899860858917
1788107986711010000,3.558010009765625,-0.048792000859975815,0.6023169755935669,0.22400300204753876
1788107986721101300,3.568101318359375,0.4151029884815216,0.7513059973716736,0.5275620222091675
1788107986731207000,3.57820703125,0.6470580101013184,0.6562020182609558,0.6614869832992554
1788107986741297700,3.588297607421875,0.6821269989013672,0.48565900325775146,0.7740319967269897
1788107986751393300,3.598393310546875,0.8247939944267273,0.2655070126056671,0.7676309943199158
1788107986761484800,3.60848486328125,1.0187020301818848,0.33517399430274963,0.5637189745903015
1788107986771568400,3.618568359375,1.0016310214996338,0.3277440071105957,0.45303601026535034
1788107986781660200,3.62866015625,0.7507719993591309,0.14132599532604218,0.4364520013332367
1788107986791755800,3.638755859375,0.5431600213050842,0.09222400188446045,0.42121198773384094
1788107986801838800,3.6488388671875,0.3634909987449646,0.10702499747276306,0.34606099128723145
1788107986811938800,3.658938720703125,0.1476680040359497,-0.047276001423597336,0.46574199199676514
1788107986822026000,3.66902587890625,0.03256399929523468,-0.18733200430870056,0.6584230065345764
1788107986832121300,3.679121337890625,-0.009019999764859676,-0.3047899901866913,0.7261919975280762
1788107986842207500,3.68920751953125,-0.04289399832487106,-0.28091299533843994,0.6350039839744568
1788107986852300800,3.69930078125,-0.2167470008134842,-0.34109199047088623,0.5193279981613159
1788107986862400300,3.709400146484375,-0.35298800468444824,-0.3157519996166229,0.4225989878177643
1788107986872486700,3.719486572265625,-0.5192139744758606,-0.28811898827552795,0.35350799560546875
1788107986882571800,3.72957177734375,-0.8934490084648132,-0.1359879970550537,0.2474599927663803
1788107986892660200,3.73966015625,-0.9967100024223328,-0.16952599585056305,0.28116199374198914
1788107986902742000,3.749741943359375,-1.0748369693756104,-0.25353801250457764,0.450439989566803
1788107986912830000,3.759829833984375,-0.8745419979095459,-0.27781400084495544,0.5600050091743469
1788107986922923500,3.769923583984375,-0.3579390048980713,-0.21279799938201904,0.7167450189590454
1788107986933031000,3.780031005859375,0.16961899399757385,-0.2763980031013489,0.7598680257797241
1788107986943115800,3.79011572265625,0.4585759937763214,-0.2388180047273636,0.4780440032482147
1788107986953216800,3.800216796875,0.2857230007648468,-0.10119900107383728,-0.04959699884057045
1788107986963303200,3.81030322265625,-0.27838000655174255,0.06710100173950195,-0.5475289821624756
1788107986973399600,3.820399658203125,-0.8363119959831238,0.11921600252389908,-0.6979269981384277
1788107986983477500,3.8304775390625,-1.2748759984970093,0.15056799352169037,-0.6076120138168335
1788107986993565400,3.8405654296875,-1.336258053779602,0.3234190046787262,-0.48763200640678406
1788107987003659800,3.85065966796875,-1.0775649547576904,0.46513599157333374,-0.3929390013217926
1788107987013752300,3.86075244140625,-0.6781150102615356,0.5475460290908813,-0.2304379940032959
1788107987023840800,3.8708408203125,-0.19040599465370178,0.3321300148963928,0.06325799971818924
1788107987033924600,3.880924560546875,0.3085489869117737,0.2159920036792755,0.27121999859809875
1788107987044013300,3.891013427734375,0.8093460202217102,0.2965269982814789,0.30995500087738037
1788107987054107400,3.901107421875,1.00334894657135,0.4168969988822937,0.16541199386119843
1788107987064199000,3.911198974609375,0.8293480277061462,0.50177001953125,-0.0826599970459938
1788107987074293800,3.921293701171875,0.3135469853878021,0.5837690234184265,-0.39686501026153564
1788107987084383000,3.931383056640625,-0.27586498856544495,0.6828529834747314,-0.577629029750824
1788107987094477000,3.94147705078125,-0.8103399872779846,0.7767770290374756,-0.690526008605957
1788107987104567600,3.951567626953125,-1.0585589408874512,0.837116003036499,-0.6546679735183716
1788107987114657300,3.9616572265625,-1.157377004623413,0.9499059915542603,-0.6809470057487488
1788107987124749600,3.97174951171875,-0.795898973941803,0.999239981174469,-0.5588459968566895
1788107987134839000,3.981839111328125,-0.45113900303840637,0.8766670227050781,-0.3647550046443939
1788107987144931000,3.99193115234375,-0.07310300320386887,0.6798459887504578,0.0260429996997118
1788107987155026400,4.0020263671875,0.3286620080471039,0.49282100796699524,0.2854689955711365
1788107987165118200,4.0121181640625,0.609745979309082,0.3875420093536377,0.3909730017185211
1788107987175213000,4.022213134765625,0.6179080009460449,0.23610800504684448,0.2965570092201233
1788107987185308200,4.03230810546875,0.2556360065937042,0.17896899580955505,0.0636029988527298
1788107987195402200,4.04240234375,-0.3528290092945099,0.2056799978017807,-0.19768300652503967
1788107987205493000,4.052492919921875,-1.1115050315856934,0.29562899470329285,-0.4678820073604584
1788107987215583200,4.062583251953125,-1.6589900255203247,0.2962859869003296,-0.5880110263824463
1788107987225673000,4.0726728515625,-2.013350009918213,0.2752389907836914,-0.6255130171775818
1788107987235758800,4.0827587890625,-1.893386960029602,0.18265800178050995,-0.4301089942455292
1788107987245855000,4.09285498046875,-1.3891559839248657,0.030984999611973763,-0.16253100335597992
1788107987255945700,4.10294580078125,-0.711404025554657,-0.08531100302934647,0.0653970018029213
1788107987266042600,4.113042724609375,-0.17489199340343475,-0.3396559953689575,0.26288801431655884
1788107987276130800,4.123130859375,0.22556300461292267,-0.5275480151176453,0.25690901279449463
1788107987286234600,4.133234619140625,0.4125089943408966,-0.5533649921417236,0.14302200078964233
1788107987296327200,4.1433271484375,0.22464700043201447,-0.6433929800987244,-0.06229899823665619
1788107987306420700,4.153420654296875,-0.2179960012435913,-0.7653669714927673,-0.2146800011396408
1788107987316516900,4.163516845703125,-0.5205879807472229,-0.7480430006980896,-0.2645129859447479
1788107987326616600,4.173616455078125,-0.8837829828262329,-0.5682939887046814,-0.396930992603302
1788107987336708600,4.18370849609375,-1.2875579595565796,-0.345209002494812,-0.5969849824905396
1788107987346804700,4.1938046875,-1.6509649753570557,-0.17040100693702698,-0.776835024356842
1788107987356900400,4.203900390625,-1.7585879564285278,-0.08595500141382217,-0.7740820050239563
1788107987366999800,4.213999755859375,-1.512465000152588,-0.1486389935016632,-0.5842750072479248
1788107987377091000,4.224091064453125,-0.9189440011978149,-0.27028200030326843,-0.3682369887828827
1788107987387189000,4.23418896484375,-0.08842500299215317,-0.3184179961681366,-0.1803469955921173
1788107987397281500,4.244281494140625,0.6188690066337585,-0.3994089961051941,-0.09708499908447266
1788107987407376000,4.2543759765625,0.9279119968414307,-0.4805760085582733,-0.05440400168299675
1788107987417463300,4.26446337890625,0.8964070081710815,-0.5825409889221191,-0.134675994515419
1788107987427553300,4.27455322265625,0.5914260149002075,-0.527055025100708,-0.3894500136375427
1788107987437646300,4.284646240234375,0.004201999865472317,-0.41862499713897705,-0.5659099817276001
1788107987447741200,4.2947412109375,-0.6304879784584045,-0.3120259940624237,-0.7143930196762085
1788107987457832700,4.304832763671875,-1.0474120378494263,-0.10724399983882904,-0.7464200258255005
1788107987467929300,4.314929443359375,-1.3763149976730347,0.1259550005197525,-0.8340499997138977
1788107987478026200,4.325026123046875,-1.4585050344467163,0.2778739929199219,-0.7977539896965027
1788107987488129800,4.3351298828125,-1.3740249872207642,0.24226200580596924,-0.5068899989128113
1788107987498227000,4.34522705078125,-0.9479789733886719,0.016706999391317368,0.015967000275850296
1788107987508327200,4.3553271484375,-0.24317699670791626,-0.2079319953918457,0.5000190138816833
1788107987518417200,4.365417236328125,0.4171200096607208,-0.21210500597953796,0.560500979423523
1788107987528504600,4.375504638671875,0.678613007068634,-0.07003799825906754,0.12440399825572968
1788107987538593300,4.38559326171875,0.40692201256752014,-0.039462000131607056,-0.38913899660110474
1788107987548684800,4.395684814453125,-0.07275199890136719,-0.10806699842214584,-0.6702659726142883
1788107987558771000,4.40577099609375,-0.49242499470710754,-0.05504300072789192,-0.7645969986915588
1788107987568852700,4.415852783203125,-0.8179240226745605,0.11456599831581116,-0.7467039823532104
1788107987578937900,4.425937744140625,-1.0676889419555664,0.20512300729751587,-0.44993600249290466
1788107987589029600,4.436029541015625,-0.7884759902954102,-0.042438000440597534,-0.28103798627853394
1788107987599115300,4.446115234375,-1.030650019645691,0.34824201464653015,-0.11478599905967712
1788107987609199400,4.456199462890625,-0.12400999665260315,0.13657799363136292,0.17827899754047394
1788107987619290400,4.466290283203125,0.07405199855566025,0.08555799722671509,0.16772200167179108
1788107987629381400,4.47638134765625,0.16265200078487396,-0.15256500244140625,0.12454000115394592
1788107987639467800,4.4864677734375,0.17355799674987793,-0.18911300599575043,0.10223700106143951
1788107987649552100,4.49655224609375,0.11653999984264374,-0.22194600105285645,-0.02850699983537197
1788107987659645200,4.506645263671875,-0.023055000230669975,-0.23027099668979645,-0.11013499647378922
1788107987669748700,4.516748779296875,-0.33883100748062134,-0.22653600573539734,-0.23096199333667755
1788107987679842800,4.5268427734375,-0.647691011428833,-0.1474819928407669,-0.3296720087528229
1788107987689939700,4.536939697265625,-0.897612988948822,-0.012738999910652637,-0.4590820074081421
1788107987700025600,4.547025634765625,-0.9981480240821838,0.043540000915527344,-0.4860199987888336
1788107987710112500,4.557112548828125,-0.756496012210846,-0.030048999935388565,-0.3299669921398163
1788107987720210200,4.567210205078125,-0.316087007522583,-0.05313500016927719,-0.17889200150966644
1788107987730303200,4.57730322265625,0.11132600158452988,-0.07538899779319763,-0.015238000079989433
1788107987740407000,4.587406982421875,0.3560500144958496,-0.21591900289058685,0.16130200028419495
1788107987750503200,4.597503173828125,0.6828010082244873,-0.45804598927497864,0.3503049910068512
1788107987760599300,4.607599365234375,0.981007993221283,-0.7238770127296448,0.5685359835624695
1788107987770687500,4.6176875,1.311318039894104,-0.781557023525238,0.6014620065689087
1788107987780784000,4.6277841796875,1.3945939540863037,-0.7025930285453796,0.38352298736572266
1788107987790878500,4.63787841796875,0.9226019978523254,-0.4905970096588135,-0.116177998483181
1788107987800974800,4.647974853515625,0.14470399916172028,-0.29540300369262695,-0.5709720253944397
1788107987811064300,4.658064208984375,-0.7303590178489685,-0.21809999644756317,-0.8159319758415222
1788107987821158100,4.668158203125,-1.3546600341796875,-0.13915100693702698,-0.7490220069885254
1788107987831243800,4.678243896484375,-1.4979939460754395,-0.0047900001518428326,-0.5288019776344299
1788107987841341000,4.6883408203125,-1.1768020391464233,0.14683599770069122,-0.3473680019378662
1788107987851433000,4.698432861328125,-0.5818390250205994,0.10094399750232697,-0.10179600119590759
1788107987861528300,4.7085283203125,0.025724999606609344,-0.0016880000475794077,0.14926199615001678
1788107987871618300,4.718618408203125,0.4072220027446747,-0.04774799942970276,0.18416500091552734
1788107987881717200,4.72871728515625,0.39962100982666016,0.19948600232601166,-0.1455010026693344
1788107987891820800,4.73882080078125,-0.0038709999062120914,0.47576001286506653,-0.552370011806488
1788107987901906200,4.74890625,-0.6073099970817566,0.6063359975814819,-0.807761013507843
1788107987911991300,4.7589912109375,-1.1738859415054321,0.6894220113754272,-0.7928869724273682
1788107987922122500,4.76912255859375,-1.2773070335388184,0.73124098777771,-0.5506809949874878
1788107987932213000,4.779212890625,-0.6280959844589233,0.8357009887695312,-0.2358500063419342
1788107987942308600,4.78930859375,0.035617999732494354,0.9025629758834839,0.07076500356197357
1788107987952395800,4.799395751953125,0.5446069836616516,0.9409639835357666,0.2667739987373352
1788107987962492700,4.80949267578125,0.6836130023002625,0.9692230224609375,0.37545299530029297
1788107987972578300,4.819578369140625,0.717756986618042,0.9841189980506897,0.3340809941291809
1788107987982666200,4.829666259765625,0.6598420143127441,0.996300995349884,0.14274300634860992
1788107987992747500,4.83974755859375,0.26275700330734253,1.0212169885635376,-0.016057999804615974
1788107988002839800,4.84983984375,-0.11052200198173523,0.9304640293121338,-0.07982899993658066
1788107988012926000,4.859926025390625,-0.3551329970359802,0.754181981086731,-0.020284000784158707
1788107988023010600,4.870010498046875,-0.3041999936103821,0.5271459817886353,0.16971999406814575
1788107988033098200,4.88009814453125,0.003197999903932214,0.4052079916000366,0.20725299417972565
1788107988043194600,4.890194580078125,0.2966879904270172,0.16999399662017822,0.30618301033973694
1788107988053274600,4.900274658203125,0.6261429786682129,-0.06980200111865997,0.3051469922065735
1788107988063366000,4.910365966796875,0.9236559867858887,-0.2300180047750473,0.3017669916152954
1788107988073455600,4.92045556640625,1.1730420589447021,-0.3286600112915039,0.348035991191864
1788107988083541000,4.930541015625,0.9594429731369019,-0.4328039884567261,0.445591002702713
1788107988093635800,4.9406357421875,0.5598580241203308,-0.6727790236473083,0.6643040180206299
1788107988103735000,4.950735107421875,0.2128639966249466,-0.8053200244903564,0.7964349985122681
1788107988113829000,4.9608291015625,-0.3604390025138855,-0.7390120029449463,0.6089059710502625
1788107988123917000,4.9709169921875,-1.1282540559768677,-0.4756380021572113,0.01802700012922287
1788107988134009600,4.981009521484375,-1.8865669965744019,-0.22403299808502197,-0.5938590168952942
1788107988144095700,4.991095703125,-2.499121904373169,-0.19028300046920776,-0.8131639957427979
1788107988154191400,5.00119140625,-2.602926015853882,-0.19785000383853912,-0.6525030136108398
1788107988164277500,5.011277587890625,-2.160533905029297,-0.1710139960050583,-0.23103199899196625
1788107988174373600,5.02137353515625,-1.3414440155029297,-0.13353900611400604,0.2527649998664856
1788107988184465400,5.03146533203125,-0.6753110289573669,-0.1070680022239685,0.4551680088043213
1788107988194557400,5.041557373046875,-0.34640800952911377,0.018364999443292618,0.3783549964427948
1788107988204651800,5.05165185546875,-0.39003700017929077,0.12104299664497375,0.06303399801254272
1788107988214745300,5.061745361328125,-0.571628987789154,-0.020375000312924385,-0.09637299925088882
1788107988224829700,5.07182958984375,-0.5809249877929688,0.016541000455617905,-0.1132970005273819
1788107988234916000,5.081916015625,-0.5851629972457886,0.14668700098991394,0.062359001487493515
1788107988245010000,5.092010009765625,-0.35277798771858215,0.28764501214027405,0.1138010025024414
1788107988255098000,5.10209814453125,-0.22137799859046936,0.27393099665641785,0.10838799923658371
1788107988265189600,5.112189697265625,-0.029992999508976936,0.23291799426078796,0.0845939964056015
1788107988275272000,5.12227197265625,0.18487200140953064,0.3224329948425293,0.001756999990902841
1788107988285367000,5.132366943359375,0.3569299876689911,0.3979179859161377,-0.13224799931049347
1788107988295455700,5.142455810546875,0.3404789865016937,0.40670400857925415,-0.248540997505188
1788107988305547000,5.152547119140625,0.18884900212287903,0.3912220001220703,-0.21236899495124817
1788107988315641600,5.1626416015625,0.020306000486016273,0.4821310043334961,-0.2957020103931427
1788107988325739500,5.172739501953125,-0.12064799666404724,0.5502049922943115,-0.5249300003051758
1788107988335833900,5.182833740234375,-0.43720099329948425,0.5765849947929382,-0.7426069974899292
1788107988345931000,5.192930908203125,-0.6989830136299133,0.6122769713401794,-0.9057509899139404
1788107988356022500,5.2030224609375,-0.7925019860267639,0.6161999702453613,-0.9338359832763672
1788107988366118700,5.21311865234375,-0.6798949837684631,0.4778989851474762,-0.7128080129623413
1788107988376213000,5.223212890625,-0.2029220014810562,0.267535001039505,-0.24645699560642242
1788107988386313700,5.233313720703125,0.4028019905090332,0.04805799946188927,0.15953199565410614
1788107988396395500,5.2433955078125,0.8689479827880859,0.0283649992197752,0.17682500183582306
1788107988406490600,5.25349072265625,0.661067008972168,0.1793079972267151,-0.13737599551677704
1788107988416574500,5.263574462890625,0.02386399917304516,0.3008730113506317,-0.6485850214958191
1788107988426678800,5.2736787109375,-0.7391240000724792,0.34512099623680115,-1.0097379684448242
1788107988436776200,5.283776123046875,-1.273584008216858,0.3858410120010376,-1.0408289432525635
1788107988446873600,5.29387353515625,-1.3196220397949219,0.3772059977054596,-0.6169760227203369
1788107988456968400,5.303968505859375,-1.0492969751358032,0.35821598768234253,-0.11060599982738495
1788107988467062800,5.314062744140625,-0.5027390122413635,0.2984350025653839,0.25992798805236816
1788107988477149200,5.324149169921875,-0.017872000113129616,0.38906899094581604,0.3694950044155121
1788107988487247400,5.334247314453125,0.1978140026330948,0.37258100509643555,0.27239200472831726
1788107988497337000,5.344337158203125,0.17330799996852875,0.2836509943008423,0.009998000226914883
1788107988507428600,5.3544287109375,0.04861700162291527,0.2518419921398163,-0.25028300285339355
1788107988517512200,5.36451220703125,0.00892999954521656,0.22900600731372833,-0.16155299544334412
1788107988527607300,5.374607177734375,0.08382199704647064,0.15850700438022614,0.09279099851846695
1788107988537699000,5.384698974609375,0.10882700234651566,0.2340719997882843,0.16286100447177887
1788107988547799600,5.394799560546875,-0.0558289997279644,0.32613900303840637,0.026138000190258026
1788107988557899300,5.404899169921875,-0.27589499950408936,0.3109560012817383,-0.06006599962711334
1788107988567988700,5.41498876953125,-0.23312799632549286,0.1708810031414032,-0.11369100213050842
1788107988578084400,5.42508447265625,0.07461000233888626,0.031082000583410263,0.025877999141812325
1788107988588172500,5.435172607421875,0.6034049987792969,-0.09438300132751465,0.3253970146179199
1788107988598266400,5.445266357421875,0.9504619836807251,-0.20289599895477295,0.5805870294570923
1788107988608369000,5.455368896484375,1.0717120170593262,-0.2806609869003296,0.6192520260810852
1788107988618451000,5.465450927734375,0.7884230017662048,-0.13761499524116516,0.18664099276065826
1788107988628535000,5.47553515625,0.12008199840784073,0.04470999911427498,-0.2872979938983917
1788107988638630100,5.485630126953125,-0.4310329854488373,0.07946000248193741,-0.526265025138855
1788107988648724000,5.495723876953125,-0.7718870043754578,0.037932999432086945,-0.4702700078487396
1788107988658810600,5.505810546875,-0.96629798412323,0.1373720020055771,-0.37125998735427856
1788107988668900600,5.515900634765625,-0.6811779737472534,0.18471099436283112,-0.1879110038280487
1788107988678995000,5.525994873046875,-0.25399601459503174,0.2841860055923462,-0.060738999396562576
1788107988689078500,5.53607861328125,-0.2741749882698059,0.32023000717163086,-0.15425600111484528
1788107988699164400,5.546164306640625,-0.27686598896980286,0.34569498896598816,-0.2815159857273102
1788107988709254700,5.556254638671875,-0.361409991979599,0.5620669722557068,-0.5156490206718445
1788107988719349500,5.566349609375,-0.35854798555374146,0.6691719889640808,-0.6119570136070251
1788107988729446000,5.57644580078125,-0.37536200881004333,0.7111030220985413,-0.5252940058708191
1788107988739545000,5.586545166015625,-0.09019400179386139,0.47231900691986084,-0.12695099413394928
1788107988749633800,5.5966337890625,0.4932740032672882,0.14714600145816803,0.3624440133571625
1788107988759731000,5.60673095703125,1.0420219898223877,0.1288599967956543,0.4582509994506836
1788107988769810200,5.61681005859375,1.407997965812683,0.28933998942375183,0.16009099781513214
1788107988779897900,5.62689794921875,1.5207149982452393,0.26788198947906494,-0.07803899794816971
1788107988789998600,5.63699853515625,1.3575949668884277,0.09077099710702896,-0.139505997300148
1788107988800096000,5.647095947265625,1.2195769548416138,-0.0677030012011528,-0.051382001489400864
1788107988810180000,5.65718017578125,1.0624860525131226,-0.0904339998960495,0.10054200142621994
1788107988820280800,5.66728076171875,0.5939459800720215,-0.13144800066947937,0.31985899806022644
1788107988830366000,5.677365966796875,0.1526850014925003,-0.19164100289344788,0.36913299560546875
1788107988840464000,5.6874638671875,-0.2577979862689972,0.0079969996586442,0.13060499727725983
1788107988850546000,5.6975458984375,-1.0035300254821777,0.1066029965877533,-0.23986899852752686
1788107988860649200,5.707649169921875,-1.6275169849395752,0.15533599257469177,-0.5109040141105652
1788107988870740000,5.717739990234375,-1.934770941734314,0.12973399460315704,-0.6288040280342102
1788107988880850200,5.72785009765625,-1.9581979513168335,-0.18514299392700195,-0.2145950049161911
1788107988890938600,5.737938720703125,-1.349985957145691,-0.4444270133972168,0.37133198976516724
1788107988901034800,5.74803466796875,-0.2669390141963959,-0.5158669948577881,0.7288119792938232
1788107988911122000,5.758121826171875,0.40653300285339355,-0.6343560218811035,0.7546820044517517
1788107988921209300,5.768209228515625,0.6125839948654175,-0.777899980545044,0.5106909871101379
1788107988931298000,5.778298095703125,0.5006870031356812,-0.783469021320343,0.10180699825286865
1788107988941396500,5.788396484375,0.033479999750852585,-0.7539860010147095,-0.35484200716018677
1788107988951479800,5.798479736328125,-0.33694300055503845,-0.7622920274734497,-0.4864319860935211
1788107988961565200,5.808565185546875,-0.4789229929447174,-0.8582969903945923,-0.2383500039577484
1788107988971661000,5.8186611328125,-0.33698099851608276,-0.9883019924163818,0.006711999885737896
1788107988981751800,5.828751708984375,0.005869000218808651,-0.8960300087928772,0.04462900012731552
1788107988991848700,5.8388486328125,0.032395001500844955,-0.6460729837417603,-0.09059499949216843
1788107989001938400,5.8489384765625,-0.31776899099349976,-0.5408909916877747,-0.3903000056743622
1788107989012041700,5.859041748046875,-0.6499099731445312,-0.48887500166893005,-0.6720200181007385
1788107989022134500,5.869134521484375,-0.6913290023803711,-0.3850089907646179,-0.6843600273132324
1788107989032221700,5.8792216796875,-0.8055509924888611,-0.2760460078716278,-0.7130489945411682
1788107989042314800,5.889314697265625,-0.8040940165519714,-0.21595999598503113,-0.6283249855041504
1788107989052406800,5.89940673828125,-0.513962984085083,0.01587199978530407,-0.5726270079612732
1788107989062498800,5.909498779296875,-0.13384999334812164,0.17659999430179596,-0.5270159840583801
1788107989072642300,5.919642333984375,0.14893099665641785,0.3144260048866272,-0.48949500918388367
1788107989082727200,5.92972705078125,0.2904129922389984,0.281125009059906,-0.3664189875125885
1788107989092822000,5.939822021484375,0.5910670161247253,0.423554003238678,-0.20611800253391266
1788107989102909200,5.9499091796875,0.8337309956550598,0.6105939745903015,-0.03732199966907501
1788107989113003800,5.960003662109375,1.0819040536880493,0.7156829833984375,0.14968299865722656
1788107989123090400,5.97009033203125,1.295246958732605,0.6960740089416504,0.308118999004364
1788107989133186800,5.980186767578125,1.4913549423217773,0.7059289813041687,0.3132700026035309
1788107989143281400,5.990281494140625,1.7096879482269287,0.6637629866600037,0.3321880102157593
1788107989153380900,6.000380859375,1.8593460321426392,0.6627789735794067,0.2915489971637726
1788107989163466200,6.01046630859375,1.9649460315704346,0.5739459991455078,0.33828800916671753
1788107989173572000,6.020572021484375,1.957250952720642,0.5501689910888672,0.3593739867210388
1788107989183667500,6.03066748046875,1.658308982849121,0.5546240210533142,0.2891809940338135
1788107989193755100,6.040755126953125,1.2311559915542603,0.4644309878349304,0.18549300730228424
1788107989203849200,6.05084912109375,0.7504839897155762,0.42833900451660156,0.10044699907302856
1788107989213930500,6.060930419921875,0.27511999011039734,0.3291630148887634,0.01170200016349554
1788107989224022500,6.0710224609375,-0.005555999930948019,0.17865599691867828,0.1377429962158203
1788107989234103300,6.081103271484375,-0.0043830000795423985,0.032923001796007156,0.2572050094604492
1788107989244191200,6.091191162109375,0.07233300060033798,-0.10536400228738785,0.4982239902019501
1788107989254279000,6.10127880859375,0.25507399439811707,-0.18744400143623352,0.4657970070838928
1788107989264371700,6.111371826171875,0.24336199462413788,-0.2315160036087036,0.14882099628448486
1788107989274462200,6.121462158203125,0.020910000428557396,-0.29461100697517395,-0.15636099874973297
1788107989284554200,6.13155419921875,-0.3765679895877838,-0.22649900615215302,-0.646934986114502
1788107989294654200,6.141654296875,-0.6762580275535583,-0.054402001202106476,-0.8598620295524597
1788107989304754200,6.151754150390625,-0.990962028503418,-0.036364998668432236,-0.8772889971733093
1788107989314846200,6.16184619140625,-1.1463299989700317,0.06554599851369858,-0.7453140020370483
1788107989324947700,6.17194775390625,-0.9854739904403687,0.1322769969701767,-0.417387992143631
1788107989335039500,6.18203955078125,-0.5254870057106018,-0.019439000636339188,0.06455399841070175
1788107989345131500,6.192131591796875,0.2393999993801117,-0.21802100539207458,0.49929800629615784
1788107989355216000,6.2022158203125,0.9044380187988281,-0.19538100063800812,0.5677909851074219
1788107989365307000,6.212306884765625,1.331279993057251,-0.22627399861812592,0.523652970790863
1788107989375389400,6.222389404296875,1.474679946899414,-0.2191389948129654,0.3142620027065277
1788107989385479400,6.2324794921875,1.3696269989013672,-0.2422720044851303,0.059071000665426254
1788107989395573200,6.2425732421875,0.8753439784049988,-0.19868800044059753,-0.16352300345897675
1788107989405670700,6.252670654296875,0.6215329766273499,-0.10791599750518799,-0.17513899505138397
1788107989415762400,6.262762451171875,0.3165299892425537,-0.1556289941072464,0.07414299994707108
1788107989425846800,6.2728466796875,0.09606699645519257,-0.2384600043296814,0.34169599413871765
1788107989435936000,6.28293603515625,-0.09578800201416016,-0.22050799429416656,0.48803600668907166
1788107989446028000,6.293028076171875,-0.3304609954357147,-0.21300800144672394,0.44842401146888733
1788107989456123100,6.303123046875,-0.775160014629364,-0.12389899790287018,0.08027300238609314
1788107989466213400,6.31321337890625,-0.9630370140075684,-0.09330300241708755,-0.24397900700569153
1788107989476307700,6.3233076171875,-1.1417969465255737,-0.15074500441551208,-0.4318679869174957
1788107989486401500,6.333401611328125,-1.1011040210723877,-0.3252190053462982,-0.23916000127792358
1788107989496495400,6.343495361328125,-0.7917810082435608,-0.30616798996925354,0.0665540024638176
1788107989506586000,6.353586181640625,-0.377252995967865,-0.30156999826431274,0.2641049921512604
1788107989516683000,6.36368310546875,-0.012777999974787235,-0.4151819944381714,0.46744900941848755
1788107989526782000,6.373781982421875,0.1367660015821457,-0.37742599844932556,0.3137170076370239
1788107989536866800,6.38386669921875,0.1416819989681244,-0.42998600006103516,0.12139599770307541
1788107989546971100,6.39397119140625,0.17359000444412231,-0.4854010045528412,0.062245000153779984
1788107989557057000,6.40405712890625,0.21117199957370758,-0.5722990036010742,0.2003989964723587
1788107989567159000,6.414158935546875,0.23580099642276764,-0.4440000057220459,0.11621999740600586
1788107989577243400,6.424243408203125,0.04706300050020218,-0.3623490035533905,-0.06458300352096558
1788107989587338200,6.434338134765625,-0.3584839999675751,-0.26740598678588867,-0.2618289887905121
1788107989597421600,6.444421630859375,-0.8220970034599304,-0.30748599767684937,-0.2526090145111084
1788107989607509500,6.454509521484375,-0.9557399749755859,-0.28107500076293945,-0.10937300324440002
1788107989617600800,6.464600830078125,-0.7054259777069092,-0.19797199964523315,-0.009135999716818333
1788107989627699200,6.47469921875,-0.7019519805908203,-0.1875610053539276,0.05718500167131424
1788107989637798400,6.48479833984375,-0.6307229995727539,-0.24718999862670898,0.05834899842739105
1788107989647894000,6.49489404296875,-0.38843101263046265,-0.34696000814437866,0.02115599997341633
1788107989657992200,6.5049921875,-0.2206529974937439,-0.4188210070133209,-0.030889999121427536
1788107989668093700,6.51509375,-0.012745000422000885,-0.36978399753570557,-0.16908900439739227
1788107989678193400,6.525193359375,0.10001800209283829,-0.36030301451683044,-0.36268600821495056
1788107989688295700,6.535295654296875,0.12436000257730484,-0.47887301445007324,-0.41443300247192383
1788107989698385000,6.545385009765625,0.17163600027561188,-0.6550779938697815,-0.318121999502182
1788107989708475400,6.555475341796875,0.3996500074863434,-0.5909180045127869,-0.3428249955177307
1788107989718568400,6.565568359375,0.5614070296287537,-0.5201259851455688,-0.32913199067115784
1788107989728662000,6.575662109375,0.32881200313568115,-0.40382900834083557,-0.4301289916038513
1788107989738752000,6.585751953125,0.03268500044941902,-0.38242700695991516,-0.3426330089569092
1788107989748843300,6.59584326171875,-0.14383700489997864,-0.36947599053382874,-0.20279300212860107
1788107989758931000,6.605930908203125,-0.10327000170946121,-0.2484149932861328,-0.14538300037384033
1788107989769024500,6.6160244140625,-0.24900099635124207,-0.151296004652977,-0.13381600379943848
1788107989779107600,6.626107666015625,-0.49977800250053406,-0.1332390010356903,-0.028968999162316322
1788107989789199400,6.636199462890625,-0.5945190191268921,-0.14062799513339996,0.12052299827337265
1788107989799286300,6.646286376953125,-0.47273701429367065,-0.05153900012373924,0.246288001537323
1788107989809383000,6.6563828125,-0.2961759865283966,0.04670900106430054,0.25929298996925354
1788107989819468800,6.66646875,-0.04877600073814392,-0.0300890002399683,0.2088010013103485
1788107989829565400,6.6765654296875,0.11326900124549866,-0.01980699971318245,0.05757300183176994
1788107989839649300,6.686649169921875,0.23604999482631683,-0.005934000015258789,0.0853089988231659
1788107989849746700,6.69674658203125,0.46260300278663635,-0.0834989994764328,0.1894190013408661
1788107989859832600,6.70683251953125,0.672648012638092,-0.22282999753952026,0.2559179961681366
1788107989869930000,6.716929931640625,0.8671039938926697,-0.21756799519062042,0.12032700330018997
1788107989880009200,6.72700927734375,0.8937150239944458,-0.06613600254058838,-0.22132200002670288
1788107989890099200,6.73709912109375,0.6785159707069397,-0.08170600235462189,-0.42663899064064026
1788107989900187600,6.747187744140625,0.37272098660469055,-0.19164800643920898,-0.4065519869327545
1788107989910289000,6.757288818359375,0.26603999733924866,-0.28080999851226807,-0.20323699712753296
1788107989920390000,6.767389892578125,0.14247199892997742,-0.08037000149488449,-0.19009900093078613
1788107989930489600,6.777489501953125,-0.094930000603199,0.09409499913454056,-0.2558310031890869
1788107989940589300,6.78758935546875,-0.3900179862976074,0.269553005695343,-0.40223899483680725
1788107989950687700,6.797687744140625,-0.6531820297241211,0.25921401381492615,-0.3908889889717102
1788107989960789200,6.807789306640625,-0.7675889730453491,0.3984760046005249,-0.35992100834846497
1788107989970880300,6.81788037109375,-0.7794470191001892,0.5886759757995605,-0.2839759886264801
1788107989980958000,6.8279580078125,-0.5313979983329773,0.645576000213623,-0.1261650025844574
1788107989991048000,6.8380478515625,-0.2535940110683441,0.8029410243034363,0.020045999437570572
1788107990001145900,6.848145751953125,-0.09750500321388245,0.5145120024681091,0.3835139870643616
1788107990011237400,6.8582373046875,0.2572140097618103,0.3853690028190613,0.592674970626831
1788107990021334500,6.86833447265625,0.817022979259491,0.27459099888801575,0.7897400259971619
1788107990031419400,6.87841943359375,1.3709690570831299,0.05453699827194214,1.060636043548584
1788107990041518000,6.88851806640625,1.8631540536880493,-0.11930999904870987,1.1601810455322266
1788107990051609600,6.898609619140625,2.2287919521331787,-0.36221200227737427,1.2739720344543457
1788107990061708300,6.908708251953125,2.389625072479248,-0.4391619861125946,1.1472680568695068
1788107990071794000,6.9187939453125,1.8560700416564941,-0.33420199155807495,0.6616569757461548
1788107990081887000,6.928886962890625,0.8184790015220642,-0.1657940000295639,0.07255599647760391
1788107990091970600,6.938970458984375,-0.16946299374103546,-0.06758800148963928,-0.41470399498939514
1788107990102061600,6.9490615234375,-0.8188880085945129,0.02633499912917614,-0.5855979919433594
1788107990112153300,6.9591533203125,-1.1620409488677979,-0.14301100373268127,-0.3891240060329437
1788107990122239500,6.969239501953125,-1.1724660396575928,-0.3120349943637848,0.08322200179100037
1788107990132330200,6.979330322265625,-0.702629029750824,-0.17605799436569214,0.42256999015808105
1788107990142438400,6.9894384765625,-0.4478380084037781,0.00534099992364645,0.35806700587272644
1788107990152527000,6.999527099609375,-0.9097149968147278,0.04497100040316582,0.04222699999809265
1788107990162622500,7.00962255859375,-1.412276029586792,-0.00646300008520484,-0.21902799606323242
1788107990172707800,7.019707763671875,-1.7616430521011353,-0.1276170015335083,-0.2545419931411743
1788107990182790700,7.029790771484375,-1.680454969406128,-0.17600399255752563,-0.11879599839448929
1788107990192875800,7.039875732421875,-1.3324220180511475,-0.2356400042772293,0.008142000064253807
1788107990202970600,7.049970703125,-0.5807530283927917,-0.40977200865745544,0.33099600672721863
1788107990213061600,7.0600615234375,0.24700799584388733,-0.4268229901790619,0.5889509916305542
1788107990223156000,7.070156005859375,0.8230779767036438,-0.5009080171585083,0.7012940049171448
1788107990233240000,7.080239990234375,0.94371098279953,-0.6602169871330261,0.7702879905700684
1788107990243332000,7.09033203125,0.93231201171875,-0.7979649901390076,0.7044079899787903
1788107990253419500,7.10041943359375,0.7415410280227661,-0.9051390290260315,0.5987460017204285
1788107990263506000,7.110505859375,0.7198299765586853,-1.0142890214920044,0.45884600281715393
1788107990273599500,7.120599609375,0.6136369705200195,-0.9715650081634521,0.2558499872684479
1788107990283699200,7.13069921875,0.33226799964904785,-0.8256629705429077,-0.10217200219631195
1788107990293795300,7.14079541015625,-0.028870999813079834,-0.6883490085601807,-0.4096750020980835
1788107990303887400,7.150887451171875,-0.41350701451301575,-0.6981189846992493,-0.44417399168014526
1788107990313971200,7.16097119140625,-0.5334839820861816,-0.8523480296134949,-0.2916730046272278
1788107990324060200,7.17106005859375,-0.46051299571990967,-0.8798220157623291,0.004443999845534563
1788107990334158800,7.181158935546875,-0.23280900716781616,-0.828682005405426,0.19308699667453766
1788107990344242000,7.191241943359375,-0.21808600425720215,-0.7155550122261047,0.0738300010561943
1788107990354337800,7.201337890625,-0.565172016620636,-0.61285400390625,-0.20441299676895142
1788107990364430000,7.21143017578125,-0.9246789813041687,-0.5718969702720642,-0.46682000160217285
1788107990374529300,7.221529296875,-1.22188401222229,-0.4476499855518341,-0.7871919870376587
1788107990384621000,7.23162109375,-1.435073971748352,-0.43773600459098816,-0.7705259919166565
1788107990394715400,7.24171533203125,-1.292963981628418,-0.3374269902706146,-0.8159360289573669
1788107990404807200,7.25180712890625,-0.9482269883155823,0.03991800174117088,-0.96151202917099
1788107990414898000,7.26189794921875,-0.8073300123214722,0.18768499791622162,-0.9151700139045715
1788107990424990200,7.271990234375,-0.8061130046844482,0.19867099821567535,-0.8318769931793213
1788107990435079000,7.282078857421875,-0.6013259887695312,0.08435399830341339,-0.5270119905471802
1788107990445170400,7.29217041015625,-0.07047899812459946,0.03909900039434433,-0.1278589963912964
1788107990455255600,7.302255615234375,0.6663100123405457,0.10469800233840942,0.23101499676704407
1788107990465351200,7.31235107421875,1.1962380409240723,0.05195799842476845,0.4311859905719757
1788107990475441700,7.322441650390625,1.6242729425430298,-0.044148001819849014,0.5944499969482422
1788107990485540000,7.3325400390625,1.945585012435913,0.06599400192499161,0.7852129936218262
1788107990495632600,7.342632568359375,2.114980936050415,0.193914994597435,0.7974230051040649
1788107990505732400,7.352732421875,1.7307870388031006,0.1165739968419075,0.6212149858474731
1788107990525916700,7.372916748046875,1.153378963470459,-0.23691800236701965,0.897258996963501
1788107990536007000,7.3830068359375,1.019853949546814,-0.28884801268577576,0.9700800180435181
1788107990546094800,7.3930947265625,0.7234960198402405,-0.3202109932899475,0.862775981426239
1788107990556183000,7.40318310546875,0.045770999044179916,-0.2510190010070801,0.4155769944190979
1788107990566279700,7.41327978515625,-0.6815869808197021,-0.29337701201438904,-0.11375399678945541
1788107990576370200,7.4233701171875,-1.3971400260925293,-0.38854798674583435,-0.5054010152816772
1788107990586466000,7.433466064453125,-1.9768970012664795,-0.35310599207878113,-0.7486119866371155
1788107990596545300,7.443545166015625,-2.1481881141662598,-0.30047300457954407,-0.7032409906387329
1788107990606644700,7.453644775390625,-2.0189199447631836,-0.3020710051059723,-0.5802630186080933
1788107990616738800,7.46373876953125,-1.6765719652175903,-0.28260499238967896,-0.404913991689682
1788107990626878500,7.47387841796875,-1.110131025314331,-0.4021809995174408,-0.17091000080108643
1788107990636956400,7.483956298828125,-0.508080005645752,-0.5772179961204529,0.14787599444389343
1788107990647051800,7.4940517578125,-0.10831800103187561,-0.7452449798583984,0.35885000228881836
1788107990657139700,7.5041396484375,0.3113209903240204,-0.6694949865341187,0.3342280089855194
1788107990667239400,7.514239501953125,0.7467380166053772,-0.5885099768638611,0.35499298572540283
1788107990677333000,7.5243330078125,0.9895250201225281,-0.5924100279808044,0.3760479986667633
1788107990687428600,7.5344287109375,1.097080945968628,-0.511260986328125,0.37533798813819885
1788107990697511400,7.544511474609375,1.1732430458068848,-0.4006910026073456,0.35502898693084717
1788107990707609600,7.554609619140625,1.155853033065796,-0.3324959874153137,0.4709030091762543
1788107990717700400,7.564700439453125,1.0510610342025757,-0.22004899382591248,0.5775830149650574
1788107990727800000,7.574800048828125,0.8944699764251709,-0.08445300161838531,0.7029809951782227
1788107990737890600,7.584890625,0.767799973487854,0.05108200013637543,0.817516028881073
1788107990758079000,7.605078857421875,0.11954899877309799,0.5420479774475098,0.5123040080070496
1788107990768173300,7.61517333984375,-0.11871600151062012,0.6647850275039673,0.397475004196167
1788107990778250500,7.62525048828125,-0.31842899322509766,0.638293981552124,0.5673980116844177
1788107990788344800,7.6353447265625,-0.27041199803352356,0.6438120007514954,0.7379119992256165
1788107990798437400,7.645437255859375,0.05149099975824356,0.8134199976921082,0.881866991519928
1788107990808523500,7.6555234375,0.22710900008678436,0.9027060270309448,0.9187279939651489
1788107990818611200,7.665611083984375,0.3012140095233917,0.909958004951477,0.9077960252761841
1788107990828706800,7.675706787109375,0.6182889938354492,0.9285889863967896,0.8969900012016296
1788107990838796300,7.68579638671875,0.974478006362915,0.9581300020217896,1.0458669662475586
1788107990848890400,7.695890380859375,1.1707409620285034,0.9454489946365356,1.125520944595337
1788107990858977500,7.7059775390625,1.30935800075531,0.7662680149078369,1.2655320167541504
1788107990869065700,7.716065673828125,1.5116649866104126,0.510125994682312,1.497642993927002
1788107990879150800,7.72615087890625,1.7372000217437744,0.3729499876499176,1.5073599815368652
1788107990889240800,7.73624072265625,1.8490840196609497,0.20937299728393555,1.3838499784469604
1788107990899328500,7.74632861328125,1.7499029636383057,0.038488999009132385,1.0079330205917358
1788107990909417000,7.7564169921875,1.2607879638671875,0.0002390000008745119,0.45430999994277954
1788107990919499800,7.766499755859375,0.5950239896774292,-0.0555649995803833,0.0654740035533905
1788107990929588500,7.77658837890625,0.08431100100278854,-0.18258899450302124,-0.05736200138926506
1788107990939675600,7.786675537109375,-0.2966499924659729,-0.2628850042819977,-0.0989530012011528
1788107990949772000,7.79677197265625,-0.3684990108013153,-0.3780510127544403,0.07431799918413162
1788107990959859200,7.806859130859375,-0.35095301270484924,-0.30341100692749023,0.11509200185537338
1788107990969950700,7.81695068359375,-0.35464099049568176,-0.29009199142456055,0.046463001519441605
1788107990980032300,7.8270322265625,-0.5670549869537354,-0.4118799865245819,-0.1845729947090149
1788107990990127900,7.8371279296875,-0.8110970258712769,-0.5314390063285828,-0.4376649856567383
1788107991000216600,7.847216552734375,-0.7567539811134338,-0.6631739735603333,-0.5846049785614014
1788107991010313500,7.8573134765625,-0.66252601146698,-0.7306820154190063,-0.6803060173988342
1788107991020406500,7.867406494140625,-0.29723599553108215,-0.750262975692749,-0.7177140116691589
1788107991030499800,7.877499755859375,-0.11872600018978119,-0.6963639855384827,-0.7969239950180054
1788107991040583700,7.887583740234375,0.01700899936258793,-0.670058012008667,-0.9686579704284668
1788107991050685000,7.897684814453125,0.03825400024652481,-0.6525229811668396,-1.0287400484085083
1788107991060774400,7.9077744140625,0.30030500888824463,-0.6567230224609375,-0.949862003326416
1788107991070869000,7.917868896484375,0.4398829936981201,-0.7237780094146729,-0.8576149940490723
1788107991080960300,7.927960205078125,0.7549750208854675,-0.8428720235824585,-0.6212069988250732
1788107991091056400,7.938056396484375,1.2202949523925781,-0.9309419989585876,-0.3927060067653656
1788107991101142000,7.94814208984375,1.537297010421753,-0.9215750098228455,-0.06488300114870071
1788107991111241700,7.95824169921875,1.5711230039596558,-0.9068049788475037,0.08826100081205368
1788107991121340400,7.96834033203125,1.440722942352295,-0.9273989796638489,0.1817770004272461
1788107991131430700,7.9784306640625,1.171625018119812,-1.0008549690246582,0.040084000676870346
1788107991141524500,7.9885244140625,0.9883319735527039,-1.0291149616241455,-0.10801500082015991
1788107991151619600,7.99861962890625,0.3699919879436493,-0.8505060076713562,-0.4023669958114624
1788107991161713200,8.008713134765625,-0.3187839984893799,-0.5716440081596375,-0.7989670038223267
1788107991171813400,8.0188134765625,-0.7599110007286072,-0.15833300352096558,-1.267225980758667
1788107991181895700,8.028895751953126,-1.0145050287246704,0.14990000426769257,-1.5486299991607666
1788107991191989200,8.0389892578125,-1.486719012260437,0.27741798758506775,-1.3969709873199463
1788107991202074400,8.049074462890625,-1.5869710445404053,0.16694700717926025,-1.0090550184249878
1788107991212165600,8.05916552734375,-1.1941369771957397,0.35115399956703186,-0.4866749942302704
1788107991222255900,8.069255859375,-0.35567399859428406,0.4338870048522949,0.0036100000143051147
1788107991232339200,8.079339111328125,0.2936069965362549,0.4443199932575226,0.31010401248931885
1788107991242424000,8.089424072265626,0.7588629722595215,0.3581570088863373,0.3296299874782562
1788107991252513000,8.099512939453126,1.1948970556259155,0.34757000207901,0.24518199265003204
1788107991262603000,8.10960302734375,1.5319269895553589,0.25978198647499084,0.34714698791503906
1788107991272693000,8.11969287109375,2.0846519470214844,0.22766299545764923,0.6069350242614746
1788107991282797300,8.12979736328125,2.653139114379883,0.12468499690294266,1.0377349853515625
1788107991292892000,8.139891845703126,3.1642820835113525,0.02312600053846836,1.5421080589294434
1788107991302985000,8.14998486328125,3.489029884338379,-0.02069699950516224,1.9383469820022583
1788107991313074000,8.160073974609375,3.585474967956543,-0.02257700078189373,2.1358749866485596
1788107991323162400,8.170162353515625,3.322736978530884,0.038996998220682144,1.9979180097579956
1788107991333252900,8.1802529296875,2.4122750759124756,-0.10204900056123734,1.7453839778900146
1788107991343349200,8.190349365234376,1.5963330268859863,-0.18359799683094025,1.5723400115966797
1788107991353443000,8.200443115234375,0.9918479919433594,-0.06148499995470047,1.2609469890594482
1788107991363533600,8.210533447265625,0.4378179907798767,-0.01925799995660782,1.1181620359420776
1788107991373630500,8.22063037109375,-0.1462000012397766,-0.13984400033950806,1.0606509447097778
1788107991383738000,8.230738037109376,-0.421889990568161,-0.2335280030965805,1.3313889503479004
1788107991393828000,8.240828125,-0.14002299308776855,-0.4906269907951355,1.61832594871521
1788107991403916000,8.250916015625,0.46338701248168945,-0.8503360152244568,1.8721200227737427
1788107991414007600,8.261007568359375,1.0143539905548096,-1.2367340326309204,2.0183939933776855
1788107991424094500,8.271094482421875,1.2475149631500244,-1.579699993133545,1.9458849430084229
1788107991434184700,8.281184814453125,1.1718850135803223,-1.653167963027954,1.3919010162353516
1788107991444279000,8.291279052734374,0.7048029899597168,-1.680029034614563,0.7655720114707947
1788107991454376200,8.301376220703125,0.5100929737091064,-1.6353590488433838,0.1374949961900711
1788107991464473900,8.311473876953125,0.347027987241745,-1.5658060312271118,-0.2756350040435791
1788107991474558700,8.321558837890626,0.38596099615097046,-1.4690020084381104,-0.6766520142555237
1788107991484659000,8.331658935546875,0.15880699455738068,-1.4966620206832886,-0.627439022064209
1788107991494758100,8.341758056640625,0.04251300171017647,-1.6028590202331543,-0.3222160041332245
1788107991504849000,8.351848876953126,0.03287599980831146,-1.566053032875061,-0.0026140001136809587
1788107991514943700,8.36194384765625,0.20851799845695496,-1.563912034034729,0.32376301288604736
1788107991525036800,8.372036865234374,0.09548600018024445,-1.645779013633728,0.6723989844322205
1788107991535123000,8.382123046875,-0.13948099315166473,-1.7970949411392212,1.1612670421600342
1788107991545215700,8.3922158203125,-0.40883201360702515,-1.8381279706954956,1.467689037322998
1788107991555305000,8.402304931640625,-0.5715579986572266,-1.6678860187530518,1.513869047164917
1788107991565383700,8.4123837890625,-0.6856610178947449,-1.468621015548706,1.295536994934082
1788107991575466800,8.422466796875,-0.9087259769439697,-1.369441032409668,0.7004989981651306
1788107991585557200,8.43255712890625,-1.048490047454834,-1.221958041191101,0.0036039999686181545
1788107991595648300,8.442648193359375,-0.8713549971580505,-1.1596219539642334,-0.29557299613952637
1788107991605741000,8.452740966796876,-0.4146139919757843,-1.0626709461212158,-0.2601209878921509
1788107991615824600,8.46282470703125,-0.07186300307512283,-1.077502965927124,-0.10771799832582474
1788107991625915000,8.472914794921875,0.23099899291992188,-1.0727250576019287,0.12426300346851349
1788107991636000800,8.483000732421875,0.7256249785423279,-1.1085909605026245,0.36591801047325134
1788107991646086400,8.49308642578125,0.9751520156860352,-1.0273000001907349,0.4542750120162964
1788107991656178200,8.50317822265625,1.0911970138549805,-0.9773489832878113,0.41175100207328796
1788107991666271700,8.513271728515624,1.210873007774353,-0.8937820196151733,0.4283669888973236
1788107991676359000,8.52335888671875,1.1196019649505615,-0.859798014163971,0.38713499903678894
1788107991686459100,8.533459228515625,1.2080210447311401,-0.8438330292701721,0.39421701431274414
1788107991696546600,8.543546630859375,1.221755027770996,-0.8916140198707581,0.45553499460220337
1788107991706641000,8.553640869140626,1.239819049835205,-0.8947290182113647,0.3671030104160309
1788107991716732000,8.56373193359375,1.161512017250061,-0.7795519828796387,0.4093460142612457
1788107991726826800,8.57382666015625,1.0689460039138794,-0.7686089873313904,0.4751650094985962
1788107991736911000,8.5839111328125,0.9566599726676941,-0.7444630265235901,0.45967501401901245
1788107991747006000,8.594005859375,0.5949400067329407,-0.7158859968185425,0.5484390258789062
1788107991757098000,8.604097900390625,0.4216820001602173,-0.6987079977989197,0.6122959852218628
1788107991767192000,8.614192138671875,0.4060949981212616,-0.7368590235710144,0.562969982624054
1788107991777305600,8.6243056640625,0.4071139991283417,-0.8562039732933044,0.6761590242385864
1788107991787401200,8.634401123046874,0.45354801416397095,-0.8686270117759705,0.6093429923057556
1788107991797491200,8.6444912109375,0.47999900579452515,-0.8153809905052185,0.4795989990234375
1788107991807585300,8.654585205078124,0.23062099516391754,-0.7456870079040527,0.2615540027618408
1788107991817681400,8.664681396484376,0.3224790096282959,-0.6263999938964844,0.050425998866558075
1788107991827776000,8.67477587890625,0.27935799956321716,-0.6480410099029541,-0.007280999794602394
1788107991837873700,8.684873779296876,0.19678400456905365,-0.5906029939651489,-0.040219999849796295
1788107991847968000,8.694968017578125,0.4567849934101105,-0.5409709811210632,0.11356999725103378
1788107991858057000,8.705056884765625,0.8430749773979187,-0.45321500301361084,0.21428899466991425
1788107991868150800,8.71515087890625,0.8611310124397278,-0.3296299874782562,0.3284359872341156
1788107991878238500,8.725238525390624,0.9322929978370667,-0.34136998653411865,0.5596539974212646
1788107991888335000,8.735335205078124,0.8280850052833557,-0.25635701417922974,0.6661829948425293
1788107991898425900,8.74542578125,0.7703419923782349,-0.16190700232982635,0.6872460246086121
1788107991908515800,8.755515869140625,0.6324570178985596,-0.142303004860878,0.6106230020523071
1788107991918606800,8.76560693359375,0.46067699790000916,-0.10494499653577805,0.6636469960212708
1788107991928705500,8.77570556640625,0.3028919994831085,-0.004453999921679497,0.7015680074691772
1788107991938798800,8.785798828125,0.11901000142097473,0.10730200260877609,0.6147729754447937
1788107991948891000,8.795890869140624,-0.037721000611782074,0.28349900245666504,0.4760259985923767
1788107991958982700,8.805982666015625,-0.30443400144577026,0.35271498560905457,0.4676159918308258
1788107991969078500,8.81607861328125,-0.32936498522758484,0.38343700766563416,0.4094409942626953
1788107991979170000,8.826170166015626,-0.21629999577999115,0.23572300374507904,0.5365689992904663
1788107991989261600,8.836261474609374,0.19552099704742432,0.05206499993801117,0.7722169756889343
1788107991999347200,8.84634716796875,0.7158589959144592,-0.13569599390029907,0.8980889916419983
1788107992009441000,8.85644091796875,1.1218860149383545,-0.39830100536346436,0.9056419730186462
1788107992019518000,8.86651806640625,1.2049249410629272,-0.5188419818878174,0.6606069803237915
1788107992029616400,8.876616455078125,1.1097370386123657,-0.6620330214500427,0.5175849795341492
1788107992039707100,8.88670703125,1.1341389417648315,-0.844199001789093,0.4839709997177124
1788107992049800700,8.89680078125,0.9164900183677673,-0.9752789735794067,0.5023980140686035
1788107992059894300,8.906894287109376,0.7241309881210327,-1.08467698097229,0.6141330003738403
1788107992069989400,8.9169892578125,0.49045300483703613,-1.1788220405578613,0.698710024356842
1788107992080071700,8.92707177734375,0.28531399369239807,-1.2552000284194946,0.5457239747047424
1788107992090160000,8.93716015625,-0.07821500301361084,-1.3720300197601318,0.3055959939956665
1788107992100246500,8.94724658203125,-0.3613409996032715,-1.4563310146331787,0.1730390042066574
1788107992110344000,8.957343994140626,-0.4877859950065613,-1.4851969480514526,0.12022200226783752
1788107992120428500,8.967428466796875,-0.5157830119132996,-1.5213570594787598,0.2023019939661026
1788107992130526200,8.977526123046875,-0.590487003326416,-1.621669054031372,0.31985801458358765
1788107992140612600,8.987612548828125,-0.5297589898109436,-1.630152940750122,0.3941600024700165
1788107992150705200,8.997705078125,-0.48300600051879883,-1.7022219896316528,0.4072839915752411
1788107992160796200,9.007796142578124,0.02361699938774109,-1.772305965423584,0.5443630218505859
1788107992170888400,9.017888427734375,0.3597339987754822,-1.7011439800262451,0.5920779705047607
1788107992180982500,9.027982421875,0.4641070067882538,-1.5939359664916992,0.42442598938941956
1788107992191081700,9.038081787109375,0.5709189772605896,-1.5327190160751343,0.28910699486732483
1788107992201169000,9.0481689453125,0.5273280143737793,-1.3850669860839844,0.20055200159549713
1788107992211266300,9.058266357421875,0.6117560267448425,-1.4140770435333252,0.3005349934101105
1788107992221356300,9.068356201171875,0.9096119999885559,-1.4287159442901611,0.5858579874038696
1788107992231448300,9.0784482421875,1.324666976928711,-1.3959879875183105,1.012598991394043
1788107992241537500,9.08853759765625,1.9634310007095337,-1.4549219608306885,1.4299590587615967
1788107992251634200,9.09863427734375,2.4325850009918213,-1.4976119995117188,1.6804100275039673
1788107992261723000,9.108722900390624,2.629971981048584,-1.4257910251617432,1.6796200275421143
1788107992271814700,9.118814697265625,2.649048089981079,-1.3261250257492065,1.6052930355072021
1788107992281910800,9.128910888671875,2.397404909133911,-1.1868189573287964,1.3991730213165283
1788107992292002000,9.139001953125,1.9720180034637451,-1.0698059797286987,1.2426420450210571
1788107992302141400,9.149141357421875,1.5301610231399536,-0.9045810103416443,1.1438440084457397
1788107992312232400,9.159232421875,1.1747560501098633,-0.7659850120544434,1.0059620141983032
1788107992322314800,9.169314697265625,0.7342169880867004,-0.7000089883804321,0.9563620090484619
1788107992332407800,9.17940771484375,0.3506529927253723,-0.6720809936523438,0.9860979914665222
1788107992342493000,9.189492919921875,0.2865929901599884,-0.6434379816055298,1.217087984085083
1788107992352579300,9.199579345703125,0.4594709873199463,-0.6221529841423035,1.484563946723938
1788107992362679600,9.209679443359375,0.5756170153617859,-0.6525179743766785,1.5449589490890503
1788107992372769800,9.219769775390626,0.6051650047302246,-0.6035619974136353,1.393218994140625
1788107992382861300,9.229861328125,0.6364780068397522,-0.5208640098571777,1.0484930276870728
1788107992392957700,9.239957763671875,0.5631700158119202,-0.37384700775146484,0.5735390186309814
1788107992403054600,9.2500546875,0.35918399691581726,-0.26307201385498047,0.25477299094200134
1788107992413142800,9.260142822265625,0.12082900106906891,-0.09346900135278702,0.003745999885722995
1788107992423235000,9.270235107421875,-0.19459499418735504,-0.0037899999879300594,0.025704000145196915
1788107992433319000,9.28031884765625,-0.23089499771595,0.032976001501083374,0.279680997133255
1788107992443408400,9.290408447265625,0.056970998644828796,0.11823800206184387,0.653905987739563
1788107992453492000,9.300491943359376,0.31461301445961,0.10742799937725067,1.0754770040512085
1788107992463574500,9.310574462890624,0.6956740021705627,0.05262799933552742,1.5786759853363037
1788107992473671000,9.3206708984375,1.1947870254516602,0.10402200371026993,1.7641539573669434
1788107992483759900,9.330759765625,1.653027057647705,0.11781500279903412,1.6836659908294678
1788107992493848800,9.340848876953125,1.9182260036468506,0.08714000135660172,1.3265000581741333
1788107992503938000,9.35093798828125,2.2292470932006836,0.20392000675201416,0.8949670195579529
1788107992514033000,9.361032958984374,2.3886361122131348,0.281125009059906,0.5373330116271973
1788107992524119300,9.371119384765626,2.33583402633667,0.25773900747299194,0.40827998518943787
1788107992534214000,9.3812138671875,2.18046498298645,0.12206900119781494,0.5288389921188354
1788107992544307200,9.39130712890625,2.1374380588531494,0.013315999880433083,0.720786988735199
1788107992554404000,9.401404052734375,2.1858201026916504,-0.018904000520706177,0.8263279795646667
1788107992564497700,9.41149755859375,2.0374369621276855,-0.14862999320030212,0.8910890221595764
1788107992574590000,9.42158984375,1.633978009223938,-0.2122430056333542,0.7581170201301575
1788107992584685600,9.431685546875,1.2249070405960083,-0.2556860148906708,0.5029379725456238
1788107992594778000,9.441778076171875,0.8863490223884583,-0.2736450135707855,0.2918879985809326
1788107992604871200,9.45187109375,0.5321769714355469,-0.29460498690605164,0.08228100091218948
1788107992614960400,9.46196044921875,0.1561949998140335,-0.30104801058769226,-0.04605500027537346
1788107992625057500,9.4720576171875,-0.07061900198459625,-0.26220300793647766,-0.0343950018286705
1788107992635142100,9.48214208984375,-0.12096600234508514,-0.2414660006761551,0.067781001329422
1788107992645228500,9.492228515625,-0.13342000544071198,-0.2689409852027893,0.20607300102710724
1788107992655317200,9.502317138671875,-0.08888699859380722,-0.3175640106201172,0.30698999762535095
1788107992665408500,9.512408447265624,0.08771300315856934,-0.29342201352119446,0.30094000697135925
1788107992675494100,9.522494140625,0.28758901357650757,-0.35537999868392944,0.2930369973182678
1788107992685560300,9.532560302734375,0.48611700534820557,-0.4783650040626526,0.2709270119667053
1788107992695651600,9.542651611328125,0.7718020081520081,-0.6196860074996948,0.3058220148086548
1788107992705755100,9.552755126953125,1.1015739440917969,-0.7877860069274902,0.437965989112854
1788107992715844900,9.562844970703125,1.2727409601211548,-0.876308023929596,0.47176501154899597
1788107992725956600,9.57295654296875,1.28404700756073,-0.8899019956588745,0.37137699127197266
1788107992736051000,9.583051025390626,1.0524460077285767,-0.8276240229606628,0.1412840038537979
1788107992746139400,9.593139404296876,0.4889270067214966,-0.6591870188713074,-0.16905300319194794
1788107992756232700,9.603232666015625,-0.18926000595092773,-0.5917230248451233,-0.28183600306510925
1788107992766329600,9.61332958984375,-0.6891379952430725,-0.5010660290718079,-0.24977600574493408
1788107992776423700,9.623423583984374,-0.8424659967422485,-0.4839729964733124,-0.1410440057516098
1788107992786516700,9.633516845703125,-0.8381369709968567,-0.5276889801025391,0.1709049940109253
1788107992796602400,9.643602294921875,-0.7600690126419067,-0.6429499983787537,0.5582500100135803
1788107992806703400,9.653703369140626,-0.552357017993927,-0.7070389986038208,0.7972450256347656
1788107992816786400,9.663786376953125,-0.3439140021800995,-0.7050099968910217,0.8905739784240723
1788107992826884900,9.673884765625,-0.2752540111541748,-0.6613060235977173,0.7997580170631409
1788107992836970500,9.683970458984374,-0.45713600516319275,-0.6350719928741455,0.5532220005989075
1788107992847070500,9.694070556640625,-0.5934879779815674,-0.6164439916610718,0.2094389945268631
1788107992857157400,9.704157470703125,-0.6988589763641357,-0.5377269983291626,-0.06002499908208847
1788107992867255800,9.714255859375,-0.5269479751586914,-0.5534890294075012,-0.07061699777841568
1788107992877346300,9.72434619140625,-0.11112499982118607,-0.48883500695228577,-0.003536999924108386
1788107992887436300,9.734436279296874,0.19979700446128845,-0.47904500365257263,0.10689199715852737
1788107992897514500,9.744514404296876,0.2882150113582611,-0.5588070154190063,0.17819100618362427
1788107992907614000,9.754614013671874,0.6417220234870911,-0.6352710127830505,0.5051429867744446
1788107992917702000,9.764701904296874,1.260578989982605,-0.7667790055274963,0.8640149831771851
1788107992927803100,9.77480322265625,1.6804460287094116,-0.753017008304596,1.0640050172805786
1788107992937893600,9.7848935546875,1.8490740060806274,-0.805899977684021,1.1131199598312378
1788107992947980800,9.794980712890625,1.7346409559249878,-0.8805249929428101,1.0050230026245117
1788107992958082600,9.80508251953125,1.6256569623947144,-0.9385989904403687,0.8250229954719543
1788107992968183800,9.815183837890626,1.3782570362091064,-1.0072920322418213,0.7745090126991272
1788107992978278400,9.8252783203125,1.011597990989685,-1.0758450031280518,0.7893379926681519
1788107992988377900,9.8353779296875,0.5265840291976929,-1.127228021621704,0.7942119836807251
1788107992998465500,9.845465576171875,0.04258900135755539,-1.0786770582199097,0.743133008480072
1788107993008550100,9.855550048828125,-0.583079993724823,-1.0406980514526367,0.6456570029258728
1788107993018642000,9.865641845703125,-1.0627650022506714,-0.956866979598999,0.4663830101490021
1788107993028730000,9.875730224609375,-1.5326859951019287,-0.8914260268211365,0.24796099960803986
1788107993038825500,9.885825439453125,-1.7566959857940674,-0.8596469759941101,0.15651899576187134
1788107993048911000,9.8959111328125,-1.786113977432251,-0.7859969735145569,0.18415799736976624
1788107993058997000,9.9059970703125,-1.5304700136184692,-0.7520930171012878,0.2429639995098114
1788107993069087700,9.916087646484375,-1.1745179891586304,-0.6727989912033081,0.2354319989681244
1788107993079179000,9.926178955078125,-0.5736500024795532,-0.7701590061187744,0.2764649987220764
1788107993089256000,9.936255859375,0.05154699832201004,-0.9020929932594299,0.38051000237464905
1788107993099342800,9.9463427734375,0.8023369908332825,-0.968621015548706,0.5477269887924194
1788107993109430300,9.95643017578125,1.3735389709472656,-1.0287740230560303,0.7704480290412903
1788107993129609700,9.976609619140625,1.9822200536727905,-1.093554973602295,0.7942180037498474
1788107993139707100,9.98670703125,1.9903650283813477,-0.9753400087356567,0.6845790147781372
1788107993149786600,9.99678662109375,1.772760033607483,-0.8165029883384705,0.6620759963989258
1788107993159873800,10.006873779296875,1.4469380378723145,-0.7932919859886169,0.7561669945716858
1788107993169959200,10.016959228515624,1.134253978729248,-0.7108970284461975,0.8820189833641052
1788107993180056800,10.027056884765624,0.8945879936218262,-0.699379026889801,1.0409489870071411
1788107993190137900,10.037137939453125,0.858922004699707,-0.5690780282020569,1.1598390340805054
1788107993200235300,10.0472353515625,0.865073025226593,-0.5334619879722595,1.3408819437026978
1788107993210320600,10.057320556640626,0.9886119961738586,-0.5465350151062012,1.5398190021514893
1788107993220410600,10.06741064453125,1.208277940750122,-0.47637999057769775,1.630012035369873
1788107993230497500,10.07749755859375,1.4336010217666626,-0.5440109968185425,1.7717139720916748
1788107993240589600,10.087589599609375,1.7584439516067505,-0.6703659892082214,1.7504169940948486
1788107993250677000,10.097677001953125,2.024406909942627,-0.826429009437561,1.6588330268859863
1788107993260773600,10.107773681640625,2.0698189735412598,-0.9720360040664673,1.526716947555542
1788107993270857200,10.117857177734376,2.0759871006011963,-1.0157140493392944,1.4374910593032837
1788107993280953300,10.127953369140625,1.9469330310821533,-1.0862499475479126,1.2997900247573853
1788107993291047700,10.138047607421875,1.7459330558776855,-1.1535619497299194,1.1557960510253906
1788107993301139200,10.14813916015625,1.3796939849853516,-1.1121540069580078,0.9487130045890808
1788107993311238400,10.15823828125,0.9474639892578125,-1.247972011566162,0.7992550134658813
1788107993321328400,10.168328369140625,0.6645249724388123,-1.2500070333480835,0.835312008857727
1788107993331419400,10.17841943359375,0.4917980134487152,-1.297240972518921,0.8954640030860901
1788107993341515800,10.188515869140625,0.38301101326942444,-1.4223079681396484,1.1206010580062866
1788107993351607800,10.19860791015625,0.25824299454689026,-1.4312139749526978,1.1449029445648193
1788107993361695700,10.20869580078125,0.15544800460338593,-1.490671992301941,1.1820189952850342
1788107993371792600,10.218792724609376,0.06602299958467484,-1.6432600021362305,1.2545349597930908
1788107993381888500,10.228888427734375,0.07782299816608429,-1.6266590356826782,1.1442489624023438
1788107993391992300,10.238992431640625,0.0012550000101327896,-1.7924319505691528,1.0955029726028442
1788107993402069800,10.24906982421875,-0.0651789978146553,-1.807752013206482,0.9977819919586182
1788107993412164400,10.259164306640624,-0.13198000192642212,-1.6190589666366577,0.8653920292854309
1788107993422248700,10.269248779296875,-0.34290000796318054,-1.553576946258545,1.016361951828003
1788107993432342300,10.27934228515625,-0.4802510142326355,-1.364501953125,1.3208390474319458
1788107993442424300,10.28942431640625,-0.23747199773788452,-1.039381980895996,1.5786559581756592
1788107993452579300,10.299579345703124,0.016603000462055206,-0.8576670289039612,1.8512029647827148
1788107993462669600,10.309669677734375,0.2892940044403076,-0.6051909923553467,1.9111789464950562
1788107993472754400,10.31975439453125,0.5818920135498047,-0.3756139874458313,1.7852180004119873
1788107993482841900,10.329841796875,0.9067100286483765,-0.15519499778747559,1.5863920450210571
1788107993492944400,10.3399443359375,1.2053430080413818,0.05855700001120567,1.4762370586395264
1788107993503025700,10.350025634765625,1.5047420263290405,0.3170450031757355,1.2526500225067139
1788107993513113900,10.36011376953125,1.7930760383605957,0.3971810042858124,1.1577030420303345
1788107993523207400,10.37020751953125,2.0668630599975586,0.5282289981842041,1.0087709426879883
1788107993533305900,10.380305908203125,2.405026912689209,0.640779972076416,1.024095058441162
1788107993543393300,10.390393310546875,2.6567130088806152,0.553272008895874,1.1469449996948242
1788107993553518300,10.400518310546875,2.929532051086426,0.4734080135822296,1.3029370307922363
1788107993563610000,10.410610107421874,3.1406939029693604,0.4485020041465759,1.303218960762024
1788107993573707300,10.420707275390624,3.208153009414673,0.17946100234985352,1.383646011352539
1788107993583790300,10.430790283203125,3.2806949615478516,-0.013496999628841877,1.4278160333633423
1788107993593886500,10.440886474609375,3.4134790897369385,-0.19957800209522247,1.3021999597549438
1788107993603976400,10.4509765625,3.437251091003418,-0.4363270103931427,1.2739410400390625
1788107993614060300,10.461060302734374,3.2107200622558594,-0.7065320014953613,1.247864007949829
1788107993624152000,10.471152099609375,2.748769998550415,-0.7827290296554565,1.0358539819717407
1788107993634250000,10.48125,2.086822986602783,-0.8551480174064636,0.8559719920158386
1788107993644337200,10.491337158203125,1.1672559976577759,-0.9187039732933044,0.6930779814720154
1788107993654432800,10.501432861328125,0.21915200352668762,-1.0063279867172241,0.5363209843635559
1788107993664515800,10.511515869140625,-0.7848119735717773,-0.9778580069541931,0.3568280041217804
1788107993674608000,10.521608154296874,-1.6279029846191406,-0.9637500047683716,0.2606390118598938
1788107993684698400,10.531698486328125,-2.4175169467926025,-0.9353200197219849,0.21592199802398682
1788107993694791200,10.541791259765626,-2.9677929878234863,-0.875773012638092,0.23758099973201752
1788107993704887300,10.55188720703125,-3.152851104736328,-0.9081569910049438,0.275534987449646
1788107993714975200,10.561975341796876,-2.93768310546875,-0.9073240160942078,0.2756659984588623
1788107993725068800,10.57206884765625,-2.3711650371551514,-0.8913130164146423,0.2077140063047409
1788107993735152000,10.582152099609376,-1.6258519887924194,-0.9732509851455688,0.1973170042037964
1788107993745253400,10.59225341796875,-0.9934520125389099,-1.0475540161132812,0.17695499956607819
1788107993755343400,10.60234326171875,-0.44721901416778564,-1.0125980377197266,0.06867100298404694
1788107993765439000,10.61243896484375,0.006182999815791845,-1.0132440328598022,-0.01100200042128563
1788107993775530500,10.622530517578125,0.256289005279541,-0.9825180172920227,-0.09877599775791168
1788107993785620700,10.632620849609374,0.2554909884929657,-0.8712339997291565,-0.2255679965019226
1788107993795711200,10.642711181640625,0.05013500154018402,-0.8185610175132751,-0.29569900035858154
1788107993805811000,10.65281103515625,-0.2382660061120987,-0.9088760018348694,-0.12910300493240356
1788107993815897300,10.6628974609375,-0.23306000232696533,-0.9172629714012146,0.10685499757528305
1788107993825996800,10.672996826171875,-0.10465399920940399,-0.784404993057251,0.1849370002746582
1788107993836082000,10.68308203125,-0.16212500631809235,-0.809935986995697,0.1714390069246292
1788107993846178300,10.69317822265625,-0.48221299052238464,-0.7251120209693909,-0.06506600230932236
1788107993856271600,10.703271728515626,-1.0091990232467651,-0.5122249722480774,-0.4260779917240143
1788107993866365700,10.71336572265625,-1.6093809604644775,-0.41383498907089233,-0.7333570122718811
1788107993876452900,10.723452880859375,-2.1588358879089355,-0.41257399320602417,-1.0170960426330566
1788107993886551800,10.7335517578125,-2.3241240978240967,-0.37877100706100464,-1.0476200580596924
1788107993896645400,10.743645263671874,-2.3957550525665283,-0.48530200123786926,-0.8680400252342224
1788107993906738700,10.75373876953125,-2.268372058868408,-0.551285982131958,-0.7349299788475037
1788107993916817700,10.763817626953125,-1.8719209432601929,-0.6550700068473816,-0.6694149971008301
1788107993926914000,10.7739140625,-1.268583059310913,-0.7702339887619019,-0.5453420281410217
1788107993937000000,10.784,-0.6644480228424072,-0.8075690269470215,-0.38340699672698975
1788107993947089700,10.794089599609375,-0.25519999861717224,-0.6605920195579529,-0.32738399505615234
1788107993957180200,10.80418017578125,-0.028212999925017357,-0.6036319732666016,-0.3288159966468811
1788107993967278600,10.814278564453126,-0.014361999928951263,-0.49452000856399536,-0.36555299162864685
1788107993977369600,10.82436962890625,-0.21195800602436066,-0.20186899602413177,-0.417154997587204
1788107993987465200,10.83446533203125,-0.47500500082969666,-0.062477998435497284,-0.18817199766635895
1788107993997561300,10.844561279296874,-0.6221839785575867,-0.08081600069999695,0.269320011138916
1788107994007656700,10.85465673828125,-0.5047760009765625,-0.04745899885892868,0.5799279808998108
1788107994017751600,10.86475146484375,-0.2378380000591278,-0.08133699744939804,0.6538800001144409
1788107994027850000,10.87485009765625,0.07143600285053253,0.03375700116157532,0.4695020020008087
1788107994037942300,10.8849423828125,0.12512800097465515,0.09850200265645981,0.08498100191354752
1788107994048035600,10.89503564453125,-0.18000300228595734,0.16548900306224823,-0.30397701263427734
1788107994058132700,10.9051328125,-0.7123429775238037,0.16774100065231323,-0.6155419945716858
1788107994068228000,10.91522802734375,-1.1854389905929565,0.2479269951581955,-0.7818440198898315
1788107994078326000,10.925325927734375,-1.4345190525054932,0.2622939944267273,-0.6707590222358704
1788107994088419800,10.935419921875,-1.3706430196762085,0.12967300415039062,-0.4905500113964081
1788107994098504200,10.945504150390626,-1.0111329555511475,0.03652999922633171,-0.49000200629234314
1788107994108595700,10.955595703125,-0.6760939955711365,-0.1915159970521927,-0.4969039857387543
1788107994118690000,10.96568994140625,-0.6722990274429321,-0.6337990164756775,-0.4373619854450226
1788107994128777200,10.975777099609376,-0.7810670137405396,-1.3977619409561157,-0.0978889986872673
1788107994138865700,10.98586572265625,-0.9554100036621094,-1.3675940036773682,-0.8532609939575195
1788107994148958200,10.995958251953125,-0.22387899458408356,-2.260512113571167,-0.8834480047225952
1788107994159046100,11.006046142578125,-0.11101700365543365,-2.4604249000549316,-1.249055027961731
1788107994169137000,11.016136962890625,0.2725450098514557,-2.833432912826538,-1.3999990224838257
1788107994179222500,11.026222412109375,0.5413600206375122,-2.893131971359253,-1.2458679676055908
1788107994189317600,11.036317626953124,0.655476987361908,-2.8667500019073486,-1.3543720245361328
1788107994199403500,11.046403564453126,0.5049269795417786,-2.628541946411133,-1.5408459901809692
1788107994209499000,11.056498779296875,0.36758899688720703,-2.2998340129852295,-1.5822999477386475
1788107994219590000,11.06658984375,0.356689989566803,-1.9088469743728638,-1.4539070129394531
1788107994229683700,11.07668359375,0.2636229991912842,-1.4781659841537476,-1.0401699542999268
1788107994239768800,11.086768798828125,0.10440099984407425,-1.0003730058670044,-0.7278270125389099
1788107994249860900,11.09686083984375,-0.11413999646902084,-0.49034199118614197,-0.6724560260772705
1788107994259941400,11.10694140625,-0.44866499304771423,0.05176899954676628,-0.6912940144538879
1788107994270037000,11.117037109375,-0.679265022277832,0.3405910134315491,-0.5704659819602966
1788107994280120800,11.127120849609375,-0.5826429724693298,0.5927810072898865,-0.3386319875717163
1788107994290218500,11.137218505859375,-0.21096600592136383,0.8325780034065247,-0.16990000009536743
1788107994300303600,11.1473037109375,0.41888299584388733,1.032600998878479,0.07392100244760513
1788107994310395000,11.157394775390625,1.416929006576538,1.3159860372543335,0.2208089977502823
1788107994320480300,11.167480224609376,2.7235560417175293,1.557778000831604,0.3374510109424591
1788107994330581000,11.1775810546875,4.012156009674072,1.7198469638824463,0.49553701281547546
1788107994340675800,11.18767578125,5.022563934326172,1.852795958518982,0.6647319793701172
1788107994350771500,11.197771484375,5.4193878173828125,2.044018030166626,0.7499470114707947
1788107994360856000,11.20785595703125,5.393636226654053,2.3713929653167725,0.7880539894104004
1788107994370945300,11.2179453125,5.222052097320557,2.5815980434417725,0.7966259717941284
1788107994381041700,11.228041748046875,4.832815170288086,2.7516040802001953,0.683663010597229
1788107994391136800,11.23813671875,4.246697902679443,2.9272830486297607,0.4470269978046417
1788107994401230600,11.248230712890624,3.67142391204834,3.026516914367676,0.2270279973745346
1788107994411328000,11.258327880859374,3.4497931003570557,3.080775022506714,0.008240999653935432
1788107994421420300,11.268420166015625,3.656904935836792,3.0671730041503906,0.043483998626470566
1788107994431513000,11.27851318359375,4.048876762390137,2.917048931121826,0.317438006401062
1788107994441604400,11.288604248046875,4.278883934020996,2.732404947280884,0.588392972946167
1788107994451702300,11.298702392578125,4.185434818267822,2.633918046951294,0.7433879971504211
1788107994461793300,11.308793212890626,3.8544259071350098,2.7523179054260254,0.5343250036239624
1788107994471884000,11.318884033203124,3.142026901245117,2.9184889793395996,0.06863199919462204
1788107994481972200,11.32897216796875,2.340881109237671,3.0700221061706543,-0.4610300064086914
1788107994492056300,11.339056396484375,1.7880220413208008,3.210036039352417,-0.6580489873886108
1788107994502149000,11.349149169921875,1.6082589626312256,3.3753859996795654,-0.7527589797973633
1788107994512238600,11.359238525390625,1.8319120407104492,3.4620180130004883,-0.6637030243873596
1788107994522325800,11.36932568359375,2.453843116760254,3.278454065322876,-0.28478801250457764
1788107994532422400,11.37942236328125,3.5142269134521484,3.232642889022827,0.06727200001478195
1788107994542518000,11.38951806640625,4.647195816040039,2.932760000228882,0.4052889943122864
1788107994552609500,11.399609619140625,5.544984817504883,2.606334924697876,0.5390840172767639
1788107994562700800,11.40970068359375,6.446969032287598,2.162764072418213,0.826786994934082
1788107994572792800,11.419792724609374,7.158552169799805,1.8010530471801758,1.069234013557434
1788107994582873300,11.429873291015625,7.526111125946045,1.4167829751968384,1.1084890365600586
1788107994592967000,11.439966796875,7.298182964324951,1.0620379447937012,1.1339199542999268
1788107994603064800,11.45006494140625,6.394305229187012,0.5642679929733276,1.1340490579605103
1788107994613154300,11.460154296875,5.187862873077393,0.14198000729084015,1.134682059288025
1788107994623247600,11.47024755859375,3.913271903991699,-0.41678500175476074,1.124153971672058
1788107994633335300,11.480335205078125,2.402164936065674,-1.0929369926452637,0.94343501329422
1788107994643425000,11.490425048828126,0.7178040146827698,-1.5923819541931152,0.5212889909744263
1788107994653511000,11.500510986328125,-0.9594399929046631,-2.0215680599212646,0.09770700335502625
1788107994663603200,11.510603271484374,-2.529973030090332,-2.4619851112365723,-0.14780999720096588
1788107994673692400,11.5206923828125,-3.961695909500122,-2.75193190574646,-0.3273659944534302
1788107994683774200,11.530774169921875,-5.185484886169434,-3.0005569458007812,-0.4458419978618622
1788107994693866500,11.540866455078126,-6.36198616027832,-3.1301488876342773,-0.5641360282897949
1788107994703950600,11.55095068359375,-7.219738006591797,-3.320312976837158,-0.7323629856109619
1788107994714041600,11.56104150390625,-7.789544105529785,-3.449937105178833,-0.9474830031394958
1788107994724132000,11.571132080078126,-8.125622749328613,-3.6816749572753906,-1.0110520124435425
1788107994734227000,11.58122705078125,-8.371822357177734,-3.9204330444335938,-0.97747802734375
1788107994744320500,11.591320556640625,-8.379243850708008,-4.2294697761535645,-0.9105439782142639
1788107994754411300,11.601411376953125,-7.648259162902832,-4.4818220138549805,-0.8728119730949402
1788107994764496100,11.61149609375,-6.5252909660339355,-4.7453179359436035,-0.9622970223426819
1788107994774590000,11.62158984375,-5.429271221160889,-4.845664978027344,-1.1655759811401367
1788107994784690400,11.6316904296875,-4.704845905303955,-5.006076812744141,-1.1634199619293213
1788107994794774300,11.641774169921876,-4.26627779006958,-5.0973429679870605,-1.0926439762115479
1788107994804860700,11.651860595703125,-3.9737460613250732,-5.115940093994141,-0.9764469861984253
1788107994814954000,11.6619541015625,-3.892133951187134,-5.03020715713501,-0.805649995803833
1788107994825042000,11.6720419921875,-3.99401593208313,-4.917190074920654,-0.611050009727478
1788107994835134000,11.682134033203125,-4.0912089347839355,-4.663119792938232,-0.44173601269721985
1788107994845228000,11.69222802734375,-4.216125011444092,-4.364622116088867,-0.2642660140991211
1788107994855318800,11.70231884765625,-4.308426856994629,-4.081776142120361,0.015150000341236591
1788107994865409300,11.7124091796875,-4.5041022300720215,-3.7859790325164795,0.2506229877471924
1788107994875498500,11.72249853515625,-4.6759819984436035,-3.54190993309021,0.5269719958305359
1788107994885591800,11.732591796875,-4.642193794250488,-3.3734099864959717,0.8760830163955688
1788107994895681800,11.742681884765625,-4.432149887084961,-3.270340919494629,1.029675006866455
1788107994905773300,11.752773193359374,-4.37155294418335,-3.144148111343384,0.9298660159111023
1788107994915862800,11.76286279296875,-4.450427055358887,-3.076723098754883,0.7510610222816467
1788107994925955000,11.772955078125,-4.711606025695801,-3.0061700344085693,0.44711899757385254
1788107994936044300,11.783044189453125,-4.9904398918151855,-2.939192056655884,0.14994600415229797
1788107994946143200,11.793143310546874,-5.242143154144287,-2.9587459564208984,-0.09688100218772888
1788107994956236300,11.803236328125,-5.421553134918213,-3.033302068710327,-0.32668501138687134
1788107994966334500,11.81333447265625,-5.5124101638793945,-3.0425539016723633,-0.4340279996395111
1788107994976423700,11.823423583984376,-5.765451908111572,-3.0371110439300537,-0.560492992401123
1788107994986513700,11.833513671875,-5.964797019958496,-2.981539011001587,-0.6624150276184082
1788107994996605200,11.843605224609375,-6.080416202545166,-2.9345040321350098,-0.8564379811286926
1788107995006704600,11.85370458984375,-6.02335786819458,-2.913055896759033,-1.0800590515136719
1788107995016791800,11.863791748046875,-5.763524055480957,-2.961405038833618,-1.256134033203125
1788107995026887700,11.8738876953125,-5.453542232513428,-2.926853895187378,-1.3744230270385742
1788107995036987100,11.883987060546875,-5.044561862945557,-2.7962870597839355,-1.5176479816436768
1788107995047078100,11.894078125,-4.698657989501953,-2.6830670833587646,-1.5562900304794312
1788107995057167600,11.904167724609374,-4.473775863647461,-2.51766300201416,-1.590155005455017
1788107995067264300,11.91426416015625,-4.327362060546875,-2.201245069503784,-1.6662449836730957
1788107995077350000,11.924349853515626,-4.404784202575684,-1.872918963432312,-1.7916990518569946
1788107995087448300,11.9344482421875,-4.576517105102539,-1.436365008354187,-1.9312260150909424
1788107995097533700,11.94453369140625,-4.615684986114502,-0.8833860158920288,-2.2818400859832764
1788107995107627800,11.954627685546875,-4.537187099456787,-0.21679799258708954,-2.7471420764923096
1788107995117713000,11.964712890625,-4.343015193939209,0.6114689707756042,-3.029356002807617
1788107995127804700,11.9748046875,-3.850346088409424,1.1888420581817627,-2.4765069484710693
1788107995137896200,11.984896240234375,-2.217729091644287,2.120443105697632,-1.9146029949188232
1788107995147988500,11.994988525390625,0.5247169733047485,3.2581000328063965,-1.2561039924621582
1788107995158079500,12.00507958984375,4.089023113250732,4.050250053405762,-0.5223810076713562
1788107995168176600,12.0151767578125,9.062477111816406,5.975654125213623,-1.315045952796936
1788107995178268200,12.02526806640625,13.336368560791016,7.876556873321533,-2.3579978942871094
1788107995188367000,12.0353671875,15.215779304504395,8.978113174438477,-2.2721140384674072
1788107995198455000,12.045455078125,15.739581108093262,9.166571617126465,-0.3490520119667053
1788107995208539400,12.055539306640625,15.638572692871094,8.78257942199707,2.435544013977051
1788107995218633000,12.065633056640625,15.884425163269043,8.285234451293945,4.67850923538208
1788107995228726800,12.075726806640626,16.2584228515625,7.5229082107543945,5.456352233886719
1788107995238812700,12.085812744140625,16.888084411621094,6.606450080871582,4.8546648025512695
1788107995248909000,12.095908935546875,18.16124725341797,5.483842849731445,3.561621904373169
1788107995258989600,12.105989501953125,19.4871826171875,4.642165184020996,2.1961610317230225
1788107995269081900,12.116081787109374,19.499935150146484,4.258238792419434,1.2959229946136475
1788107995279168000,12.12616796875,18.311370849609375,3.8701000213623047,1.1742609739303589
1788107995289261800,12.13626171875,15.848638534545898,3.757045030593872,1.5263539552688599
1788107995299350800,12.146350830078125,12.305458068847656,3.479659080505371,1.6484509706497192
1788107995309433600,12.15643359375,7.546176910400391,3.105470895767212,1.6154580116271973
1788107995319524400,12.1665244140625,2.6416120529174805,2.7633869647979736,1.5423909425735474
1788107995329621200,12.176621337890625,-1.672292947769165,2.2822721004486084,1.3575810194015503
1788107995339713300,12.18671337890625,-5.090044975280762,1.913465976715088,1.178352952003479
1788107995349812500,12.1968125,-7.191472053527832,1.4574190378189087,0.9750530123710632
1788107995359900200,12.206900146484376,-8.333574295043945,0.7690560221672058,0.8176450133323669
1788107995369996000,12.21699609375,-8.5064697265625,-0.05515599995851517,0.5383579730987549
1788107995380088300,12.22708837890625,-8.10003662109375,-0.8625749945640564,0.3506070077419281
1788107995390188800,12.237188720703125,-7.5328779220581055,-1.6413170099258423,0.030618999153375626
1788107995400273700,12.247273681640625,-6.667657852172852,-2.33001708984375,-0.33200401067733765
1788107995410371600,12.25737158203125,-5.782512187957764,-3.01476788520813,-0.5610269904136658
1788107995420463000,12.267463134765626,-4.991532802581787,-3.5553879737854004,-0.7328590154647827
1788107995430552600,12.277552490234376,-4.588759899139404,-4.016334056854248,-0.9614369869232178
1788107995440645000,12.28764501953125,-4.6414289474487305,-4.292623996734619,-1.240347981452942
1788107995450747600,12.29774755859375,-5.186553955078125,-4.541738033294678,-1.5144009590148926
1788107995460845300,12.30784521484375,-6.151578903198242,-4.745183944702148,-1.6282130479812622
1788107995470942000,12.31794189453125,-7.077276229858398,-4.72820520401001,-1.6443760395050049
1788107995481030700,12.32803076171875,-7.995654106140137,-4.557093143463135,-1.6871620416641235
1788107995491126500,12.33812646484375,-8.79561710357666,-4.362940788269043,-1.641456961631775
1788107995501218000,12.348218017578125,-9.26152229309082,-4.203204154968262,-1.5365890264511108
1788107995511304400,12.358304443359375,-9.321755409240723,-3.907917022705078,-1.568058967590332
1788107995521396500,12.368396484375,-9.03152084350586,-3.752285957336426,-1.701751947402954
1788107995531493000,12.3784931640625,-8.637543678283691,-3.54402494430542,-1.8561049699783325
1788107995541571600,12.388571533203125,-7.8949432373046875,-3.242543935775757,-1.882869005203247
1788107995551667700,12.398667724609375,-7.043100833892822,-2.8250811100006104,-1.7995259761810303
1788107995561759200,12.40875927734375,-5.881502151489258,-2.316926956176758,-1.455564022064209
1788107995571857000,12.41885693359375,-4.293594837188721,-1.791725993156433,-1.076388955116272
1788107995581943000,12.428943115234375,-2.4316189289093018,-1.3068759441375732,-0.6243289709091187
1788107995592035000,12.43903515625,-0.612030029296875,-0.8786730170249939,0.024675000458955765
1788107995602122200,12.449122314453126,1.1210650205612183,-0.3586210012435913,0.5917919874191284
1788107995612214300,12.45921435546875,2.547813892364502,0.05254499986767769,0.9171500205993652
1788107995622321200,12.469321044921875,3.8887970447540283,0.5046129822731018,0.9336360096931458
1788107995632413700,12.47941357421875,5.1360859870910645,0.9845929741859436,0.7941380143165588
1788107995642497500,12.48949755859375,6.27164888381958,1.4290610551834106,0.6212450265884399
1788107995652588300,12.49958837890625,6.91204309463501,1.7949739694595337,0.535664975643158
1788107995662676700,12.5096767578125,6.961160182952881,2.0426840782165527,0.6739000082015991
1788107995672769500,12.51976953125,6.55071496963501,2.1434450149536133,0.8516700267791748
1788107995682858500,12.5298583984375,6.293783187866211,2.1773738861083984,0.9915180206298828
1788107995692953600,12.53995361328125,6.014822006225586,2.2289578914642334,0.9787579774856567
1788107995703042800,12.550042724609375,5.540855884552002,2.292064905166626,0.737716019153595
1788107995713139200,12.56013916015625,5.070353031158447,2.36155104637146,0.40617600083351135
1788107995723229000,12.57022900390625,4.583723068237305,2.3052918910980225,0.10251300036907196
1788107995733319000,12.58031884765625,4.142655849456787,2.2782840728759766,-0.025195999071002007
1788107995743411200,12.5904111328125,3.896043062210083,2.269556999206543,0.15294599533081055
1788107995753500700,12.600500732421875,3.8286619186401367,2.399962902069092,0.39750799536705017
1788107995763590100,12.610590087890625,3.5242791175842285,2.3938779830932617,0.660739004611969
1788107995773687600,12.6206875,3.0732059478759766,2.1016199588775635,0.9286879897117615
1788107995783776300,12.6307763671875,2.6497139930725098,1.8516199588775635,0.9246670007705688
1788107995793866500,12.640866455078125,2.280350923538208,1.643218994140625,0.7626670002937317
1788107995803957800,12.650957763671874,1.9346849918365479,1.4797509908676147,0.43748000264167786
1788107995814050300,12.66105029296875,1.5964529514312744,1.3511450290679932,0.2994619905948639
1788107995824131300,12.67113134765625,1.2763819694519043,1.068181037902832,0.35440298914909363
1788107995834226700,12.681226806640625,1.0500439405441284,0.9365370273590088,0.46738201379776
1788107995844319200,12.6913193359375,0.7465419769287109,0.8410069942474365,0.45170700550079346
1788107995854415400,12.701415283203126,0.12142699956893921,0.6922529935836792,0.34671300649642944
1788107995864502000,12.711501953125,-0.6546649932861328,0.5350260138511658,0.23528900742530823
1788107995874591500,12.721591552734376,-1.3598530292510986,0.31953001022338867,0.20958200097084045
1788107995884689400,12.731689453125,-1.9329899549484253,0.260576993227005,0.21745599806308746
1788107995894780700,12.74178076171875,-2.4068949222564697,0.1800529956817627,0.42862600088119507
1788107995904873700,12.751873779296876,-2.6527349948883057,0.09208600223064423,0.6519010066986084
1788107995914963500,12.76196337890625,-2.4315528869628906,0.08941599726676941,0.6274200081825256
1788107995925060600,12.772060546875,-2.268325090408325,0.006486999802291393,0.42105400562286377
1788107995935159000,12.782158935546875,-2.15881609916687,-0.10361900180578232,0.19951699674129486
1788107995945257700,12.7922578125,-1.9383169412612915,-0.1338140070438385,0.06031300127506256
