time,seconds_elapsed,z,y,x
1788107983277553000,0.124552978515625,7.717584133148193,5.9861040115356445,-0.8034300208091736
1788107983287646000,0.13464599609375,7.727508068084717,5.973337173461914,-0.8030589818954468
1788107983297741300,0.1447412109375,7.734537124633789,5.960154056549072,-0.8327550292015076
1788107983317916700,0.164916748046875,7.732284069061279,5.941940784454346,-0.9721770286560059
1788107983338094600,0.185094482421875,7.71877908706665,5.92474889755249,-1.16526198387146
1788107983348193300,0.195193359375,7.723367214202881,5.902367115020752,-1.245637059211731
1788107983358280000,0.205280029296875,7.741103172302246,5.867424011230469,-1.2994970083236694
1788107983378464500,0.225464599609375,7.811161041259766,5.7695088386535645,-1.318513035774231
1788107983388547000,0.235547119140625,7.854753017425537,5.715078830718994,-1.2964470386505127
1788107983398644500,0.24564453125,7.896765232086182,5.665384769439697,-1.2587859630584717
1788107983408747000,0.2557470703125,7.92990779876709,5.629508018493652,-1.2104510068893433
1788107983418836200,0.265836181640625,7.951682090759277,5.610805988311768,-1.1530829668045044
1788107983428932600,0.2759326171875,7.960568904876709,5.609455108642578,-1.0969539880752563
1788107983439024400,0.2860244140625,7.957115173339844,5.623877048492432,-1.0470390319824219
1788107983449119500,0.296119384765625,7.947120189666748,5.64740514755249,-0.995041012763977
1788107983459219700,0.3062197265625,7.938488006591797,5.6714091300964355,-0.9249510169029236
1788107983469313000,0.31631298828125,7.935338973999023,5.6889519691467285,-0.8403949737548828
1788107983479404800,0.32640478515625,7.9390549659729,5.696051120758057,-0.7526119947433472
1788107983489496300,0.336496337890625,7.94962215423584,5.691285133361816,-0.6729239821434021
1788107983509701600,0.35670166015625,7.9872918128967285,5.651360034942627,-0.5525540113449097
1788107983519800000,0.366800048828125,8.009672164916992,5.622873783111572,-0.5181570053100586
1788107983529895000,0.37689501953125,8.029680252075195,5.595606803894043,-0.5033940076828003
1788107983539989000,0.386989013671875,8.047715187072754,5.570566177368164,-0.49298200011253357
1788107983550085000,0.397085205078125,8.064775466918945,5.548059940338135,-0.4673190116882324
1788107983560173800,0.407173828125,8.076788902282715,5.534493923187256,-0.41815298795700073
1788107983570277600,0.417277587890625,8.077632904052734,5.538657188415527,-0.3393760025501251
1788107983580373000,0.427373046875,8.06453800201416,5.563343048095703,-0.22887299954891205
1788107983590460000,0.4374599609375,8.034377098083496,5.610886096954346,-0.08232399821281433
1788107983600584400,0.44758447265625,7.987904071807861,5.676802158355713,0.08569300174713135
1788107983610678000,0.457677978515625,7.932544231414795,5.749289035797119,0.24575799703598022
1788107983620773000,0.467773193359375,7.872992992401123,5.823218822479248,0.3822909891605377
1788107983630862300,0.4778623046875,7.815101146697998,5.893452167510986,0.48100098967552185
1788107983640963000,0.487963134765625,7.762275218963623,5.9586992263793945,0.5300530195236206
1788107983651054800,0.498054931640625,7.717381954193115,6.016852855682373,0.5287089943885803
1788107983661139500,0.508139404296875,7.682559013366699,6.063383102416992,0.5036020278930664
1788107983671233500,0.518233642578125,7.661880016326904,6.091588973999023,0.4776090085506439
1788107983681319400,0.5283193359375,7.652942180633545,6.101294040679932,0.49663498997688293
1788107983691419000,0.5384189453125,7.647518157958984,6.102503776550293,0.5611469745635986
1788107983701535000,0.548534912109375,7.644147872924805,6.100070953369141,0.6293630003929138
1788107983711621600,0.55862158203125,7.641300201416016,6.097799777984619,0.6836810111999512
1788107983721716700,0.568716796875,7.631554126739502,6.104537010192871,0.7307429909706116
1788107983731812900,0.578812744140625,7.612366199493408,6.123632907867432,0.7700589895248413
1788107983741890800,0.588890869140625,7.5887651443481445,6.150227069854736,0.7907940149307251
1788107983751985400,0.5989853515625,7.5659050941467285,6.1766791343688965,0.8035680055618286
1788107983762079500,0.60907958984375,7.544067859649658,6.19985818862915,0.829954981803894
1788107983772171000,0.6191708984375,7.5199761390686035,6.222949028015137,0.8745890259742737
1788107983782258000,0.6292578125,7.489387035369873,6.251288890838623,0.9329950213432312
1788107983792348000,0.639347900390625,7.453999042510986,6.2848920822143555,0.9889320135116577
1788107983802433800,0.649433837890625,7.4162278175354,6.323123931884766,1.028432011604309
1788107983812524000,0.65952392578125,7.3759307861328125,6.365415096282959,1.0569380521774292
1788107983822612200,0.6696123046875,7.330832004547119,6.408736228942871,1.1077170372009277
1788107983832705500,0.67970556640625,7.2892022132873535,6.443817138671875,1.1767499446868896
1788107983842797300,0.68979736328125,7.246582984924316,6.475689888000488,1.2619349956512451
1788107983852887600,0.699887451171875,7.2019758224487305,6.506832122802734,1.3537609577178955
1788107983862970600,0.709970703125,7.156552791595459,6.537290096282959,1.444849967956543
1788107983873065000,0.72006494140625,7.109717845916748,6.568596839904785,1.531486988067627
1788107983883157500,0.730157470703125,7.062819957733154,6.600156784057617,1.6107219457626343
1788107983893251800,0.740251953125,7.015613079071045,6.6314239501953125,1.68681001663208
1788107983903341300,0.75034130859375,6.968027114868164,6.661081790924072,1.7653809785842896
1788107983913435400,0.760435302734375,6.924202919006348,6.6874260902404785,1.8367890119552612
1788107983923516200,0.77051611328125,6.89212703704834,6.706735134124756,1.8863569498062134
1788107983933604900,0.78060498046875,6.874549865722656,6.718307971954346,1.9091559648513794
1788107983943696100,0.790696044921875,6.866887092590332,6.725831985473633,1.9102389812469482
1788107983953788200,0.8007880859375,6.863382816314697,6.7305498123168945,1.9062169790267944
1788107983963873500,0.81087353515625,6.85874080657959,6.73498010635376,1.9072799682617188
1788107983973966600,0.820966552734375,6.849812030792236,6.740802764892578,1.9187589883804321
1788107983984048600,0.831048583984375,6.844423770904541,6.744664192199707,1.9244049787521362
1788107983994137900,0.841137939453125,6.8597612380981445,6.733532905578613,1.9087270498275757
1788107984004228900,0.851228759765625,6.897988796234131,6.705880165100098,1.867874026298523
1788107984014322700,0.86132275390625,6.9314188957214355,6.678804874420166,1.8409240245819092
1788107984024406800,0.87140673828125,6.956240177154541,6.659428119659424,1.8173340559005737
1788107984044595000,0.891594970703125,6.970600128173828,6.659163951873779,1.7624529600143433
1788107984054691300,0.90169140625,6.961497783660889,6.6724958419799805,1.7479579448699951
1788107984064775400,0.911775390625,6.9454121589660645,6.690826892852783,1.741866946220398
1788107984074865700,0.92186572265625,6.924832820892334,6.713511943817139,1.736503005027771
1788107984084966000,0.9319658203125,6.901270866394043,6.739756107330322,1.728611946105957
1788107984095049200,0.94204931640625,6.873916149139404,6.770493984222412,1.7174619436264038
1788107984105172000,0.952171875,6.839272975921631,6.808946132659912,1.703698992729187
1788107984115262500,0.962262451171875,6.796325206756592,6.855359077453613,1.6893750429153442
1788107984125347800,0.972347900390625,6.748579978942871,6.9062299728393555,1.673503041267395
1788107984135441400,0.98244140625,6.7013959884643555,6.956536769866943,1.654657006263733
1788107984145532700,0.99253271484375,6.657290935516357,7.003697872161865,1.63361394405365
1788107984155623700,1.002623779296875,6.61643123626709,7.047455787658691,1.6112730503082275
1788107984165721600,1.0127216796875,6.577508926391602,7.088213920593262,1.5917459726333618
1788107984175812600,1.0228125,6.540030002593994,7.1262898445129395,1.5760829448699951
1788107984185901000,1.032901123046875,6.50588321685791,7.160726070404053,1.5612410306930542
1788107984195992300,1.042992431640625,6.474483013153076,7.192796230316162,1.5442630052566528
1788107984206082600,1.05308251953125,6.443576812744141,7.224804878234863,1.5239739418029785
1788107984216169700,1.063169677734375,6.410107135772705,7.259452819824219,1.500277042388916
1788107984226262500,1.073262451171875,6.371178150177002,7.299177169799805,1.4731279611587524
1788107984236351000,1.08335107421875,6.326854228973389,7.3431501388549805,1.4453589916229248
1788107984246444800,1.09344482421875,6.278989791870117,7.388783931732178,1.4213299751281738
1788107984256523800,1.103523681640625,6.229455947875977,7.433887958526611,1.403978943824768
1788107984276716500,1.123716552734375,6.130220890045166,7.52093505859375,1.3769439458847046
1788107984286813000,1.13381298828125,6.082364082336426,7.562775135040283,1.3598849773406982
1788107984296900400,1.143900390625,6.036006927490234,7.603282928466797,1.3404029607772827
1788107984306998800,1.153998779296875,5.990860939025879,7.642474174499512,1.319898009300232
1788107984317090600,1.164090576171875,5.948112964630127,7.678793907165527,1.3023450374603271
1788107984327185400,1.174185302734375,5.909158229827881,7.711305141448975,1.2874820232391357
1788107984337271000,1.18427099609375,5.875919818878174,7.738550186157227,1.2760909795761108
1788107984347362800,1.19436279296875,5.849096775054932,7.760299205780029,1.2672070264816284
1788107984357457000,1.204456787109375,5.8278889656066895,7.777807235717773,1.2575509548187256
1788107984367546600,1.214546630859375,5.812032222747803,7.791183948516846,1.2480870485305786
1788107984377640700,1.224640625,5.799176216125488,7.802309036254883,1.2383439540863037
1788107984387737000,1.234737060546875,5.787682056427002,7.812414169311523,1.2283979654312134
1788107984397823500,1.244823486328125,5.7769951820373535,7.8215131759643555,1.2207649946212769
1788107984407915000,1.2549150390625,5.76694393157959,7.829933166503906,1.214292049407959
1788107984418009000,1.265009033203125,5.75707483291626,7.837928771972656,1.2095329761505127
1788107984428108800,1.27510888671875,5.74655294418335,7.8460187911987305,1.207108974456787
1788107984438200800,1.285200927734375,5.735119819641113,7.854610919952393,1.2056020498275757
1788107984448294000,1.2952939453125,5.722282886505127,7.864243984222412,1.2037889957427979
1788107984458387700,1.3053876953125,5.709044933319092,7.873983860015869,1.202991008758545
1788107984468485600,1.315485595703125,5.697165012359619,7.882693767547607,1.2022589445114136
1788107984478566100,1.325566162109375,5.6883440017700195,7.889167785644531,1.201557993888855
1788107984488666000,1.335666015625,5.6840128898620605,7.892414093017578,1.2007420063018799
1788107984498761500,1.345761474609375,5.682969093322754,7.893249988555908,1.200206995010376
1788107984508852500,1.3558525390625,5.683263778686523,7.892995834350586,1.2004649639129639
1788107984518932000,1.365931884765625,5.684611797332764,7.891895771026611,1.2013130187988281
1788107984529026300,1.3760263671875,5.687526226043701,7.889825820922852,1.201125979423523
1788107984539118600,1.38611865234375,5.694262981414795,7.8851799964904785,1.1997309923171997
1788107984549212700,1.396212646484375,5.704486846923828,7.878421783447266,1.1955289840698242
1788107984559308500,1.40630859375,5.714192867279053,7.872170925140381,1.1903430223464966
1788107984569405000,1.416405029296875,5.7199177742004395,7.868868827819824,1.1846669912338257
1788107984579494000,1.426493896484375,5.720202922821045,7.869369983673096,1.1799570322036743
1788107984589584100,1.436584228515625,5.716760158538818,7.872513771057129,1.175644040107727
1788107984599677400,1.446677490234375,5.712278842926025,7.876108169555664,1.1733759641647339
1788107984609774600,1.456774658203125,5.710148811340332,7.877864837646484,1.171949028968811
1788107984619872500,1.46687255859375,5.711925983428955,7.87694787979126,1.169435977935791
1788107984629966800,1.476966796875,5.716678142547607,7.874092102050781,1.1654410362243652
1788107984640053500,1.487053466796875,5.721589088439941,7.871236801147461,1.1606279611587524
1788107984650150000,1.49714990234375,5.723663806915283,7.870453834533691,1.1556860208511353
1788107984660237800,1.50723779296875,5.72079610824585,7.873246192932129,1.1508610248565674
1788107984670327000,1.5173271484375,5.712014198303223,7.880171775817871,1.147081971168518
1788107984680420900,1.5274208984375,5.69785213470459,7.890903949737549,1.1437209844589233
1788107984690519600,1.53751953125,5.682150840759277,7.902454853057861,1.1420730352401733
1788107984700598300,1.547598388671875,5.668975830078125,7.911656856536865,1.143854022026062
1788107984710698500,1.557698486328125,5.659828186035156,7.917935848236084,1.1457010507583618
1788107984720788200,1.567788330078125,5.651488780975342,7.92415189743042,1.1438870429992676
1788107984730882800,1.5778828125,5.638625144958496,7.934642791748047,1.1346009969711304
1788107984740974600,1.587974609375,5.6176252365112305,7.951783180236816,1.1186590194702148
1788107984751074000,1.598073974609375,5.588166236877441,7.975058078765869,1.1004079580307007
1788107984761171500,1.60817138671875,5.553545951843262,8.00112533569336,1.0863300561904907
1788107984771272200,1.618272216796875,5.518643856048584,8.026265144348145,1.078734040260315
1788107984781371100,1.62837109375,5.488174915313721,8.047311782836914,1.0773639678955078
1788107984791469600,1.638469482421875,5.465586185455322,8.062359809875488,1.079692006111145
1788107984801555500,1.648555419921875,5.453822135925293,8.070018768310547,1.0819510221481323
1788107984811649500,1.6586494140625,5.45035982131958,8.072468757629395,1.0811140537261963
1788107984821743900,1.668743896484375,5.453207969665527,8.071429252624512,1.0744980573654175
1788107984831838200,1.678838134765625,5.460556983947754,8.068180084228516,1.0615049600601196
1788107984841922800,1.6889228515625,5.469513893127441,8.064356803894043,1.044303059577942
1788107984852007000,1.6990068359375,5.477991104125977,8.061004638671875,1.0255589485168457
1788107984862094800,1.7090947265625,5.485550880432129,8.058221817016602,1.006875991821289
1788107984872185600,1.719185546875,5.493517875671387,8.054848670959473,0.9902790188789368
1788107984882271500,1.729271484375,5.503756999969482,8.049534797668457,0.9765430092811584
1788107984892363500,1.739363525390625,5.518318176269531,8.04099178314209,0.964680016040802
1788107984902457600,1.74945751953125,5.53970193862915,8.027654647827148,0.953125
1788107984912564200,1.759564208984375,5.5679450035095215,8.009474754333496,0.9414569735527039
1788107984922655500,1.769655517578125,5.601212978363037,7.987799167633057,0.9281479716300964
1788107984932749300,1.779749267578125,5.637479782104492,7.963837146759033,0.9143930077552795
1788107984942839800,1.78983984375,5.674045085906982,7.939443111419678,0.9002640247344971
1788107984952939000,1.79993896484375,5.708391189575195,7.916484832763672,0.8851609826087952
1788107984963025000,1.81002490234375,5.738618850708008,7.896449089050293,0.8685399889945984
1788107984973117000,1.820116943359375,5.764908790588379,7.879047870635986,0.8523409962654114
1788107984983206100,1.8302060546875,5.7873759269714355,7.86396598815918,0.8392230272293091
1788107984993303300,1.84030322265625,5.805877208709717,7.851296901702881,0.8300129771232605
1788107985003393800,1.850393798828125,5.8221049308776855,7.839870929718018,0.824321985244751
1788107985013495800,1.860495849609375,5.835544109344482,7.830398082733154,0.8192960023880005
1788107985023585300,1.870585205078125,5.845314025878906,7.82371187210083,0.813513994216919
1788107985033683700,1.88068359375,5.8515448570251465,7.819674968719482,0.8075299859046936
1788107985043765200,1.89076513671875,5.85457181930542,7.8180670738220215,0.8011369705200195
1788107985053857300,1.900857177734375,5.855134010314941,7.81822395324707,0.7954710125923157
1788107985063943400,1.910943359375,5.854258060455322,7.819169998168945,0.7926089763641357
1788107985074035000,1.921034912109375,5.854144096374512,7.8190460205078125,0.7946360111236572
1788107985084127500,1.93112744140625,5.855716228485107,7.817249774932861,0.8007509708404541
1788107985094226200,1.94122607421875,5.859111785888672,7.813816070556641,0.8093960285186768
1788107985104324900,1.951324951171875,5.864398956298828,7.808752059936523,0.8198739886283875
1788107985114418700,1.961418701171875,5.8718461990356445,7.801836013793945,0.8323420286178589
1788107985124505600,1.971505615234375,5.880911827087402,7.7933878898620605,0.8473269939422607
1788107985134609200,1.981609130859375,5.890484809875488,7.784107208251953,0.8659409880638123
1788107985144700400,1.991700439453125,5.899971008300781,7.774532794952393,0.8871260285377502
1788107985154789600,2.00178955078125,5.906513214111328,7.7671427726745605,0.9080719947814941
1788107985164882200,2.011882080078125,5.908667087554932,7.763148784637451,0.9279829859733582
1788107985174975500,2.0219755859375,5.905934810638428,7.762986183166504,0.9465579986572266
1788107985185075700,2.03207568359375,5.899403095245361,7.765419960021973,0.967100977897644
1788107985195166200,2.042166259765625,5.889901161193848,7.769655227661133,0.990710973739624
1788107985205261800,2.05226171875,5.879522800445557,7.773867130279541,1.0188930034637451
1788107985215346000,2.062345947265625,5.871482849121094,7.775828838348389,1.0498249530792236
1788107985225444900,2.07244482421875,5.8669657707214355,7.775031089782715,1.0805549621582031
1788107985235529500,2.082529541015625,5.865184783935547,7.77239990234375,1.1087779998779297
1788107985245617700,2.09261767578125,5.86507511138916,7.7689208984375,1.1334760189056396
1788107985255702800,2.102702880859375,5.864651203155518,7.766633033752441,1.1512099504470825
1788107985265787000,2.112786865234375,5.861416816711426,7.76760721206665,1.1610549688339233
1788107985275870200,2.1228701171875,5.853236198425293,7.772932052612305,1.1666749715805054
1788107985285956400,2.132956298828125,5.840036869049072,7.7822651863098145,1.1706119775772095
1788107985296050000,2.1430498046875,5.822894096374512,7.7950439453125,1.1709729433059692
1788107985306145500,2.1531455078125,5.8023600578308105,7.810983180999756,1.1666829586029053
1788107985316237300,2.1632373046875,5.779827117919922,7.829061031341553,1.1573220491409302
1788107985326325000,2.173324951171875,5.756012916564941,7.849043846130371,1.1405359506607056
1788107985336416300,2.183416259765625,5.733123779296875,7.86912202835083,1.1172209978103638
1788107985346518300,2.193518310546875,5.712762832641602,7.887915134429932,1.0886329412460327
1788107985356607500,2.203607421875,5.693811893463135,7.9058837890625,1.0571110248565674
1788107985366699500,2.213699462890625,5.6752610206604,7.923480987548828,1.0246200561523438
1788107985376785000,2.223784912109375,5.65445613861084,7.942237854003906,0.9939709901809692
1788107985386885400,2.233885498046875,5.6300740242004395,7.962873935699463,0.9669029712677002
1788107985396970500,2.243970458984375,5.601687908172607,7.98576021194458,0.9427180290222168
1788107985407074000,2.254073974609375,5.571341037750244,8.00966739654541,0.919435977935791
1788107985417164000,2.2641640625,5.541295051574707,8.03293228149414,0.8977710008621216
1788107985427256000,2.274256103515625,5.513558864593506,8.054311752319336,0.8767459988594055
1788107985447433500,2.29443359375,5.465021133422852,8.092439651489258,0.828220009803772
1788107985457522400,2.3045224609375,5.445504188537598,8.108142852783203,0.8028039932250977
1788107985467622000,2.314621826171875,5.431509971618652,8.12005615234375,0.7767500281333923
1788107985477709000,2.324708984375,5.423061847686768,8.128268241882324,0.7494270205497742
1788107985487799600,2.334799560546875,5.419349193572998,8.133177757263184,0.7225239872932434
1788107985497888000,2.344887939453125,5.418352127075195,8.136032104492188,0.6974440217018127
1788107985507985400,2.3549853515625,5.420159816741943,8.136528968811035,0.6773409843444824
1788107985518073300,2.3650732421875,5.432194232940674,8.130133628845215,0.6574069857597351
1788107985528174600,2.375174560546875,5.4468488693237305,8.121235847473145,0.6460800170898438
1788107985538263800,2.385263916015625,5.459290027618408,8.113593101501465,0.6369940042495728
1788107985548355800,2.39535595703125,5.469872951507568,8.107142448425293,0.6282579898834229
1788107985558445300,2.4054453125,5.480950832366943,8.10031509399414,0.6197500228881836
1788107985568543500,2.41554345703125,5.4937238693237305,8.092185020446777,0.6127859950065613
1788107985578641200,2.42564111328125,5.507446765899658,8.083349227905273,0.6061789989471436
1788107985588732700,2.435732666015625,5.521082878112793,8.074652671813965,0.5980280041694641
1788107985598823000,2.445822998046875,5.533277988433838,8.067022323608398,0.5882300138473511
1788107985608919000,2.4559189453125,5.541790008544922,8.062090873718262,0.5755940079689026
1788107985619008000,2.466008056640625,5.545514106750488,8.060538291931152,0.5612329840660095
1788107985629106200,2.476106201171875,5.543554782867432,8.062979698181152,0.5452640056610107
1788107985639197400,2.486197509765625,5.5363922119140625,8.069164276123047,0.5262719988822937
1788107985649295400,2.49629541015625,5.524138927459717,8.079048156738281,0.5028499960899353
1788107985659385300,2.50638525390625,5.507389068603516,8.092023849487305,0.47730499505996704
1788107985669477000,2.51647705078125,5.485608100891113,8.10831356048584,0.4509289860725403
1788107985679564000,2.52656396484375,5.4567131996154785,8.129046440124512,0.42763999104499817
1788107985689662000,2.536661865234375,5.419349193572998,8.154833793640137,0.41151800751686096
1788107985699749600,2.54674951171875,5.374190807342529,8.184965133666992,0.4055440127849579
1788107985709843700,2.55684375,5.323326110839844,8.218037605285645,0.4074519872665405
1788107985719961900,2.5669619140625,5.270856857299805,8.25157642364502,0.41177600622177124
1788107985730058500,2.57705859375,5.221495151519775,8.282784461975098,0.41406500339508057
1788107985740157700,2.58715771484375,5.1789631843566895,8.3095064163208,0.4128899872303009
1788107985750251800,2.597251708984375,5.144899845123291,8.330817222595215,0.4092560112476349
1788107985760346400,2.607346435546875,5.118023872375488,8.347652435302734,0.4031760096549988
1788107985770441000,2.61744091796875,5.097668170928955,8.360610008239746,0.39239901304244995
1788107985780551700,2.6275517578125,5.083672046661377,8.36991024017334,0.37531599402427673
1788107985790649000,2.637649169921875,5.0740838050842285,8.376692771911621,0.35311800241470337
1788107985800743400,2.647743408203125,5.065993785858154,8.382588386535645,0.3286040127277374
1788107985810829000,2.6578291015625,5.060192108154297,8.386966705322266,0.30531999468803406
1788107985820921900,2.667921875,5.0574951171875,8.38932991027832,0.28443199396133423
1788107985831013400,2.678013427734375,5.058158874511719,8.38957405090332,0.26471999287605286
1788107985841098500,2.688098388671875,5.059038162231445,8.389670372009277,0.24394600093364716
1788107985851191800,2.69819189453125,5.057737827301025,8.391056060791016,0.2224069982767105
1788107985861284600,2.70828466796875,5.051902770996094,8.395075798034668,0.20239700376987457
1788107985871379000,2.71837890625,5.043054103851318,8.40078353881836,0.1855670064687729
1788107985881462300,2.728462158203125,5.035039901733398,8.405862808227539,0.17266899347305298
1788107985891547100,2.738547119140625,5.02984094619751,8.409160614013672,0.1634570062160492
1788107985901637000,2.74863720703125,5.026370048522949,8.411354064941406,0.1573449969291687
1788107985911727900,2.758727783203125,5.02288293838501,8.413500785827637,0.15375599265098572
1788107985921813800,2.768813720703125,5.01840877532959,8.4162015914917,0.15199099481105804
1788107985931904800,2.77890478515625,5.011895179748535,8.420125007629395,0.14973700046539307
1788107985941983200,2.788983154296875,5.004364013671875,8.424640655517578,0.14755100011825562
1788107985952074800,2.79907470703125,4.998982906341553,8.427860260009766,0.14609600603580475
1788107985962158800,2.809158935546875,4.995866775512695,8.429755210876465,0.14310100674629211
1788107985972249900,2.819249755859375,4.996359825134277,8.429550170898438,0.13817700743675232
1788107985982335500,2.82933544921875,5.000247955322266,8.427346229553223,0.13172300159931183
1788107985992436500,2.8394365234375,5.007353782653809,8.423232078552246,0.12469100207090378
1788107986002519300,2.849519287109375,5.01709508895874,8.417534828186035,0.11780299991369247
1788107986012616400,2.859616455078125,5.027906894683838,8.411184310913086,0.11002899706363678
1788107986022700300,2.8697001953125,5.038072109222412,8.405217170715332,0.10077200084924698
1788107986032802000,2.879802001953125,5.047049045562744,8.399948120117188,0.09042800217866898
1788107986042889500,2.889889404296875,5.056218147277832,8.394532203674316,0.08068300038576126
1788107986052978200,2.899978271484375,5.065847873687744,8.38882064819336,0.06989900022745132
1788107986063053000,2.910052978515625,5.074900150299072,8.38344669342041,0.05664300173521042
1788107986073149200,2.920149169921875,5.08192777633667,8.379279136657715,0.04124699905514717
1788107986083236400,2.930236328125,5.088254928588867,8.375497817993164,0.0263689998537302
1788107986093335000,2.9403349609375,5.093890190124512,8.372101783752441,0.01344399992376566
1788107986103423500,2.950423583984375,5.096581935882568,8.370475769042969,0.001617999980226159
1788107986113516000,2.96051611328125,5.094613075256348,8.371665954589844,-0.010327000170946121
1788107986123611000,2.97061083984375,5.088499069213867,8.375354766845703,-0.02413499914109707
1788107986133698600,2.980698486328125,5.07889986038208,8.381131172180176,-0.03760800138115883
1788107986143780000,2.990780029296875,5.0684380531311035,8.387404441833496,-0.0485289990901947
1788107986153873400,3.000873291015625,5.05971622467041,8.392627716064453,-0.05590000003576279
1788107986163967200,3.01096728515625,5.0554890632629395,8.39513111114502,-0.061489999294281006
1788107986174059500,3.0210595703125,5.056128978729248,8.394705772399902,-0.06669300049543381
1788107986184161800,3.031161865234375,5.061744213104248,8.391277313232422,-0.07225500047206879
1788107986194255400,3.04125537109375,5.071953773498535,8.385047912597656,-0.07911799848079681
1788107986204344300,3.05134423828125,5.085468769073486,8.376785278320312,-0.08633799850940704
1788107986214439200,3.061439208984375,5.099039077758789,8.368437767028809,-0.0950860008597374
1788107986224547800,3.0715478515625,5.110715866088867,8.361211776733398,-0.10337900370359421
1788107986234646500,3.081646484375,5.118988990783691,8.35606861114502,-0.10986000299453735
1788107986244739800,3.09173974609375,5.122253894805908,8.353988647460938,-0.11567399650812149
1788107986254832400,3.101832275390625,5.122372150421143,8.353860855102539,-0.11961700022220612
1788107986264924700,3.111924560546875,5.120792865753174,8.354790687561035,-0.12221299856901169
1788107986275024600,3.122024658203125,5.118807792663574,8.355993270874023,-0.12322500348091125
1788107986285116700,3.13211669921875,5.116592884063721,8.357325553894043,-0.12476100027561188
1788107986295213800,3.1422138671875,5.114245891571045,8.358723640441895,-0.12726299464702606
1788107986305306600,3.152306640625,5.111636161804199,8.36026668548584,-0.13063600659370422
1788107986315391000,3.162390869140625,5.107760906219482,8.362585067749023,-0.13399499654769897
1788107986325505000,3.172505126953125,5.1041460037231445,8.364748001098633,-0.13670499622821808
1788107986335597000,3.18259716796875,5.101956844329834,8.366025924682617,-0.14021499454975128
1788107986345697300,3.192697265625,5.099905014038086,8.367144584655762,-0.14779099822044373
1788107986355791400,3.202791259765625,5.0956292152404785,8.369528770446777,-0.15971499681472778
1788107986365886700,3.21288671875,5.085801124572754,8.375202178955078,-0.17494499683380127
1788107986375978200,3.222978271484375,5.067975044250488,8.385659217834473,-0.19069600105285645
1788107986386067500,3.2330673828125,5.043868064880371,8.399836540222168,-0.20526699721813202
1788107986396155000,3.24315478515625,5.016495227813721,8.415918350219727,-0.21712200343608856
1788107986406250000,3.25325,4.988626003265381,8.432218551635742,-0.22662100195884705
1788107986416341200,3.26334130859375,4.963534832000732,8.44682502746582,-0.23325000703334808
1788107986426425600,3.273425537109375,4.9445672035217285,8.457816123962402,-0.23788799345493317
1788107986436503800,3.28350390625,4.932315826416016,8.464845657348633,-0.24222199618816376
1788107986446600700,3.2936005859375,4.926272869110107,8.46818733215332,-0.2482990026473999
1788107986456696300,3.3036962890625,4.925529956817627,8.468400955200195,-0.2556700110435486
1788107986466788600,3.31378857421875,4.929070949554443,8.466109275817871,-0.26317501068115234
1788107986476876800,3.323876708984375,4.936160087585449,8.461785316467285,-0.2693150043487549
1788107986486959400,3.33395947265625,4.946778774261475,8.455462455749512,-0.273050993680954
1788107986497046300,3.34404638671875,4.9620890617370605,8.44641399383545,-0.2752229869365692
1788107986507137300,3.35413720703125,4.984004020690918,8.433453559875488,-0.27665698528289795
1788107986517228000,3.36422802734375,5.012725830078125,8.416383743286133,-0.2775140106678009
1788107986527315200,3.374315185546875,5.04858922958374,8.394944190979004,-0.2768790125846863
1788107986537403600,3.384403564453125,5.09138822555542,8.369145393371582,-0.2741360068321228
1788107986547491800,3.394491943359375,5.139916896820068,8.339530944824219,-0.27115699648857117
1788107986557575000,3.404574951171875,5.19127893447876,8.307682991027832,-0.2703000009059906
1788107986567675400,3.41467529296875,5.242956161499023,8.275164604187012,-0.2703079879283905
1788107986577773000,3.42477294921875,5.2919111251831055,8.243927955627441,-0.2708419859409332
1788107986587865900,3.434865966796875,5.336027145385742,8.215394020080566,-0.2723580002784729
1788107986597954600,3.44495458984375,5.376158237457275,8.18918514251709,-0.27235499024391174
1788107986608051000,3.455051025390625,5.413555145263672,8.164660453796387,-0.2679060101509094
1788107986618136600,3.465136474609375,5.45057487487793,8.140329360961914,-0.25729700922966003
1788107986628228900,3.475228759765625,5.487992763519287,8.115575790405273,-0.24353300034999847
1788107986638318600,3.485318603515625,5.524228096008301,8.091333389282227,-0.2307240068912506
1788107986648409900,3.495409912109375,5.556422233581543,8.06949520111084,-0.22220200300216675
1788107986658507800,3.5055078125,5.583072185516357,8.05115032196045,-0.21980400383472443
1788107986668611800,3.51561181640625,5.603757858276367,8.036707878112793,-0.2218630015850067
1788107986678702300,3.525702392578125,5.618971824645996,8.026044845581055,-0.22309599816799164
1788107986688807700,3.5358076171875,5.633604049682617,8.015958786010742,-0.21657000482082367
1788107986698897700,3.545897705078125,5.6512370109558105,8.003920555114746,-0.20198699831962585
1788107986708990000,3.555989990234375,5.6730852127075195,7.988859176635742,-0.18499700725078583
1788107986719080700,3.566080810546875,5.695642948150635,7.973133087158203,-0.16963200271129608
1788107986729187000,3.57618701171875,5.716113090515137,7.958662033081055,-0.16046099364757538
1788107986739277800,3.58627783203125,5.734195232391357,7.945728778839111,-0.156140998005867
1788107986749373200,3.596373291015625,5.748612880706787,7.93528413772583,-0.15723200142383575
1788107986759464700,3.606464599609375,5.75675106048584,7.929300785064697,-0.1612900048494339
1788107986769548000,3.616548095703125,5.757613182067871,7.928623199462891,-0.16379299759864807
1788107986779639000,3.62663916015625,5.753305912017822,7.9317779541015625,-0.16246899962425232
1788107986789735200,3.636735107421875,5.744861125946045,7.937987804412842,-0.15782999992370605
1788107986799818800,3.64681884765625,5.733218193054199,7.946543216705322,-0.15060099959373474
1788107986809919200,3.656919189453125,5.719715118408203,7.956422805786133,-0.14201399683952332
1788107986820005400,3.66700537109375,5.705626010894775,7.966659069061279,-0.13478000462055206
1788107986830100200,3.677100341796875,5.689657211303711,7.97813081741333,-0.13126599788665771
1788107986840186600,3.6871865234375,5.671034812927246,7.991367816925049,-0.13191400468349457
1788107986850280400,3.697280517578125,5.64935302734375,8.006667137145996,-0.1345449984073639
1788107986860379400,3.70737939453125,5.624698162078857,8.023980140686035,-0.13611799478530884
1788107986870465800,3.7174658203125,5.597644805908203,8.042879104614258,-0.1359499990940094
1788107986880551000,3.727551025390625,5.570428848266602,8.061799049377441,-0.13313399255275726
1788107986890640100,3.73764013671875,5.54750394821167,8.077695846557617,-0.12660199403762817
1788107986900726300,3.747726318359375,5.530099868774414,8.089729309082031,-0.11950100213289261
1788107986910809000,3.75780908203125,5.519266128540039,8.097184181213379,-0.11537200212478638
1788107986920902100,3.767902099609375,5.511359214782715,8.102543830871582,-0.11711899936199188
1788107986931010000,3.778010009765625,5.501873016357422,8.108841896057129,-0.1266860067844391
1788107986941101000,3.78810107421875,5.485623836517334,8.119585037231445,-0.14234699308872223
1788107986951196400,3.798196533203125,5.460482120513916,8.13620376586914,-0.1592860072851181
1788107986961283300,3.808283447265625,5.430906772613525,8.155735969543457,-0.17100399732589722
1788107986971378400,3.81837841796875,5.402894973754883,8.174260139465332,-0.17369000613689423
1788107986981462800,3.828462890625,5.382828235626221,8.187583923339844,-0.1692350059747696
1788107986991544000,3.8385439453125,5.3725409507751465,8.194458961486816,-0.16321800649166107
1788107987001639400,3.848639404296875,5.373037815093994,8.194195747375488,-0.1599310040473938
1788107987011737900,3.85873779296875,5.381651878356934,8.188506126403809,-0.161871999502182
1788107987021824500,3.868824462890625,5.395782947540283,8.179071426391602,-0.1681240051984787
1788107987031907800,3.878907958984375,5.412083148956299,8.168031692504883,-0.18059000372886658
1788107987041996800,3.888996826171875,5.425363063812256,8.158844947814941,-0.19672399759292603
1788107987052090400,3.89909033203125,5.432015895843506,8.15396499633789,-0.21454200148582458
1788107987062179800,3.909179931640625,5.431234836578369,8.154033660888672,-0.23109400272369385
1788107987072277500,3.919277587890625,5.426239013671875,8.156983375549316,-0.24399399757385254
1788107987082365000,3.929364990234375,5.4204888343811035,8.160576820373535,-0.2515279948711395
1788107987092461300,3.93946142578125,5.4196271896362305,8.161048889160156,-0.25470399856567383
1788107987102552000,3.949552001953125,5.426669120788574,8.156311988830566,-0.2566399872303009
1788107987112641500,3.9596416015625,5.442306995391846,8.14573860168457,-0.26118800044059753
1788107987122731300,3.969731201171875,5.464735984802246,8.130500793457031,-0.26759400963783264
1788107987132827400,3.979827392578125,5.490390777587891,8.112956047058105,-0.2748039960861206
1788107987142913300,3.989913330078125,5.51527214050293,8.09583568572998,-0.2813529968261719
1788107987153013200,4.00001318359375,5.536497116088867,8.081090927124023,-0.28839200735092163
1788107987163101400,4.010101318359375,5.549008846282959,8.07224178314209,-0.29565298557281494
1788107987173191700,4.020191650390625,5.550572872161865,8.070954322814941,-0.30141299962997437
1788107987183293700,4.030293701171875,5.54247522354126,8.076373100280762,-0.30527201294898987
1788107987193386000,4.040385986328125,5.526553153991699,8.087188720703125,-0.3075439929962158
1788107987203475500,4.050475341796875,5.508763790130615,8.099275588989258,-0.3085539937019348
1788107987213571800,4.06057177734375,5.494618892669678,8.10894775390625,-0.30676499009132385
1788107987223657200,4.0706572265625,5.487884998321533,8.113698959350586,-0.3017120063304901
1788107987233748200,4.080748291015625,5.49058198928833,8.112136840820312,-0.2945300042629242
1788107987243838700,4.090838623046875,5.500021934509277,8.105966567993164,-0.28815099596977234
1788107987253930500,4.100930419921875,5.511457920074463,8.09831428527832,-0.2848469913005829
1788107987264021200,4.111021240234375,5.521374225616455,8.091489791870117,-0.28672298789024353
1788107987274110200,4.121110107421875,5.524898052215576,8.088826179504395,-0.2939229905605316
1788107987284213500,4.131213623046875,5.519330978393555,8.092267990112305,-0.30359798669815063
1788107987294310000,4.141309814453125,5.505387783050537,8.101445198059082,-0.3119080066680908
1788107987304400100,4.151400146484375,5.486216068267822,8.114258766174316,-0.31659001111984253
1788107987314499800,4.161499755859375,5.464259147644043,8.129016876220703,-0.31776100397109985
1788107987324595700,4.171595703125,5.440540790557861,8.144865989685059,-0.3188129961490631
1788107987334692900,4.18169287109375,5.419130802154541,8.159066200256348,-0.32031500339508057
1788107987344789000,4.1917890625,5.40418004989624,8.168906211853027,-0.32225799560546875
1788107987354879200,4.201879150390625,5.399077892303467,8.172232627868652,-0.32333698868751526
1788107987364978400,4.211978515625,5.404139041900635,8.168852806091309,-0.3241960108280182
1788107987375070200,4.2220703125,5.417048931121826,8.160184860229492,-0.3270759880542755
1788107987385168400,4.23216845703125,5.433475971221924,8.148996353149414,-0.3334760069847107
1788107987395266000,4.24226611328125,5.445777893066406,8.140338897705078,-0.3440670073032379
1788107987405355500,4.25235546875,5.449542045593262,8.137240409851074,-0.35750898718833923
1788107987415448000,4.262447998046875,5.442655086517334,8.141261100769043,-0.37063300609588623
1788107987425533400,4.272533447265625,5.426121234893799,8.151862144470215,-0.3799290060997009
1788107987435625000,4.282625,5.403828144073486,8.166540145874023,-0.38245299458503723
1788107987445720300,4.29272021484375,5.380229949951172,8.182257652282715,-0.3791179955005646
1788107987455812400,4.302812255859375,5.360225200653076,8.195780754089355,-0.37032100558280945
1788107987465908700,4.31290869140625,5.346867084503174,8.205001831054688,-0.3590550124645233
1788107987476005600,4.323005615234375,5.342930793762207,8.208036422729492,-0.3481599986553192
1788107987486109700,4.333109619140625,5.349335193634033,8.204302787780762,-0.3377549946308136
1788107987496205800,4.343205810546875,5.3645172119140625,8.194689750671387,-0.33017000555992126
1788107987506305800,4.353305908203125,5.3838582038879395,8.18201732635498,-0.3296380043029785
1788107987516396500,4.363396484375,5.400146007537842,8.170870780944824,-0.33948200941085815
1788107987526485200,4.3734853515625,5.40817403793335,8.164847373962402,-0.3562229871749878
1788107987536573200,4.3835732421875,5.408236980438232,8.164088249206543,-0.3723030090332031
1788107987546664200,4.393664306640625,5.403332233428955,8.1669340133667,-0.3810440003871918
1788107987556750600,4.40375048828125,5.396638870239258,8.171390533447266,-0.380405992269516
1788107987566832400,4.413832275390625,5.392181873321533,8.174795150756836,-0.37028300762176514
1788107987576923600,4.423923583984375,5.3937201499938965,8.174492835998535,-0.35420098900794983
1788107987587008800,4.4340087890625,5.402803897857666,8.169021606445312,-0.34175899624824524
1788107987597094100,4.44409423828125,5.416547775268555,8.160329818725586,-0.3316369950771332
1788107987607179500,4.454179443359375,5.432200908660889,8.150036811828613,-0.3287839889526367
1788107987617270000,4.46427001953125,5.445690155029297,8.140936851501465,-0.3310739994049072
1788107987627356400,4.4743564453125,5.455599784851074,8.134172439575195,-0.33421000838279724
1788107987637447000,4.484447021484375,5.462769985198975,8.129293441772461,-0.335781991481781
1788107987647531000,4.494531005859375,5.465742111206055,8.127327919006348,-0.33500099182128906
1788107987657624800,4.504624755859375,5.465457916259766,8.127632141113281,-0.33225300908088684
1788107987667728100,4.51472802734375,5.464119911193848,8.128656387329102,-0.32912299036979675
1788107987677822000,4.524822021484375,5.462813854217529,8.129648208618164,-0.32636499404907227
1788107987687919400,4.53491943359375,5.466259002685547,8.127425193786621,-0.3240300118923187
1788107987698006000,4.545006103515625,5.476048946380615,8.12092113494873,-0.3216870129108429
1788107987708092000,4.555091796875,5.49294376373291,8.10964584350586,-0.3181529939174652
1788107987718189600,4.565189453125,5.514336109161377,8.095250129699707,-0.314644992351532
1788107987728283400,4.575283447265625,5.536664009094238,8.080037117004395,-0.31362199783325195
1788107987738386200,4.58538623046875,5.558510780334473,8.065054893493652,-0.31278300285339355
1788107987748482800,4.59548291015625,5.578075885772705,8.051602363586426,-0.3110960125923157
1788107987758579200,4.6055791015625,5.592903137207031,8.041329383850098,-0.3105059862136841
1788107987768668700,4.615668701171875,5.599912166595459,8.036320686340332,-0.313834011554718
1788107987778763000,4.625762939453125,5.5955810546875,8.039015769958496,-0.32196301221847534
1788107987788857600,4.635857666015625,5.580803871154785,8.0488920211792,-0.3316420018672943
1788107987798954000,4.6459541015625,5.559846878051758,8.063125610351562,-0.3377630114555359
1788107987809043700,4.656043701171875,5.538719177246094,8.077699661254883,-0.3366659879684448
1788107987819137300,4.66613720703125,5.525979995727539,8.086846351623535,-0.32627201080322266
1788107987829223700,4.6762236328125,5.524902820587158,8.088196754455566,-0.31074899435043335
1788107987839320300,4.6863203125,5.534272193908691,8.082362174987793,-0.2953220009803772
1788107987849412600,4.69641259765625,5.550021171569824,8.071989059448242,-0.28331199288368225
1788107987859508700,4.7065087890625,5.567701816558838,8.06005573272705,-0.27602601051330566
1788107987869597700,4.71659765625,5.582574844360352,8.049812316894531,-0.27454501390457153
1788107987879697700,4.72669775390625,5.591792106628418,8.043334007263184,-0.27674400806427
1788107987889799700,4.736799560546875,5.595725059509277,8.040558815002441,-0.277866005897522
1788107987899886000,4.746885986328125,5.599499225616455,8.038168907165527,-0.2709529995918274
1788107987909975300,4.756975341796875,5.610514163970947,8.031025886535645,-0.2544049918651581
1788107987920102100,4.76710205078125,5.633462905883789,8.015689849853516,-0.22987000644207
1788107987930192100,4.777192138671875,5.6656107902526855,7.993741035461426,-0.20232200622558594
1788107987940287700,4.787287841796875,5.701282978057861,7.96892786026001,-0.17758099734783173
1788107987950375000,4.797375,5.7360758781433105,7.944297790527344,-0.15979300439357758
1788107987960472800,4.807472900390625,5.768157958984375,7.921235084533691,-0.14956699311733246
1788107987970558200,4.81755810546875,5.796104907989502,7.900897979736328,-0.14487600326538086
1788107987980648700,4.827648681640625,5.818860054016113,7.884230136871338,-0.14041000604629517
1788107987990727000,4.837726806640625,5.838647842407227,7.8697509765625,-0.13122199475765228
1788107988000819700,4.84781982421875,5.859576225280762,7.8544158935546875,-0.1162009984254837
1788107988010905300,4.8579052734375,5.885450839996338,7.835297107696533,-0.09774299710988998
1788107988020989400,4.867989501953125,5.916032791137695,7.812423229217529,-0.08114799857139587
1788107988031077600,4.87807763671875,5.949047088623047,7.787416934967041,-0.07018599659204483
1788107988041174500,4.888174560546875,5.981922149658203,7.762238025665283,-0.06512799859046936
1788107988051261200,4.89826123046875,6.0118632316589355,7.739089012145996,-0.06325600296258926
1788107988061344500,4.908344482421875,6.03541898727417,7.7207441329956055,-0.06199000030755997
1788107988071434500,4.9184345703125,6.0477471351623535,7.711115837097168,-0.058779001235961914
1788107988081525000,4.92852490234375,6.0487751960754395,7.710361957550049,-0.0514490008354187
1788107988091615200,4.938615234375,6.040266036987305,7.717092037200928,-0.04094099998474121
1788107988101708800,4.948708740234375,6.023201942443848,7.730466842651367,-0.030414000153541565
1788107988111812400,4.958812255859375,5.999120235443115,7.749190807342529,-0.024921000003814697
1788107988121899800,4.968899658203125,5.971500873565674,7.770493984222412,-0.024375999346375465
1788107988131993300,4.978993408203125,5.94710111618042,7.789183139801025,-0.0243539996445179
1788107988142083300,4.989083251953125,5.9324750900268555,7.800343990325928,-0.019361000508069992
1788107988152175000,4.999175048828125,5.930222988128662,7.802073001861572,-0.009562999941408634
1788107988162258400,5.009258544921875,5.940252780914307,7.794445991516113,0.0022720000706613064
1788107988172356400,5.0193564453125,5.9579339027404785,7.780930042266846,0.011386999860405922
1788107988182449400,5.029449462890625,5.976349830627441,7.766796112060547,0.012632999569177628
1788107988192546000,5.039546142578125,5.993275165557861,7.753748893737793,0.007104000076651573
1788107988202633200,5.04963330078125,6.0079779624938965,7.742363929748535,-0.00035200000274926424
1788107988212731000,5.05973095703125,6.0230631828308105,7.730632781982422,-0.003872999921441078
1788107988222818800,5.06981884765625,6.041238784790039,7.7164387702941895,-0.0017310000257566571
1788107988232904400,5.079904541015625,6.063518047332764,7.698941230773926,0.0016980000073090196
1788107988242995000,5.089994873046875,6.089265823364258,7.6785969734191895,0.0018970000091940165
1788107988253087500,5.10008740234375,6.117349147796631,7.656245231628418,-0.0026360000483691692
1788107988263174100,5.110174072265625,6.146529197692871,7.632824897766113,-0.01166599988937378
1788107988273261600,5.120261474609375,6.174020767211914,7.610579013824463,-0.022748000919818878
1788107988283349000,5.130348876953125,6.197689056396484,7.5912861824035645,-0.0323759987950325
1788107988293444900,5.14044482421875,6.216226100921631,7.576082229614258,-0.039232999086380005
1788107988303531500,5.150531494140625,6.230691909790039,7.564173221588135,-0.04189600050449371
1788107988313629400,5.16062939453125,6.240377902984619,7.5561699867248535,-0.045138999819755554
1788107988323723500,5.1707236328125,6.247251987457275,7.5504608154296875,-0.04889100044965744
1788107988333813200,5.180813232421875,6.253353118896484,7.545385837554932,-0.05191799998283386
1788107988343909600,5.19090966796875,6.2609381675720215,7.539093971252441,-0.05251900106668472
1788107988354006000,5.201006103515625,6.271113872528076,7.530645847320557,-0.049835000187158585
1788107988364099300,5.211099365234375,6.284615993499756,7.5194292068481445,-0.04200100153684616
1788107988374196500,5.221196533203125,6.299696922302246,7.506849765777588,-0.03216399997472763
1788107988384292900,5.23129296875,6.313043117523193,7.495657920837402,-0.02472200058400631
1788107988394383600,5.241383544921875,6.318739891052246,7.4908552169799805,-0.02450699917972088
1788107988404470000,5.251469970703125,6.315310955047607,7.493724822998047,-0.030396999791264534
1788107988414558500,5.261558349609375,6.305469989776611,7.501987934112549,-0.035262998193502426
1788107988424658400,5.271658447265625,6.294352054595947,7.511332035064697,-0.031279999762773514
1788107988434761500,5.281761474609375,6.288094997406006,7.516623020172119,-0.015285000205039978
1788107988444854000,5.29185400390625,6.2893548011779785,7.515580177307129,0.009355000220239162
1788107988454947600,5.301947509765625,6.298224925994873,7.50807523727417,0.033782001584768295
1788107988465043000,5.31204296875,6.311233997344971,7.4970622062683105,0.04918299987912178
1788107988475135000,5.322135009765625,6.324868202209473,7.485544204711914,0.05210699886083603
1788107988485226800,5.332226806640625,6.337010860443115,7.475305080413818,0.04599599912762642
1788107988495319000,5.342319091796875,6.346365928649902,7.467410087585449,0.038072001188993454
1788107988505412000,5.352412109375,6.354201793670654,7.460755825042725,0.035064999014139175
1788107988515494100,5.362494140625,6.361420154571533,7.454562187194824,0.04329099878668785
1788107988525587500,5.37258740234375,6.368697166442871,7.44826078414917,0.055612001568078995
1788107988535679000,5.382678955078125,6.37496280670166,7.442831039428711,0.06423500180244446
1788107988545779700,5.39277978515625,6.381299018859863,7.437372207641602,0.06665399670600891
1788107988555879000,5.40287890625,6.38984489440918,7.430065155029297,0.06364499777555466
1788107988565969400,5.412969482421875,6.400956153869629,7.4205169677734375,0.06035200133919716
1788107988576064000,5.42306396484375,6.414624214172363,7.408712863922119,0.05952800065279007
1788107988586152200,5.433152099609375,6.425973892211914,7.39886999130249,0.059946998953819275
1788107988596246300,5.443246337890625,6.431033134460449,7.394485950469971,0.05819299817085266
1788107988606347800,5.45334765625,6.426904201507568,7.398118019104004,0.052097998559474945
1788107988616437000,5.46343701171875,6.413064002990723,7.410179138183594,0.04317399859428406
1788107988626514000,5.473513916015625,6.393089771270752,7.427463054656982,0.03479800000786781
1788107988636608800,5.48360888671875,6.37023401260376,7.447081089019775,0.03293300047516823
1788107988646702000,5.4937021484375,6.348649024963379,7.465455055236816,0.03980899974703789
1788107988656790800,5.503790771484375,6.331002235412598,7.480350971221924,0.05225300043821335
1788107988666880800,5.513880859375,6.317784786224365,7.491401195526123,0.06733199954032898
1788107988676974300,5.523974365234375,6.306786060333252,7.500524997711182,0.08110900223255157
1788107988687058700,5.53405859375,6.297530174255371,7.508203029632568,0.08959300071001053
1788107988697144000,5.54414404296875,6.2913031578063965,7.513387203216553,0.09240800142288208
1788107988707234600,5.554234619140625,6.288504123687744,7.5157341957092285,0.09165599942207336
1788107988717329200,5.5643291015625,6.290273189544678,7.514256954193115,0.09155300259590149
1788107988727425300,5.57442529296875,6.298186779022217,7.5075907707214355,0.09446900337934494
1788107988737523700,5.584523681640625,6.3128662109375,7.4951629638671875,0.10131300240755081
1788107988747613000,5.594613037109375,6.332735061645508,7.478308200836182,0.10673300176858902
1788107988757709600,5.60470947265625,6.353055000305176,7.461088180541992,0.10427500307559967
1788107988767789800,5.614789794921875,6.369088172912598,7.447556018829346,0.09295699745416641
1788107988777883100,5.624883056640625,6.378291130065918,7.43984317779541,0.07845400273799896
1788107988787978000,5.63497802734375,6.380292892456055,7.438236236572266,0.06699199974536896
1788107988798075600,5.64507568359375,6.37460994720459,7.443149089813232,0.06214600056409836
1788107988808160800,5.655160888671875,6.361044883728027,7.4547247886657715,0.06459899991750717
1788107988818260200,5.66526025390625,6.341328144073486,7.471447944641113,0.07080899924039841
1788107988828345300,5.675345458984375,6.316844940185547,7.492128849029541,0.07382000237703323
1788107988838443300,5.685443359375,6.288644790649414,7.515834808349609,0.07158800214529037
1788107988848525000,5.695525146484375,6.260097980499268,7.539693832397461,0.06443899869918823
1788107988858628600,5.705628662109375,6.23560094833374,7.560027122497559,0.05707399919629097
1788107988868719900,5.715719970703125,6.219244003295898,7.573500156402588,0.055716998875141144
1788107988878829600,5.72582958984375,6.213890075683594,7.577840805053711,0.062438998371362686
1788107988888918300,5.735918212890625,6.21712589263916,7.575107097625732,0.07114800065755844
1788107988899015000,5.746014892578125,6.222833156585693,7.570387840270996,0.07475099712610245
1788107988909102000,5.75610205078125,6.2236480712890625,7.569777011871338,0.0683789998292923
1788107988919195100,5.766195068359375,6.216030120849609,7.576160907745361,0.05241699889302254
1788107988929278000,5.77627783203125,6.1997480392456055,7.589599132537842,0.032878998667001724
1788107988939375400,5.786375244140625,6.177365779876709,7.607875823974609,0.017904000356793404
1788107988949459200,5.796459228515625,6.153160095214844,7.627481937408447,0.01257999986410141
1788107988959549700,5.8065498046875,6.129720211029053,7.646317958831787,0.018115999177098274
1788107988969641000,5.816640869140625,6.10616397857666,7.665116786956787,0.027142999693751335
1788107988979731000,5.82673095703125,6.080478191375732,7.685479164123535,0.03451700136065483
1788107988989828400,5.836828369140625,6.050273895263672,7.7092671394348145,0.037025999277830124
1788107988999917600,5.84691748046875,6.017101764678955,7.735197067260742,0.03474099934101105
1788107989010020600,5.8570205078125,5.982348918914795,7.762113094329834,0.03281199932098389
1788107989020113700,5.86711376953125,5.948739051818848,7.787901878356934,0.033695999532938004
1788107989030201000,5.877201171875,5.917788028717041,7.811412811279297,0.03928700089454651
1788107989040294400,5.88729443359375,5.891952037811279,7.830862998962402,0.04972299933433533
1788107989050387000,5.897386962890625,5.871617794036865,7.846006870269775,0.06508400291204453
1788107989060478200,5.907478271484375,5.854179859161377,7.858852863311768,0.08335000276565552
1788107989070622200,5.917622314453125,5.839261054992676,7.869728088378906,0.10194499790668488
1788107989080712400,5.92771240234375,5.828201770782471,7.877668857574463,0.11989600211381912
1788107989090801400,5.937801513671875,5.819799900054932,7.883603096008301,0.13693499565124512
1788107989100893200,5.94789306640625,5.813722133636475,7.887808799743652,0.15199099481105804
1788107989110983000,5.95798291015625,5.809872150421143,7.890397071838379,0.16435399651527405
1788107989121076000,5.968075927734375,5.8083882331848145,7.891297817230225,0.17335300147533417
1788107989131166000,5.978166015625,5.808938980102539,7.890777111053467,0.1785389930009842
1788107989141260300,5.98826025390625,5.809758186340332,7.890120983123779,0.1809139996767044
1788107989151359700,5.99835986328125,5.809374809265137,7.890388011932373,0.18144500255584717
1788107989161454000,6.0084541015625,5.806131839752197,7.8927998542785645,0.1803780049085617
1788107989171551700,6.0185517578125,5.798378944396973,7.898580074310303,0.1767909973859787
1788107989181647000,6.028647216796875,5.785575866699219,7.908067226409912,0.17203399538993835
1788107989191739600,6.03873974609375,5.768514156341553,7.920602798461914,0.16817499697208405
1788107989201833000,6.0488330078125,5.74954080581665,7.934412956237793,0.16703499853610992
1788107989211918000,6.05891796875,5.730708122253418,7.9479851722717285,0.16878199577331543
1788107989222006500,6.069006591796875,5.714104175567627,7.9598469734191895,0.17275600135326385
1788107989232087600,6.079087646484375,5.700629234313965,7.969437122344971,0.1757580041885376
1788107989242175500,6.089175537109375,5.688628196716309,7.978056907653809,0.17352299392223358
1788107989252262700,6.0992626953125,5.675532817840576,7.987561225891113,0.16486699879169464
1788107989262360000,6.109360107421875,5.659160137176514,7.999416828155518,0.15243500471115112
1788107989272446200,6.1194462890625,5.639682769775391,8.013382911682129,0.1401820033788681
1788107989282536000,6.129535888671875,5.617886066436768,8.02884292602539,0.1304139941930771
1788107989292632600,6.139632568359375,5.596521854400635,8.043761253356934,0.12982399761676788
1788107989302732000,6.14973193359375,5.5792460441589355,8.055623054504395,0.13774800300598145
1788107989322924800,6.1699248046875,5.568820953369141,8.062200546264648,0.17068099975585938
1788107989333024000,6.18002392578125,5.576961040496826,8.056160926818848,0.18908999860286713
1788107989343117000,6.190116943359375,5.590220928192139,8.04665470123291,0.2019609957933426
1788107989353205500,6.20020556640625,5.602025985717773,8.038324356079102,0.20657800137996674
1788107989363295200,6.210295166015625,5.607707977294922,8.034416198730469,0.20435699820518494
1788107989373380600,6.220380615234375,5.605247974395752,8.036246299743652,0.1998320072889328
1788107989383467500,6.230467529296875,5.594779968261719,8.043582916259766,0.1980540007352829
1788107989393556200,6.24055615234375,5.5782790184021,8.054917335510254,0.2026900053024292
1788107989403655200,6.2506552734375,5.557920932769775,8.068650245666504,0.21542899310588837
1788107989413746000,6.260745849609375,5.535559177398682,8.083534240722656,0.2324340045452118
1788107989423836400,6.27083642578125,5.511970043182373,8.09916877746582,0.24820299446582794
1788107989433919500,6.28091943359375,5.488390922546387,8.114819526672363,0.25936099886894226
1788107989444010800,6.2910107421875,5.46392297744751,8.131197929382324,0.2629989981651306
1788107989454103300,6.301103271484375,5.440749168395996,8.146798133850098,0.26056501269340515
1788107989464196400,6.3111962890625,5.421167850494385,8.159975051879883,0.2565140128135681
1788107989474286800,6.321286865234375,5.406696796417236,8.16955280303955,0.2570439875125885
1788107989484385000,6.331385009765625,5.397721767425537,8.175314903259277,0.26239898800849915
1788107989494475500,6.3414755859375,5.394145965576172,8.177437782287598,0.2696549892425537
1788107989504570400,6.3515703125,5.393617153167725,8.177610397338867,0.27493301033973694
1788107989514667500,6.36166748046875,5.393362045288086,8.177810668945312,0.2739560008049011
1788107989524764700,6.3717646484375,5.3908281326293945,8.179723739624023,0.2666260004043579
1788107989534850300,6.381850341796875,5.385336875915527,8.183699607849121,0.2553369998931885
1788107989544951600,6.39195166015625,5.376033782958984,8.190138816833496,0.24477800726890564
1788107989555041300,6.402041259765625,5.3620381355285645,8.199549674987793,0.23642100393772125
1788107989565138000,6.412137939453125,5.341739177703857,8.212982177734375,0.22970299422740936
1788107989575227100,6.42222705078125,5.315348148345947,8.230216979980469,0.22499899566173553
1788107989585318000,6.43231787109375,5.28554105758667,8.24945068359375,0.2226639986038208
1788107989595406600,6.442406494140625,5.257744789123535,8.267175674438477,0.22339800000190735
1788107989605489000,6.452489013671875,5.234255790710449,8.282049179077148,0.22398699820041656
1788107989615585800,6.462585693359375,5.215468883514404,8.293917655944824,0.22315600514411926
1788107989625679600,6.4726796875,5.200798988342285,8.303265571594238,0.21775999665260315
1788107989635777800,6.48277783203125,5.190688133239746,8.309845924377441,0.2079620063304901
1788107989645877200,6.492877197265625,5.184524059295654,8.313981056213379,0.1960580050945282
1788107989655971300,6.502971435546875,5.180740833282471,8.31667423248291,0.18134300410747528
1788107989666072000,6.513072021484375,5.176980972290039,8.319367408752441,0.1643189936876297
1788107989676171500,6.523171630859375,5.171910762786865,8.322830200195312,0.14786000549793243
1788107989686279000,6.53327880859375,5.167256832122803,8.325918197631836,0.13604600727558136
1788107989696363500,6.543363525390625,5.162711143493652,8.328866004943848,0.12801699340343475
1788107989706455600,6.55345556640625,5.1560139656066895,8.333113670349121,0.12135600298643112
1788107989716547800,6.5635478515625,5.144934177398682,8.34005069732666,0.11478699743747711
1788107989726641400,6.573641357421875,5.1292219161987305,8.349817276000977,0.10770799964666367
1788107989736732000,6.58373193359375,5.112237930297852,8.360292434692383,0.10266800224781036
1788107989746822400,6.593822509765625,5.095363140106201,8.370635032653809,0.09873100370168686
1788107989756910800,6.603910888671875,5.078049182891846,8.381174087524414,0.09651800245046616
1788107989767003100,6.614003173828125,5.060142993927002,8.391988754272461,0.0971359983086586
1788107989777086700,6.624086669921875,5.045217990875244,8.400948524475098,0.09908899664878845
1788107989787179800,6.6341796875,5.035604953765869,8.406693458557129,0.1010729968547821
1788107989797265700,6.644265625,5.0309882164001465,8.409455299377441,0.10110499709844589
1788107989807363300,6.65436328125,5.030582904815674,8.409748077392578,0.0967480018734932
1788107989817448200,6.6644482421875,5.033411979675293,8.408137321472168,0.08938899636268616
1788107989827545000,6.674545166015625,5.038951873779297,8.404905319213867,0.08090899884700775
1788107989837628700,6.684628662109375,5.047098159790039,8.400092124938965,0.07243400067090988
1788107989847726800,6.694726806640625,5.057534217834473,8.393878936767578,0.06445600092411041
1788107989857812700,6.704812744140625,5.069002151489258,8.387022972106934,0.055369000881910324
1788107989867909000,6.7149091796875,5.078760147094727,8.381187438964844,0.04325399920344353
1788107989877988900,6.72498876953125,5.0852131843566895,8.377331733703613,0.029942000284790993
1788107989888079400,6.735079345703125,5.088225841522217,8.375535011291504,0.018897000700235367
1788107989898166500,6.74516650390625,5.089763164520264,8.374612808227539,0.013179999776184559
1788107989908267800,6.755267822265625,5.089777946472168,8.374605178833008,0.012678000144660473
1788107989918369000,6.765369140625,5.087100028991699,8.376228332519531,0.014573999680578709
1788107989928469800,6.7754697265625,5.082575798034668,8.378969192504883,0.01706700026988983
1788107989938569000,6.78556884765625,5.079312801361084,8.380936622619629,0.02188899926841259
1788107989948672000,6.795672119140625,5.0798211097717285,8.38060474395752,0.028736000880599022
1788107989958769400,6.805769287109375,5.087026119232178,8.376198768615723,0.03835200145840645
1788107989968859600,6.815859619140625,5.101930141448975,8.367066383361816,0.05038600042462349
1788107989978942500,6.8259423828125,5.123549938201904,8.353738784790039,0.06534499675035477
1788107989989027800,6.83602783203125,5.15136194229126,8.336457252502441,0.08361200243234634
1788107989999125000,6.846125,5.185035228729248,8.315342903137207,0.10222800076007843
1788107990009217000,6.856217041015625,5.224430084228516,8.29043197631836,0.11845699697732925
1788107990019314400,6.866314453125,5.267126083374023,8.263172149658203,0.1319500058889389
1788107990029399800,6.87639990234375,5.307867050170898,8.236893653869629,0.14161500334739685
1788107990039497500,6.88649755859375,5.343008995056152,8.214034080505371,0.1479090005159378
1788107990049589200,6.89658935546875,5.366167068481445,8.19891357421875,0.14844900369644165
1788107990059688200,6.906688232421875,5.3723368644714355,8.194942474365234,0.1445319950580597
1788107990069772800,6.916772705078125,5.361239910125732,8.20229434967041,0.13961799442768097
1788107990079867400,6.926867431640625,5.338006973266602,8.217448234558105,0.13876500725746155
1788107990089956000,6.9369560546875,5.308707237243652,8.236305236816406,0.14450299739837646
1788107990100041000,6.947041015625,5.279965877532959,8.254437446594238,0.16183699667453766
1788107990110131700,6.957131591796875,5.256080150604248,8.26905345916748,0.190760999917984
1788107990120221000,6.967220947265625,5.2376508712768555,8.279889106750488,0.22463400661945343
1788107990130310400,6.977310302734375,5.220678806304932,8.289722442626953,0.25496599078178406
1788107990140418000,6.98741796875,5.200502872467041,8.301669120788574,0.2777000069618225
1788107990150512400,6.997512451171875,5.177950859069824,8.31521224975586,0.2933480143547058
1788107990160602400,7.007602294921875,5.159731864929199,8.326123237609863,0.30476900935173035
1788107990170686700,7.017686767578125,5.149934768676758,8.331759452819824,0.3161729872226715
1788107990180769500,7.02776953125,5.150576114654541,8.330805778503418,0.33055898547172546
1788107990190854700,7.037854736328125,5.161651134490967,8.323110580444336,0.35094699263572693
1788107990200949800,7.04794970703125,5.181107997894287,8.309941291809082,0.37544000148773193
1788107990211041300,7.058041259765625,5.2018280029296875,8.295843124389648,0.4000299870967865
1788107990221134800,7.068134765625,5.219196796417236,8.283856391906738,0.4215349853038788
1788107990231225600,7.0782255859375,5.23223876953125,8.274771690368652,0.4379259943962097
1788107990241311200,7.088311279296875,5.241177082061768,8.268594741821289,0.4476329982280731
1788107990251398400,7.0983984375,5.246487140655518,8.265009880065918,0.4516330063343048
1788107990261489700,7.10848974609375,5.24844217300415,8.263754844665527,0.45188701152801514
1788107990271578600,7.11857861328125,5.246024131774902,8.265423774719238,0.44945600628852844
1788107990281678800,7.128678955078125,5.239443778991699,8.269726753234863,0.4470300078392029
1788107990291780000,7.138780029296875,5.230110168457031,8.275628089904785,0.44712701439857483
1788107990301870300,7.148870361328125,5.221272945404053,8.280919075012207,0.4524120092391968
1788107990311954400,7.158954345703125,5.2146382331848145,8.284480094909668,0.4636160135269165
1788107990322043100,7.169043212890625,5.20920991897583,8.287038803100586,0.478643000125885
1788107990332141800,7.179141845703125,5.202826023101807,8.290265083312988,0.4920560121536255
1788107990342225200,7.18922509765625,5.192796230316162,8.29598331451416,0.5015079975128174
1788107990352321300,7.1993212890625,5.180363178253174,8.303510665893555,0.5055519938468933
1788107990362411800,7.209411865234375,5.169375896453857,8.310385704040527,0.5050320029258728
1788107990372512500,7.219512451171875,5.163132190704346,8.31421947479248,0.5057820081710815
1788107990382608000,7.22960791015625,5.165550231933594,8.312361717224121,0.5115290284156799
1788107990392701400,7.239701416015625,5.176927089691162,8.304747581481934,0.5201900005340576
1788107990402791400,7.24979150390625,5.195772171020508,8.29226016998291,0.5313969850540161
1788107990412885800,7.2598857421875,5.221586227416992,8.275033950805664,0.5466480255126953
1788107990422972200,7.26997216796875,5.2543439865112305,8.253091812133789,0.5642060041427612
1788107990433067800,7.28006787109375,5.295105934143066,8.225590705871582,0.5844050049781799
1788107990443155200,7.2901552734375,5.342367172241211,8.193388938903809,0.6061789989471436
1788107990453244200,7.300244140625,5.391215801239014,8.159692764282227,0.6278449892997742
1788107990463336200,7.310336181640625,5.437242031097412,8.127450942993164,0.6487439870834351
1788107990473429000,7.320428955078125,5.477902889251709,8.098676681518555,0.6663320064544678
1788107990483519200,7.330519287109375,5.508978843688965,8.076750755310059,0.6762239933013916
1788107990493620500,7.340620361328125,5.5272040367126465,8.063981056213379,0.6798530220985413
1788107990503715000,7.350715087890625,5.5331292152404785,8.059764862060547,0.6816660165786743
1788107990513808600,7.36080859375,5.5309929847717285,8.06087589263916,0.6858540177345276
1788107990523896300,7.370896240234375,5.521544933319092,8.066848754882812,0.6916990280151367
1788107990533990100,7.380990234375,5.503675937652588,8.07878303527832,0.6948639750480652
1788107990544075500,7.391075439453125,5.4775800704956055,8.096776962280273,0.6915889978408813
1788107990554166500,7.40116650390625,5.444444179534912,8.120044708251953,0.6803780198097229
1788107990564258300,7.41125830078125,5.4100751876831055,8.144200325012207,0.6656590104103088
1788107990574354400,7.4213544921875,5.379380226135254,8.165732383728027,0.6504200100898743
1788107990584445200,7.431445068359375,5.358091831207275,8.180755615234375,0.6372219920158386
1788107990594529000,7.441529052734375,5.348826885223389,8.187616348266602,0.6268870234489441
1788107990604623400,7.451623291015625,5.352622985839844,8.185665130615234,0.6199300289154053
1788107990614722800,7.461722900390625,5.368754863739014,8.175501823425293,0.6145259737968445
1788107990624858000,7.471858154296875,5.394289970397949,8.159116744995117,0.608672022819519
1788107990634940700,7.481940673828125,5.425721168518066,8.13871955871582,0.6023160219192505
1788107990645031700,7.49203173828125,5.460363864898682,8.116260528564453,0.592208981513977
1788107990655124000,7.5021240234375,5.495631217956543,8.093379020690918,0.5790039896965027
1788107990665219000,7.512218994140625,5.5298590660095215,8.07097339630127,0.5657340288162231
1788107990675310800,7.522310791015625,5.560710906982422,8.05070972442627,0.5518829822540283
1788107990685408000,7.532407958984375,5.587875843048096,8.032768249511719,0.5387730002403259
1788107990695491000,7.542490966796875,5.611431121826172,8.017060279846191,0.5278059840202332
1788107990705589200,7.55258935546875,5.630502223968506,8.0042085647583,0.5196589827537537
1788107990715680800,7.5626806640625,5.645625114440918,7.993937969207764,0.5136759877204895
1788107990725779500,7.572779541015625,5.658041000366211,7.98545503616333,0.5090150237083435
1788107990735870500,7.582870361328125,5.66812801361084,7.978662967681885,0.5032449960708618
1788107990745967000,7.592967041015625,5.677278995513916,7.972606182098389,0.4960539937019348
1788107990756058000,7.60305810546875,5.687067985534668,7.966136932373047,0.4877600073814392
1788107990766154000,7.613154052734375,5.700860023498535,7.956647872924805,0.48162099719047546
1788107990776234500,7.623234375,5.7217888832092285,7.941749095916748,0.47932299971580505
1788107990786323500,7.633323486328125,5.750133037567139,7.921267032623291,0.4790340065956116
1788107990796417000,7.6434169921875,5.784221172332764,7.8963799476623535,0.4794960021972656
1788107990806503400,7.65350341796875,5.82122278213501,7.869109153747559,0.4801259934902191
1788107990816590800,7.6635908203125,5.861782073974609,7.839000225067139,0.4791960120201111
1788107990826686500,7.6736865234375,5.904733180999756,7.80679178237915,0.47763699293136597
1788107990836776000,7.68377587890625,5.946660041809082,7.775083065032959,0.4746989905834198
1788107990846874400,7.693874267578125,5.986313819885254,7.744690895080566,0.4730440080165863
1788107990856957400,7.70395751953125,6.0235090255737305,7.7157440185546875,0.4739910066127777
1788107990867046000,7.7140458984375,6.0569658279418945,7.689451217651367,0.47486498951911926
1788107990877130200,7.724130126953125,6.084801197052002,7.667500019073486,0.4739370048046112
1788107990887220700,7.734220703125,6.103503227233887,7.653024196624756,0.4673590064048767
1788107990897308200,7.74430810546875,6.112154006958008,7.646783828735352,0.456371009349823
1788107990907397000,7.754397216796875,6.11047887802124,7.648808002471924,0.4446769952774048
1788107990917478100,7.76447802734375,6.102731227874756,7.655399799346924,0.437622994184494
1788107990927569400,7.7745693359375,6.09230899810791,7.663656234741211,0.43833601474761963
1788107990937655800,7.78465576171875,6.081340789794922,7.671792984008789,0.4482020139694214
1788107990947750700,7.794750732421875,6.070133209228516,7.679788112640381,0.4629960060119629
1788107990957838800,7.8048388671875,6.058191776275635,7.688265800476074,0.4783869981765747
1788107990967930000,7.81493017578125,6.045194149017334,7.6976752281188965,0.49132299423217773
1788107990978015700,7.825015625,6.031929969787598,7.70747184753418,0.5007150173187256
1788107990988107800,7.835107666015625,6.022193908691406,7.714663028717041,0.5070649981498718
1788107990998196500,7.845196533203125,6.01730489730835,7.7180352210998535,0.5137680172920227
1788107991008293000,7.855293212890625,6.0164408683776855,7.7181291580200195,0.5224140286445618
1788107991018386400,7.865386474609375,6.017833232879639,7.716230869293213,0.5342730283737183
1788107991028479500,7.8754794921875,6.019449234008789,7.713929176330566,0.5491080284118652
1788107991038563800,7.885563720703125,6.020813941955566,7.711617946624756,0.5663400292396545
1788107991048664600,7.89566455078125,6.023521900177002,7.708024024963379,0.5861409902572632
1788107991058754300,7.90575439453125,6.027814865112305,7.7028889656066895,0.6090630292892456
1788107991068848000,7.91584814453125,6.033524990081787,7.696311950683594,0.6351119875907898
1788107991078940400,7.9259404296875,6.039662837982178,7.689037799835205,0.6641860008239746
1788107991089036000,7.9360361328125,6.045351028442383,7.68201208114624,0.6931340098381042
1788107991099127800,7.9461279296875,6.046316146850586,7.678754806518555,0.7202690243721008
1788107991109220900,7.956220947265625,6.040709018707275,7.681008815765381,0.7429379820823669
1788107991129414700,7.97641455078125,6.012540817260742,7.699793815612793,0.776220977306366
1788107991139503900,7.98650390625,5.991092205047607,7.715044975280762,0.790494978427887
1788107991149599200,7.99659912109375,5.965951919555664,7.733163833618164,0.8034899830818176
1788107991159692300,8.0066923828125,5.940631866455078,7.7514519691467285,0.8148139715194702
1788107991169793000,8.01679296875,5.918247222900391,7.767148971557617,0.8281199932098389
1788107991179875000,8.026875,5.900689125061035,7.778626918792725,0.8454859852790833
1788107991189969200,8.03696923828125,5.892602920532227,7.782124996185303,0.8693510293960571
1788107991200053800,8.0470537109375,5.898532867431641,7.774256229400635,0.8990089893341064
1788107991210146000,8.05714599609375,5.920129776000977,7.753963947296143,0.9317119717597961
1788107991220236000,8.067236083984374,5.951880931854248,7.725897789001465,0.9620580077171326
1788107991230319900,8.07731982421875,5.990300178527832,7.693295001983643,0.9846590161323547
1788107991240403700,8.08740380859375,6.032096862792969,7.658824920654297,0.998100996017456
1788107991250492200,8.0974921875,6.07705020904541,7.622196197509766,1.0057640075683594
1788107991260581600,8.10758154296875,6.123274803161621,7.584335803985596,1.0116080045700073
1788107991270672100,8.117672119140625,6.1677727699279785,7.547028064727783,1.0202850103378296
1788107991280777200,8.127777099609375,6.206820011138916,7.513309955596924,1.0322459936141968
1788107991290871300,8.137871337890624,6.237093925476074,7.486461162567139,1.0447629690170288
1788107991300964900,8.14796484375,6.255891799926758,7.469880104064941,1.0510519742965698
1788107991311053300,8.15805322265625,6.259041786193848,7.467942237854004,1.0460619926452637
1788107991321141500,8.1681416015625,6.246696949005127,7.479818820953369,1.0349119901657104
1788107991331232500,8.178232421875,6.221312046051025,7.502962112426758,1.020198941230774
1788107991341328000,8.188327880859376,6.187710762023926,7.5328240394592285,1.0044000148773193
1788107991351423200,8.19842333984375,6.150230884552002,7.565349102020264,0.9900090098381042
1788107991361509400,8.20850927734375,6.113418102264404,7.596609115600586,0.9786270260810852
1788107991371609600,8.218609619140626,6.082070827484131,7.622725963592529,0.9708290100097656
1788107991381711600,8.228711669921875,6.062185764312744,7.63888692855835,0.9681289792060852
1788107991391811300,8.238811279296876,6.053614139556885,7.645845890045166,0.9668670296669006
1788107991401899500,8.2488994140625,6.0530500411987305,7.646941184997559,0.9617120027542114
1788107991411989800,8.25898974609375,6.0551252365112305,7.647047996520996,0.9476680159568787
1788107991422080300,8.269080322265625,6.05581521987915,7.649806022644043,0.9206519722938538
1788107991432168700,8.279168701171875,6.0521087646484375,7.657402992248535,0.8810210227966309
1788107991442260500,8.289260498046875,6.044933795928955,7.6682047843933105,0.8350780010223389
1788107991452359700,8.299359619140626,6.035265922546387,7.680375099182129,0.7920920252799988
1788107991462449400,8.309449462890624,6.022662162780762,7.693410873413086,0.7608640193939209
1788107991472543500,8.31954345703125,6.007227897644043,7.706639766693115,0.7488999962806702
1788107991482637300,8.32963720703125,5.990972995758057,7.7183709144592285,0.7583000063896179
1788107991492738800,8.33973876953125,5.9733500480651855,7.729299068450928,0.7855179905891418
1788107991502826500,8.349826416015626,5.954922199249268,7.739682197570801,0.8223109841346741
1788107991512927700,8.359927734375,5.933333873748779,7.751719951629639,0.8639439940452576
1788107991523019800,8.370019775390626,5.909218788146973,7.76532506942749,0.906004011631012
1788107991533113900,8.38011376953125,5.883353233337402,7.78035306930542,0.9445819854736328
1788107991543197700,8.39019775390625,5.858463764190674,7.795316219329834,0.9753909707069397
1788107991553296400,8.40029638671875,5.836277961730957,7.809391021728516,0.9956179857254028
1788107991563373300,8.410373291015626,5.817383766174316,7.822159767150879,1.0059200525283813
1788107991573456600,8.42045654296875,5.802562236785889,7.833033084869385,1.0068910121917725
1788107991593636400,8.44063623046875,5.790359973907471,7.842704772949219,1.0018609762191772
1788107991603720400,8.450720458984375,5.79095983505249,7.8423027992248535,1.001533031463623
1788107991613814300,8.460814208984376,5.793321132659912,7.8402018547058105,1.0043259859085083
1788107991623900000,8.47089990234375,5.797664165496826,7.836551189422607,1.0077580213546753
1788107991633988000,8.480988037109375,5.8018999099731445,7.83328914642334,1.0087120532989502
1788107991644071000,8.49107080078125,5.804903984069824,7.831483840942383,1.0054709911346436
1788107991654162200,8.501162109375,5.807107925415039,7.830783843994141,0.9981669783592224
1788107991664251600,8.511251708984375,5.80839204788208,7.831185817718506,0.9874709844589233
1788107991674342400,8.52134228515625,5.809117794036865,7.832312107086182,0.9741939902305603
1788107991684438300,8.531438232421875,5.810234069824219,7.833337783813477,0.9591659903526306
1788107991694530300,8.5415302734375,5.811428070068359,7.8346028327941895,0.9414520263671875
1788107991704626400,8.55162646484375,5.813079833984375,7.83574104309082,0.9215599894523621
1788107991714713900,8.5617138671875,5.815083026885986,7.8368401527404785,0.8992930054664612
1788107991724806000,8.571805908203125,5.8172478675842285,7.838185787200928,0.8731849789619446
1788107991734896000,8.581896240234375,5.819400787353516,7.839558124542236,0.8460929989814758
1788107991744985900,8.59198583984375,5.8224968910217285,7.840298175811768,0.8174859881401062
1788107991755076600,8.60207666015625,5.827837944030762,7.839367866516113,0.7878080010414124
1788107991765172200,8.612172119140626,5.833920955657959,7.837914943695068,0.7565820217132568
1788107991775266000,8.62226611328125,5.841814041137695,7.834983825683594,0.725413978099823
1788107991785380400,8.63238037109375,5.850727081298828,7.8314361572265625,0.6910600066184998
1788107991795470800,8.642470947265625,5.859705924987793,7.827915191650391,0.6538919806480408
1788107991805565000,8.65256494140625,5.869315147399902,7.823939800262451,0.6140919923782349
1788107991815660300,8.662660400390624,5.879640102386475,7.81924295425415,0.5738509893417358
1788107991825755100,8.672755126953126,5.890575885772705,7.813723087310791,0.5355719923973083
1788107991835853600,8.682853515625,5.902713775634766,7.806859970092773,0.5009440183639526
1788107991845948400,8.692948486328126,5.915102958679199,7.799382209777832,0.4703119993209839
1788107991856036400,8.703036376953126,5.925924777984619,7.792730808258057,0.4435169994831085
1788107991866131000,8.713130859375,5.934957027435303,7.787139892578125,0.4203929901123047
1788107991876218400,8.72321826171875,5.940838813781738,7.7837138175964355,0.40026599168777466
1788107991896405800,8.74340576171875,5.944149017333984,7.783038139343262,0.3624809980392456
1788107991906495500,8.75349560546875,5.942730903625488,7.784814834594727,0.3472839891910553
1788107991916587000,8.7635869140625,5.940043926239014,7.7873759269714355,0.3355880081653595
1788107991926685400,8.773685546875,5.936522960662842,7.790513038635254,0.3249779939651489
1788107991936780000,8.783780029296874,5.933353900909424,7.793345928192139,0.3147369921207428
1788107991946869500,8.793869384765625,5.9314069747924805,7.795193195343018,0.30558401346206665
1788107991956961500,8.80396142578125,5.933660984039307,7.793766021728516,0.29805800318717957
1788107991967058200,8.81405810546875,5.9417619705200195,7.787858963012695,0.29105401039123535
1788107991977149700,8.824149658203124,5.956836223602295,7.77656888961792,0.2846809923648834
1788107991987241500,8.834241455078125,5.978010177612305,7.760568141937256,0.2774060070514679
1788107991997327000,8.8443271484375,6.001889228820801,7.742455959320068,0.2677839994430542
1788107992007421000,8.8544208984375,6.024192810058594,7.725580215454102,0.25397101044654846
1788107992017498000,8.864498046875,6.043115139007568,7.711281776428223,0.2384900003671646
1788107992027596300,8.87459619140625,6.058558940887451,7.699606895446777,0.22343100607395172
1788107992037685800,8.884685791015626,6.069281101226807,7.691511154174805,0.21095499396324158
1788107992047780000,8.894780029296875,6.075571060180664,7.686740875244141,0.20354600250720978
1788107992057873700,8.904873779296874,6.077879905700684,7.684985160827637,0.20099499821662903
1788107992067969300,8.91496923828125,6.076807975769043,7.685842990875244,0.200545996427536
1788107992078052400,8.92505224609375,6.072758197784424,7.689047813415527,0.20038600265979767
1788107992088146000,8.93514599609375,6.066443920135498,7.694036960601807,0.20009000599384308
1788107992098226200,8.94522607421875,6.0607218742370605,7.698526859283447,0.20080800354480743
1788107992108323300,8.9553232421875,6.056098937988281,7.702167987823486,0.20070700347423553
1788107992128505600,8.975505615234376,6.052237033843994,7.705266952514648,0.19815300405025482
1788107992138592300,8.98559228515625,6.053977012634277,7.703959941864014,0.19579799473285675
1788107992148684300,8.995684326171874,6.058498859405518,7.700512886047363,0.19145099818706512
1788107992158775600,9.005775634765625,6.064704895019531,7.695804119110107,0.18421800434589386
1788107992168867600,9.01586767578125,6.069758892059326,7.692083835601807,0.17285899817943573
1788107992178962400,9.02596240234375,6.07365608215332,7.689312934875488,0.15859900414943695
1788107992189061400,9.036061279296876,6.077369213104248,7.686636924743652,0.14571599662303925
1788107992199148300,9.046148193359375,6.082826137542725,7.682468891143799,0.13748900592327118
1788107992209246500,9.05624658203125,6.092113018035889,7.675146102905273,0.13531699776649475
1788107992219336400,9.06633642578125,6.105735778808594,7.664219856262207,0.14043200016021729
1788107992229428000,9.076427978515625,6.123044967651367,7.650205135345459,0.15053099393844604
1788107992239516700,9.0865166015625,6.141445159912109,7.6352128982543945,0.16177700459957123
1788107992249613300,9.09661328125,6.158120155334473,7.621584892272949,0.17025500535964966
1788107992259702000,9.106701904296875,6.170654773712158,7.611344814300537,0.17451700568199158
1788107992269793800,9.116793701171876,6.177810192108154,7.6054840087890625,0.1768770068883896
1788107992279891000,9.126890869140626,6.179535865783691,7.604010105133057,0.17993900179862976
1788107992289982000,9.13698193359375,6.178040027618408,7.605100154876709,0.18513399362564087
1788107992300120800,9.147120849609376,6.1752519607543945,7.607169151306152,0.19295300543308258
1788107992310212400,9.15721240234375,6.172848224639893,7.608809947967529,0.20475000143051147
1788107992320294400,9.16729443359375,6.173035144805908,7.608208179473877,0.22087199985980988
1788107992330387500,9.177387451171874,6.177871227264404,7.603687763214111,0.24046100676059723
1788107992340472300,9.187472412109376,6.187358856201172,7.595277786254883,0.2613770067691803
1788107992350564000,9.197564208984375,6.199610233306885,7.584595203399658,0.2806110084056854
1788107992360659200,9.2076591796875,6.213741779327393,7.5724310874938965,0.29607900977134705
1788107992370749400,9.21774951171875,6.228054046630859,7.560242176055908,0.3066999912261963
1788107992380841000,9.227841064453125,6.2412109375,7.549137115478516,0.312703013420105
1788107992390932200,9.23793212890625,6.252336025238037,7.539670944213867,0.3188759982585907
1788107992401034800,9.24803466796875,6.2616047859191895,7.5315680503845215,0.3282879889011383
1788107992411122000,9.258121826171875,6.2698211669921875,7.524046897888184,0.3435879945755005
1788107992421215000,9.268215087890624,6.279799938201904,7.514555931091309,0.3681820034980774
1788107992431298800,9.278298828125,6.293540954589844,7.501491069793701,0.39872100949287415
1788107992441387500,9.288387451171875,6.310898780822754,7.485013961791992,0.4325369894504547
1788107992451477200,9.298477294921875,6.331805229187012,7.465359210968018,0.4654969871044159
1788107992461553700,9.3085537109375,6.3564581871032715,7.442782878875732,0.4903370141983032
1788107992471650600,9.318650634765625,6.383347034454346,7.418872833251953,0.5032399892807007
1788107992481742800,9.328742919921876,6.4100117683410645,7.395784854888916,0.5040450096130371
1788107992491832600,9.33883251953125,6.434964179992676,7.374705791473389,0.4949420094490051
1788107992501921000,9.348921142578124,6.456284046173096,7.357062816619873,0.4796279966831207
1788107992512016400,9.359016357421876,6.471439838409424,7.344823837280273,0.46263599395751953
1788107992522103600,9.369103515625,6.480409145355225,7.337835788726807,0.44771599769592285
1788107992532197600,9.37919775390625,6.484292030334473,7.335137844085693,0.4355640113353729
1788107992542291000,9.389291015625,6.483323097229004,7.336599826812744,0.4252220094203949
1788107992552387600,9.3993876953125,6.475512981414795,7.344060897827148,0.41535699367523193
1788107992562479900,9.40947998046875,6.459936141967773,7.358403205871582,0.403887003660202
1788107992572574500,9.419574462890624,6.437511920928955,7.378841876983643,0.38869500160217285
1788107992582664700,9.429664794921875,6.410552024841309,7.4031782150268555,0.3711310029029846
1788107992592765400,9.439765380859376,6.380031108856201,7.430405139923096,0.35255399346351624
1788107992602849300,9.449849365234375,6.347698211669922,7.458889007568359,0.3342779874801636
1788107992612950300,9.4599501953125,6.315046787261963,7.487302780151367,0.3170279860496521
1788107992623034600,9.47003466796875,6.284061908721924,7.514011859893799,0.3003630042076111
1788107992633132500,9.480132568359375,6.255702972412109,7.538307189941406,0.2830899953842163
1788107992643218200,9.49021826171875,6.230435848236084,7.559875965118408,0.2644760012626648
1788107992653307100,9.50030712890625,6.208843231201172,7.578350067138672,0.24277399480342865
1788107992663392500,9.510392578125,6.190968990325928,7.593719005584717,0.21749000251293182
1788107992673484000,9.520484130859375,6.176900863647461,7.605899810791016,0.1903419941663742
1788107992683543000,9.53054296875,6.165946960449219,7.615445137023926,0.161654993891716
1788107992693634600,9.540634521484375,6.157107830047607,7.623158931732178,0.13218599557876587
1788107992703738000,9.550738037109374,6.147511959075928,7.631377220153809,0.10099499672651291
1788107992713823700,9.56082373046875,6.134060859680176,7.642574787139893,0.0663670003414154
1788107992723921700,9.570921630859376,6.11483907699585,7.658188819885254,0.02894599922001362
1788107992734034200,9.5810341796875,6.0893731117248535,7.678506851196289,-0.009271999821066856
1788107992744123400,9.591123291015625,6.059986114501953,7.701601028442383,-0.04424599930644035
1788107992754215700,9.601215576171874,6.031198024749756,7.7239460945129395,-0.07283899933099747
1788107992764309200,9.611309326171876,6.0068039894104,7.742681980133057,-0.0960950031876564
1788107992774407200,9.6214072265625,5.987914085388184,7.75705099105835,-0.11443199962377548
1788107992784495900,9.631495849609376,5.974676132202148,7.767024040222168,-0.1288589984178543
1788107992794590000,9.64158984375,5.966259956359863,7.773221015930176,-0.14413699507713318
1788107992804683800,9.651683837890625,5.961216926574707,7.7767109870910645,-0.16329999268054962
1788107992814772200,9.661772216796875,5.956881046295166,7.779478073120117,-0.18790799379348755
1788107992824864800,9.67186474609375,5.952066898345947,7.782392978668213,-0.21739499270915985
1788107992834954500,9.68195458984375,5.947731018066406,7.7847490310668945,-0.24927100539207458
1788107992845049900,9.6920498046875,5.946774005889893,7.784542083740234,-0.27703699469566345
1788107992865235500,9.7122353515625,5.960991859436035,7.772316932678223,-0.31245601177215576
1788107992875325400,9.722325439453124,5.974617004394531,7.761425971984863,-0.3227989971637726
1788107992885420800,9.7324208984375,5.990235805511475,7.749104022979736,-0.3293749988079071
1788107992895499800,9.742499755859376,6.008543968200684,7.734818935394287,-0.3316839933395386
1788107992905593600,9.752593505859375,6.029809951782227,7.718270778656006,-0.3312000036239624
1788107992915687400,9.7626875,6.05026912689209,7.702221870422363,-0.3316290080547333
1788107992925782000,9.772781982421876,6.065976142883301,7.689713001251221,-0.3350149989128113
1788107992935873000,9.782873046875,6.074873924255371,7.682413101196289,-0.3411650061607361
1788107992945960000,9.7929599609375,6.076289176940918,7.680906772613525,-0.349822998046875
1788107992966163200,9.8131630859375,6.055436134338379,7.6969170570373535,-0.3593730032444
1788107992976257800,9.8232578125,6.0335540771484375,7.714231014251709,-0.35617199540138245
1788107992986358300,9.833358154296874,6.004746913909912,7.736999034881592,-0.34910300374031067
1788107992996445000,9.84344482421875,5.970334053039551,7.76400089263916,-0.33973199129104614
1788107993006528800,9.85352880859375,5.934439182281494,7.7919440269470215,-0.3286780118942261
1788107993016621800,9.863621826171874,5.9005231857299805,7.8181538581848145,-0.3166249990463257
1788107993026709200,9.873709228515626,5.873041152954102,7.839392185211182,-0.30219000577926636
1788107993036805000,9.88380517578125,5.855034828186035,7.8535261154174805,-0.28404200077056885
1788107993046890800,9.893890869140625,5.848451137542725,7.8591461181640625,-0.26351600885391235
1788107993056982300,9.903982177734376,5.854059219360352,7.855646133422852,-0.24240699410438538
1788107993067067100,9.914067138671875,5.870456218719482,7.844001770019531,-0.22207100689411163
1788107993077157400,9.924157470703125,5.8954877853393555,7.8257670402526855,-0.20154400169849396
1788107993087235000,9.934235107421875,5.92655611038208,7.80281400680542,-0.179080992937088
1788107993097326300,9.944326416015626,5.960288047790527,7.777622222900391,-0.15352000296115875
1788107993107410200,9.95441015625,5.992372035980225,7.753435134887695,-0.12544399499893188
1788107993117499600,9.964499755859375,6.020462989807129,7.732076168060303,-0.09497799724340439
1788107993127589600,9.974589599609375,6.043296813964844,7.714578151702881,-0.0619329996407032
1788107993137687300,9.984687255859376,6.059844017028809,7.701790809631348,-0.026736000552773476
1788107993147766800,9.994766845703126,6.071602821350098,7.692561149597168,0.011704999953508377
1788107993157854200,10.004854248046875,6.081441879272461,7.6846160888671875,0.052703000605106354
1788107993167938600,10.0149384765625,6.091608047485352,7.676154136657715,0.09471700340509415
1788107993178036200,10.0250361328125,6.104046821594238,7.6656718254089355,0.13454799354076385
1788107993188117000,10.035116943359375,6.119300842285156,7.652756214141846,0.17171399295330048
1788107993198215200,10.045215087890625,6.13771390914917,7.637160778045654,0.20553100109100342
1788107993208300800,10.05530078125,6.159060001373291,7.6191020011901855,0.2351049929857254
1788107993218396000,10.06539599609375,6.182096004486084,7.599623203277588,0.25960999727249146
1788107993228477000,10.075476806640625,6.205084800720215,7.58017110824585,0.2791669964790344
1788107993238569000,10.08556884765625,6.226323127746582,7.562158107757568,0.29441800713539124
1788107993248655400,10.0956552734375,6.242956161499023,7.547969818115234,0.3060219883918762
1788107993258756400,10.10575634765625,6.253631114959717,7.538737773895264,0.31545498967170715
1788107993268837000,10.115837158203124,6.256906032562256,7.535656929016113,0.3240320086479187
1788107993278933000,10.12593310546875,6.252056121826172,7.539337158203125,0.3319590091705322
1788107993289028000,10.136028076171876,6.238922119140625,7.54984712600708,0.34006398916244507
1788107993299118600,10.14611865234375,6.218894958496094,7.5659050941467285,0.3499319851398468
1788107993309217300,10.15621728515625,6.194553852081299,7.5852460861206055,0.3627009987831116
1788107993319307800,10.166307861328125,6.167092800140381,7.606888771057129,0.3771030008792877
1788107993329399000,10.17639892578125,6.138024806976318,7.629545211791992,0.3932810127735138
1788107993339495700,10.18649560546875,6.108938217163086,7.652001857757568,0.409512996673584
1788107993349587500,10.19658740234375,6.079986095428467,7.674269199371338,0.42356300354003906
1788107993359676700,10.2066767578125,6.052104949951172,7.695590972900391,0.4358089864253998
1788107993369772500,10.2167724609375,6.026276111602783,7.715277194976807,0.44554200768470764
1788107993379868000,10.226867919921874,6.001334190368652,7.734270095825195,0.4528070092201233
1788107993389971700,10.2369716796875,5.977171897888184,7.752598762512207,0.45895200967788696
1788107993400055800,10.247055908203125,5.953710079193115,7.770256996154785,0.4652169942855835
1788107993410144000,10.25714404296875,5.931371212005615,7.786742210388184,0.4748289883136749
1788107993420228600,10.267228515625,5.914102077484131,7.798855781555176,0.49116501212120056
1788107993430322000,10.277322021484375,5.90499210357666,7.804531097412109,0.5102310180664062
1788107993440404200,10.287404296875,5.905027866363525,7.803335189819336,0.5278540253639221
1788107993450559500,10.2975595703125,5.914013862609863,7.795575141906738,0.54168301820755
1788107993460649200,10.307649169921875,5.932168006896973,7.781350135803223,0.5476869940757751
1788107993470734800,10.31773486328125,5.958037853240967,7.761734962463379,0.5451909899711609
1788107993480821800,10.32782177734375,5.990694999694824,7.73714017868042,0.5369070172309875
1788107993490923800,10.337923828125,6.027914047241211,7.709134101867676,0.522957980632782
1788107993501008600,10.348008544921875,6.068522930145264,7.678328037261963,0.506309986114502
1788107993511093200,10.35809326171875,6.111874103546143,7.645030975341797,0.48837000131607056
1788107993521187000,10.36818701171875,6.156643867492676,7.61018705368042,0.46985700726509094
1788107993531291000,10.378290771484375,6.201249122619629,7.575015068054199,0.45128101110458374
1788107993541377800,10.388377685546875,6.244640827178955,7.540407180786133,0.43215399980545044
1788107993551501300,10.398501220703125,6.285364151000977,7.507726192474365,0.4101729989051819
1788107993561589200,10.40858935546875,6.3212409019470215,7.478892803192139,0.38481301069259644
1788107993571687200,10.418687255859375,6.351546764373779,7.45465087890625,0.3550010025501251
1788107993581775400,10.428775390625,6.373889923095703,7.437199115753174,0.31873801350593567
1788107993591869200,10.438869140625,6.386174201965332,7.428315162658691,0.27726098895072937
1788107993601960200,10.448960205078125,6.385152816772461,7.430694103240967,0.23375999927520752
1788107993612043500,10.45904345703125,6.368454933166504,7.446256160736084,0.18990400433540344
1788107993622131000,10.469130859375,6.335146903991699,7.475527763366699,0.14951500296592712
1788107993632231200,10.479231201171874,6.285968780517578,7.517510890960693,0.11674699932336807
1788107993642319600,10.489319580078124,6.223546981811523,7.569608211517334,0.09224999696016312
1788107993652416000,10.499416015625,6.152660846710205,7.627525806427002,0.07472699880599976
1788107993662506000,10.509506103515625,6.078203201293945,7.6871018409729,0.06267700344324112
1788107993672593200,10.51959326171875,6.006295204162598,7.743464946746826,0.056042999029159546
1788107993682684200,10.52968408203125,5.9428582191467285,7.792288780212402,0.05182600021362305
1788107993692779000,10.539779052734374,5.893396854400635,7.829792022705078,0.047680001705884933
1788107993702870000,10.5498701171875,5.861950874328613,7.853395938873291,0.041140999644994736
1788107993712965400,10.55996533203125,5.849567890167236,7.862680912017822,0.028641000390052795
1788107993723051000,10.570051025390624,5.852503776550293,7.860538005828857,0.011389999650418758
1788107993733142300,10.580142333984375,5.867308139801025,7.849499225616455,-0.009785999543964863
1788107993743236000,10.590236083984376,5.887784957885742,7.834083080291748,-0.03328799828886986
1788107993753332700,10.600332763671876,5.909574031829834,7.817523002624512,-0.05758199840784073
1788107993763421700,10.610421630859374,5.92879581451416,7.802759170532227,-0.07983999699354172
1788107993773507000,10.620507080078125,5.944169044494629,7.7908430099487305,-0.09811899811029434
1788107993783603200,10.630603271484375,5.954408168792725,7.782834053039551,-0.11190900206565857
1788107993793701400,10.640701416015625,5.961059093475342,7.777620792388916,-0.11987300217151642
1788107993803794200,10.650794189453125,5.96647310256958,7.7734198570251465,-0.12290699779987335
1788107993813885400,10.660885498046875,5.970943927764893,7.769990921020508,-0.12264800071716309
1788107993823975400,10.670975341796876,5.9721150398254395,7.769121170043945,-0.12077599763870239
1788107993834065200,10.681065185546874,5.96805477142334,7.772274017333984,-0.1186780035495758
1788107993844157200,10.6911572265625,5.959778785705566,7.778625965118408,-0.1181740015745163
1788107993864345000,10.711344970703125,5.945547103881836,7.7894439697265625,-0.12265899777412415
1788107993874435600,10.721435546875,5.9478349685668945,7.787638187408447,-0.12632699310779572
1788107993884531500,10.731531494140626,5.961942195892334,7.776802062988281,-0.12886199355125427
1788107993894629000,10.741629150390626,5.9878129959106445,7.756858825683594,-0.13131700456142426
1788107993904719400,10.75171923828125,6.025965213775635,7.727176189422607,-0.13595999777317047
1788107993914801700,10.7618017578125,6.075060844421387,7.688502788543701,-0.14321699738502502
1788107993924893000,10.771892822265626,6.131509780883789,7.6433892250061035,-0.1525000035762787
1788107993934979800,10.781979736328125,6.190354824066162,7.595524787902832,-0.16588899493217468
1788107993945068800,10.79206884765625,6.247379779815674,7.54828405380249,-0.18330499529838562
1788107993955159000,10.802158935546874,6.300795078277588,7.503286838531494,-0.2017900049686432
1788107993965257500,10.812257568359374,6.348811149597168,7.46223783493042,-0.21814200282096863
1788107993975350800,10.822350830078125,6.392518997192383,7.424532890319824,-0.22796300053596497
1788107993985444600,10.832444580078125,6.434926986694336,7.387842178344727,-0.22691699862480164
1788107993995540700,10.842540771484375,6.4780731201171875,7.350339889526367,-0.21695399284362793
1788107994005636000,10.852635986328124,6.522398948669434,7.311481952667236,-0.20123499631881714
1788107994015730700,10.862730712890626,6.565090179443359,7.2736029624938965,-0.1850470006465912
1788107994025830100,10.872830078125,6.602700233459473,7.2398200035095215,-0.17125800251960754
1788107994035921400,10.88292138671875,6.63300895690918,7.212328910827637,-0.15960699319839478
1788107994046015200,10.89301513671875,6.65703821182251,7.190408229827881,-0.14786399900913239
1788107994056112400,10.9031123046875,6.6784281730651855,7.170831203460693,-0.13336299359798431
1788107994066208500,10.91320849609375,6.701694965362549,7.149415969848633,-0.11472699791193008
1788107994076305700,10.9233056640625,6.72979211807251,7.123294830322266,-0.09281499683856964
1788107994086399000,10.93339892578125,6.764358997344971,7.090732097625732,-0.07085199654102325
1788107994096482800,10.94348291015625,6.80422306060791,7.0526580810546875,-0.05018400028347969
1788107994106581500,10.95358154296875,6.848618984222412,7.009666919708252,-0.03187299892306328
1788107994116669400,10.96366943359375,6.897599220275879,6.961526870727539,-0.017782999202609062
1788107994126756900,10.9737568359375,6.954789161682129,6.9043989181518555,-0.012807999737560749
1788107994136845300,10.98384521484375,7.018669128417969,6.8394551277160645,-0.013651000335812569
1788107994146937300,10.993937255859375,7.089122772216797,6.766385078430176,-0.020924000069499016
1788107994157026600,11.004026611328126,7.163876056671143,6.687138080596924,-0.032395001500844955
1788107994167116300,11.0141162109375,7.240238189697266,6.604322910308838,-0.04370899870991707
1788107994177202000,11.024201904296875,7.315083980560303,6.521238803863525,-0.05539900064468384
1788107994187297500,11.034297607421875,7.385984897613525,6.440738201141357,-0.0641380026936531
1788107994197383000,11.0443828125,7.452333927154541,6.363856792449951,-0.06410600244998932
1788107994207478300,11.054478271484374,7.514429092407227,6.290528774261475,-0.0503540001809597
1788107994217570300,11.0645703125,7.571649074554443,6.221714973449707,-0.020437000319361687
1788107994227668500,11.07466845703125,7.624094009399414,6.157310962677002,0.02658100053668022
1788107994237747700,11.084747802734375,7.672946929931641,6.0957489013671875,0.08779300004243851
1788107994247839500,11.094839599609376,7.720030784606934,6.034499168395996,0.16090400516986847
1788107994257920500,11.10492041015625,7.767815113067627,5.97009801864624,0.24283500015735626
1788107994268020500,11.1150205078125,7.81976318359375,5.897707939147949,0.3290640115737915
1788107994278101000,11.12510107421875,7.877810955047607,5.814662933349609,0.4120360016822815
1788107994288198000,11.135197998046875,7.942355155944824,5.7203450202941895,0.48649701476097107
1788107994298283500,11.145283447265625,8.012598037719727,5.615660190582275,0.5501070022583008
1788107994308375300,11.155375244140625,8.085805892944336,5.504313945770264,0.6018660068511963
1788107994318460200,11.165460205078125,8.15598201751709,5.394996166229248,0.6434080004692078
1788107994328561000,11.175560791015625,8.216926574707031,5.297347068786621,0.678380012512207
1788107994338655200,11.1856552734375,8.263274192810059,5.220634937286377,0.7094219923019409
1788107994348751000,11.195751220703125,8.292834281921387,5.169589996337891,0.737716019153595
1788107994358835700,11.205835693359376,8.306371688842773,5.143902778625488,0.764490008354187
1788107994368928800,11.2159287109375,8.305784225463867,5.140436172485352,0.7936710119247437
1788107994379020300,11.226020263671876,8.293601036071777,5.155395984649658,0.8234750032424927
1788107994389112800,11.23611279296875,8.273933410644531,5.182679176330566,0.849590003490448
1788107994399210500,11.24621044921875,8.251497268676758,5.215432167053223,0.8672009706497192
1788107994409308000,11.256307861328125,8.22895622253418,5.249833106994629,0.8737919926643372
1788107994419400200,11.266400146484376,8.205668449401855,5.2867112159729,0.8704500198364258
1788107994429492700,11.27649267578125,8.179213523864746,5.329590797424316,0.8578670024871826
1788107994439585000,11.2865849609375,8.146918296813965,5.381943225860596,0.8380770087242126
1788107994449681700,11.296681640625,8.107206344604492,5.445503234863281,0.8122159838676453
1788107994459772200,11.306772216796874,8.060381889343262,5.519121170043945,0.7807790040969849
1788107994469864000,11.316864013671875,8.0086669921875,5.598504066467285,0.746973991394043
1788107994479952600,11.32695263671875,7.95654296875,5.676890850067139,0.7115859985351562
1788107994490035500,11.337035400390626,7.909392833709717,5.746687889099121,0.6760510206222534
1788107994500128000,11.3471279296875,7.872228145599365,5.801702976226807,0.6389700174331665
1788107994510217700,11.3572177734375,7.8482232093811035,5.838470935821533,0.5980560183525085
1788107994520310000,11.36731005859375,7.838571071624756,5.855939865112305,0.5521199703216553
1788107994530401000,11.377401123046875,7.841426849365234,5.856947898864746,0.4981740117073059
1788107994540496600,11.38749658203125,7.853499889373779,5.845954895019531,0.432779997587204
1788107994550589200,11.397589111328125,7.8714599609375,5.827057838439941,0.35431399941444397
1788107994560679400,11.407679443359376,7.890219211578369,5.806552886962891,0.26142698526382446
1788107994570772000,11.41777197265625,7.903077125549316,5.792942047119141,0.15228700637817383
1788107994580852700,11.427852783203125,7.902851104736328,5.795176029205322,0.030295999720692635
1788107994590946300,11.4379462890625,7.884496212005615,5.8194050788879395,-0.09596200287342072
1788107994601044000,11.4480439453125,7.847027778625488,5.866519927978516,-0.21934300661087036
1788107994611133700,11.4581337890625,7.790953159332275,5.935393810272217,-0.3349190056324005
1788107994621227500,11.4682275390625,7.716364860534668,6.025300979614258,-0.43981099128723145
1788107994631318800,11.47831884765625,7.624407768249512,6.133856773376465,-0.5330550074577332
1788107994641404200,11.488404052734374,7.516945838928223,6.257796764373779,-0.6128069758415222
1788107994651494700,11.49849462890625,7.398365020751953,6.391020774841309,-0.6775010228157043
1788107994661582300,11.508582275390625,7.274073123931885,6.526856899261475,-0.7266409993171692
1788107994671676400,11.518676513671876,7.148745059967041,6.659739017486572,-0.7637799978256226
1788107994681757200,11.528757080078124,7.027556896209717,6.784073829650879,-0.7935929894447327
1788107994691849700,11.538849609375,6.914791107177734,6.895823955535889,-0.8205440044403076
1788107994701939000,11.54893896484375,6.815293788909912,6.9909210205078125,-0.847823977470398
1788107994712026000,11.559026123046875,6.732309818267822,7.0674967765808105,-0.8754739761352539
1788107994722112800,11.56911279296875,6.6673359870910645,7.1253437995910645,-0.9033979773521423
1788107994732210200,11.579210205078125,6.622900009155273,7.163208961486816,-0.9304050207138062
1788107994742303700,11.5893037109375,6.6012282371521,7.179452896118164,-0.9587939977645874
1788107994752394500,11.59939453125,6.599262237548828,7.177190780639648,-0.988752007484436
1788107994762484500,11.609484375,6.609154224395752,7.163887977600098,-1.0187100172042847
1788107994772574200,11.61957421875,6.623688220977783,7.146856784820557,-1.0436140298843384
1788107994782667300,11.629667236328125,6.637534141540527,7.131977081298828,-1.057366967201233
1788107994792764700,11.6397646484375,6.648512840270996,7.121825218200684,-1.0568089485168457
1788107994802848300,11.64984814453125,6.65526008605957,7.11801290512085,-1.0399019718170166
1788107994812941800,11.65994189453125,6.657660961151123,7.1204328536987305,-1.0074670314788818
1788107994823028500,11.670028564453125,6.657077789306641,7.126938819885254,-0.964402973651886
1788107994833122300,11.680122314453126,6.653622150421143,7.136744022369385,-0.9144459962844849
1788107994843212000,11.6902119140625,6.649162769317627,7.147849082946777,-0.8584330081939697
1788107994853306400,11.700306396484375,6.645575046539307,7.158352851867676,-0.7964569926261902
1788107994863392300,11.710392333984375,6.644921779632568,7.165939807891846,-0.7309569716453552
1788107994873488400,11.72048828125,6.6491851806640625,7.168426990509033,-0.664808988571167
1788107994883574300,11.73057421875,6.658570766448975,7.165128231048584,-0.6036139726638794
1788107994893669600,11.740669677734376,6.671647071838379,7.157273769378662,-0.5500590205192566
1788107994903755500,11.750755615234375,6.686212062835693,7.147021770477295,-0.5046280026435852
1788107994913849300,11.760849365234375,6.701401233673096,7.135494232177734,-0.46463799476623535
1788107994923939600,11.770939697265625,6.717083930969238,7.123072147369385,-0.42736101150512695
1788107994934030800,11.78103076171875,6.733979225158691,7.1092329025268555,-0.39033401012420654
1788107994944122400,11.791122314453125,6.752707004547119,7.093448162078857,-0.35201001167297363
1788107994954221000,11.801220947265625,6.77399206161499,7.075101852416992,-0.30978500843048096
1788107994964313600,11.811313720703126,6.79783821105957,7.054074764251709,-0.2633630037307739
1788107994974410200,11.82141015625,6.826201915740967,7.028250217437744,-0.21600699424743652
1788107994984493300,11.831493408203125,6.860260963439941,6.996208190917969,-0.17279799282550812
1788107994994588200,11.841588134765624,6.901369094848633,6.956457138061523,-0.13722999393939972
1788107995004684300,11.851684326171876,6.949522972106934,6.9088311195373535,-0.11034700274467468
1788107995014776600,11.861776611328125,7.003212928771973,6.854714870452881,-0.08859200030565262
1788107995024867300,11.871867431640625,7.060297966003418,6.796144008636475,-0.06781099736690521
1788107995034960000,11.8819599609375,7.1172308921813965,6.736694812774658,-0.04464000090956688
1788107995045058300,11.892058349609375,7.171227931976318,6.679318904876709,-0.01423799991607666
1788107995055146500,11.902146484375,7.219821929931641,6.626729965209961,0.024935999885201454
1788107995065244000,11.912243896484375,7.263179779052734,6.578801155090332,0.07483299821615219
1788107995075328800,11.922328857421874,7.302848815917969,6.533790111541748,0.13416600227355957
1788107995085427200,11.93242724609375,7.342922210693359,6.4870758056640625,0.1983029991388321
1788107995095512600,11.9425126953125,7.386630058288574,6.434916973114014,0.2636969983577728
1788107995105613300,11.95261328125,7.437129974365234,6.373367786407471,0.3305160105228424
1788107995115697400,11.962697509765626,7.498819828033447,6.296326160430908,0.40498799085617065
1788107995125784300,11.972784423828125,7.57710599899292,6.196100234985352,0.48563501238822937
1788107995135875300,11.982875244140626,7.671605110168457,6.071825981140137,0.565106987953186
1788107995145968000,11.992968017578125,7.777699947357178,5.92733907699585,0.6434820294380188
1788107995156059100,12.00305908203125,7.887899875640869,5.771338939666748,0.716048002243042
1788107995166157000,12.013156982421876,7.9895501136779785,5.619231224060059,0.7945749759674072
1788107995176247800,12.023247802734375,8.071869850158691,5.482128143310547,0.9117079973220825
1788107995186347000,12.033346923828125,8.136547088623047,5.3561577796936035,1.0715299844741821
1788107995196434200,12.04343408203125,8.195101737976074,5.226215839385986,1.2517850399017334
1788107995206519600,12.05351953125,8.261445999145508,5.077362060546875,1.4173500537872314
1788107995216614400,12.063614501953126,8.346674919128418,4.899578094482422,1.5385700464248657
1788107995226706400,12.07370654296875,8.455022811889648,4.691882133483887,1.5933619737625122
1788107995236791800,12.083791748046876,8.583776473999023,4.459230899810791,1.5729119777679443
1788107995246888400,12.093888427734376,8.720526695251465,4.218395233154297,1.4824090003967285
1788107995256973600,12.1039736328125,8.844380378723145,4.0000691413879395,1.3477189540863037
1788107995267061500,12.1140615234375,8.939726829528809,3.8345229625701904,1.1906689405441284
1788107995277148000,12.12414794921875,8.996125221252441,3.7453041076660156,1.040403962135315
1788107995287241500,12.134241455078126,9.009252548217773,3.7475130558013916,0.9107779860496521
1788107995297331000,12.1443310546875,8.979278564453125,3.840214967727661,0.8156499862670898
1788107995307414300,12.154414306640625,8.910442352294922,4.007715225219727,0.7630419731140137
1788107995317503700,12.164503662109375,8.81262493133545,4.219507217407227,0.7572550177574158
1788107995327600000,12.17460009765625,8.697903633117676,4.445196151733398,0.7916859984397888
1788107995337692700,12.184692626953124,8.580438613891602,4.658699035644531,0.8441759943962097
1788107995347792000,12.1947919921875,8.472010612487793,4.845890045166016,0.8844810128211975
1788107995357879600,12.204879638671875,8.381647109985352,4.998990058898926,0.89335697889328
1788107995367975400,12.214975341796874,8.31159782409668,5.1192779541015625,0.8662369847297668
1788107995378068700,12.22506884765625,8.260366439819336,5.210803985595703,0.8086119890213013
1788107995388167400,12.23516748046875,8.223043441772461,5.2812042236328125,0.7282789945602417
1788107995398256000,12.245256103515626,8.194191932678223,5.337550163269043,0.6369789838790894
1788107995408351700,12.255351806640626,8.16719913482666,5.389280796051025,0.5408660173416138
1788107995418442800,12.26544287109375,8.136009216308594,5.444711208343506,0.44771599769592285
1788107995428532500,12.275532470703125,8.096144676208496,5.510229110717773,0.36030301451683044
1788107995438625000,12.285625,8.045103073120117,5.589017868041992,0.28144899010658264
1788107995448727600,12.2957275390625,7.983448028564453,5.679603099822998,0.21599900722503662
1788107995458825000,12.305824951171875,7.915410995483398,5.775720119476318,0.16526399552822113
1788107995468921600,12.315921630859375,7.845789909362793,5.870904922485352,0.126801997423172
1788107995479010600,12.326010498046875,7.780674934387207,5.957437992095947,0.10043899714946747
1788107995489105700,12.336105712890625,7.726669788360596,6.027556896209717,0.08413899689912796
1788107995499198200,12.3461982421875,7.689093112945557,6.0755791664123535,0.07212699949741364
1788107995509290000,12.3562900390625,7.669588088989258,6.100315093994141,0.05965999886393547
1788107995519375000,12.366375,7.669530868530273,6.100492000579834,0.047793999314308167
1788107995529472500,12.376472412109376,7.689777851104736,6.074993133544922,0.04185299947857857
1788107995539556400,12.386556396484375,7.729580879211426,6.024241924285889,0.04633200168609619
1788107995549647400,12.3966474609375,7.7885589599609375,5.947656154632568,0.061110999435186386
1788107995559739400,12.406739501953124,7.865359783172607,5.845455169677734,0.08212299644947052
1788107995569836300,12.416836181640624,7.955851078033447,5.721277236938477,0.10657099634408951
1788107995579923500,12.42692333984375,8.054356575012207,5.581182956695557,0.13311900198459625
1788107995590014500,12.437014404296875,8.154900550842285,5.432602882385254,0.15625900030136108
1788107995600101600,12.4471015625,8.252477645874023,5.282761096954346,0.17049700021743774
1788107995610194000,12.45719384765625,8.34460163116455,5.135969161987305,0.1714790016412735
1788107995620300800,12.46730078125,8.429290771484375,4.996121883392334,0.16082000732421875
1788107995630393000,12.47739306640625,8.503881454467773,4.868581771850586,0.14477799832820892
1788107995640483800,12.48748388671875,8.566061019897461,4.758768081665039,0.12932300567626953
1788107995650567700,12.497567626953124,8.614300727844238,4.671165943145752,0.11852800101041794
1788107995660660000,12.507659912109375,8.650321006774902,4.604241847991943,0.11383800208568573
1788107995670748700,12.517748779296875,8.677730560302734,4.552393913269043,0.11256399750709534
1788107995680838000,12.527837890625,8.699328422546387,4.511047840118408,0.11026400327682495
1788107995690933200,12.537933349609375,8.716376304626465,4.478206157684326,0.10225799679756165
1788107995701023000,12.54802294921875,8.730433464050293,4.451108932495117,0.08463700115680695
1788107995711120000,12.558119873046875,8.742683410644531,4.42741584777832,0.058649998158216476
1788107995721208800,12.568208740234375,8.754046440124512,4.405198097229004,0.029982000589370728
1788107995731298600,12.578298583984376,8.765159606933594,4.383149147033691,0.004315999802201986
1788107995741390800,12.588390869140625,8.775923728942871,4.361514091491699,-0.017875000834465027
1788107995751485000,12.59848486328125,8.784757614135742,4.34356689453125,-0.037356000393629074
1788107995761569000,12.608569091796875,8.791053771972656,4.33064079284668,-0.054051999002695084
1788107995771667000,12.6186669921875,8.795536041259766,4.321300983428955,-0.06973599642515182
1788107995781761000,12.628760986328125,8.798304557800293,4.315340042114258,-0.08763600140810013
1788107995791849700,12.638849609375,8.79931354522705,4.312759876251221,-0.11006899923086166
1788107995801939700,12.648939697265625,8.797657012939453,4.315352916717529,-0.1377509981393814
1788107995812034300,12.659034423828125,8.793112754821777,4.323678016662598,-0.16431200504302979
1788107995822119000,12.669118896484376,8.784749984741211,4.339698791503906,-0.18755599856376648
1788107995832210000,12.6792099609375,8.771015167236328,4.366543769836426,-0.20653900504112244
1788107995842300200,12.689300048828125,8.750475883483887,4.406935214996338,-0.21931299567222595
1788107995852399600,12.699399658203125,8.723466873168945,4.4599738121032715,-0.2230750024318695
1788107995862490600,12.70949072265625,8.69214916229248,4.52108097076416,-0.21530500054359436
1788107995872576000,12.719575927734375,8.658929824829102,4.585178852081299,-0.19780999422073364
1788107995882668300,12.729668212890624,8.625930786132812,4.647970199584961,-0.172108992934227
1788107995892769800,12.739769775390625,8.596038818359375,4.704047203063965,-0.14150099456310272
1788107995902855700,12.749855712890625,8.571073532104492,4.750147819519043,-0.11300300061702728
1788107995912946400,12.759946533203125,8.55040454864502,4.787714004516602,-0.0917700007557869
1788107995923045400,12.77004541015625,8.533106803894043,4.818709850311279,-0.07780399918556213
1788107995933142300,12.780142333984376,8.518973350524902,4.84377908706665,-0.0701339989900589
1788107995943241000,12.790240966796874,8.507376670837402,4.8642120361328125,-0.06348200142383575
1788107995953335300,12.800335205078126,8.497965812683105,4.880749225616455,-0.05279900133609772
1788107995963425000,12.810425048828124,8.490347862243652,4.894147872924805,-0.03598500043153763
1788107995973513500,12.820513427734374,8.484712600708008,4.904026031494141,-0.013744000345468521
1788107995983601700,12.8306015625,8.481142044067383,4.910204887390137,0.009983999654650688
1788107995993689900,12.84068994140625,8.479401588439941,4.9131178855896,0.03124300017952919
1788107996003777300,12.85077734375,8.478933334350586,4.913797855377197,0.04693400114774704
1788107996013870600,12.86087060546875,8.478642463684082,4.914207935333252,0.05711200088262558
1788107996023952100,12.8709521484375,8.477266311645508,4.916502952575684,0.0631449967622757
1788107996034041000,12.881041015625,8.47250747680664,4.924647808074951,0.0667319968342781
1788107996044126200,12.891126220703125,8.461791038513184,4.943004131317139,0.06946200132369995
1788107996054221800,12.901221923828125,8.443516731262207,4.9740681648254395,0.07544700056314468
1788107996064313900,12.91131396484375,8.41875171661377,5.015664100646973,0.08774799853563309
1788107996074409000,12.921408935546875,8.389915466308594,5.063394069671631,0.10638900101184845
1788107996084490200,12.931490234375,8.360705375671387,5.110940933227539,0.13014599680900574
1788107996094587600,12.941587646484376,8.334659576416016,5.1525959968566895,0.1553249955177307
1788107996104690200,12.951690185546875,8.314605712890625,5.184173107147217,0.17799200117588043
1788107996114780400,12.961780517578125,8.301426887512207,5.20468282699585,0.1940159946680069
1788107996124878600,12.971878662109376,8.294642448425293,5.215223789215088,0.2007260024547577
1788107996134968000,12.981968017578126,8.291687965393066,5.22006893157959,0.19692300260066986
1788107996145068300,12.992068359375,8.288748741149902,5.225150108337402,0.1856060028076172
1788107996155163000,13.002162841796874,8.283685684204102,5.233606815338135,0.17293399572372437
1788107996165261800,13.01226171875,8.275775909423828,5.2463297843933105,0.16618500649929047
1788107996175353600,13.022353515625,8.264809608459473,5.263472080230713,0.16968700289726257
1788107996185445600,13.032445556640624,8.250799179077148,5.285068988800049,0.1797959953546524
1788107996195541000,13.042541015625,8.234355926513672,5.310208797454834,0.19255200028419495
1788107996205640400,13.052640380859375,8.21707820892334,5.336429119110107,0.2053299993276596
1788107996215739400,13.062739501953125,8.199874877929688,5.362403869628906,0.21601200103759766
1788107996225836000,13.0728359375,8.183425903320312,5.387126922607422,0.22442099452018738
1788107996235925000,13.082925048828125,8.168375015258789,5.409620761871338,0.23158599436283112
1788107996246021600,13.093021728515625,8.154952049255371,5.429524898529053,0.23869900405406952
1788107996256116500,13.103116455078125,8.143608093261719,5.446315765380859,0.24361500144004822
1788107996266219800,13.1132197265625,8.133902549743652,5.460696220397949,0.24575099349021912
1788107996276311800,13.123311767578125,8.125558853149414,5.473120212554932,0.24535800516605377
1788107996286408400,13.133408447265625,8.11703109741211,5.485905170440674,0.24218499660491943
1788107996296491000,13.143490966796875,8.107217788696289,5.500606060028076,0.2373500019311905
1788107996306582500,13.15358251953125,8.095219612121582,5.518442153930664,0.23267599940299988
1788107996316670500,13.16367041015625,8.081188201904297,5.539107799530029,0.2295220047235489
1788107996326766000,13.17376611328125,8.06603717803955,5.561223983764648,0.22763900458812714
1788107996336853200,13.183853271484375,8.05044937133789,5.583858013153076,0.22530700266361237
1788107996346946000,13.193946044921875,8.034059524536133,5.60751485824585,0.22270600497722626
1788107996357028400,13.2040283203125,8.017101287841797,5.63186502456665,0.21957799792289734
1788107996367123200,13.214123291015625,7.999350070953369,5.657267093658447,0.21391700208187103
1788107996377209000,13.224208984375,7.980629920959473,5.683859825134277,0.20790499448776245
1788107996387302400,13.234302490234375,7.961546897888184,5.7107930183410645,0.20150600373744965
1788107996397384000,13.244384033203126,7.94307279586792,5.736739158630371,0.19354499876499176
1788107996407481900,13.25448193359375,7.924861907958984,5.762166976928711,0.1845649927854538
1788107996417568800,13.26456884765625,7.906346797943115,5.787783145904541,0.17661599814891815
1788107996427660300,13.274660400390625,7.887021064758301,5.81430196762085,0.16981500387191772
1788107996437748000,13.284748046875,7.867891788482666,5.840307235717773,0.16473999619483948
