time,seconds_elapsed,z,y,x
1788107983275530800,0.12253076171875,0.15097500383853912,-0.3628624975681305,-0.13296249508857727
1788107983285625300,0.132625244140625,0.20721249282360077,0.07204999774694443,-0.17943750321865082
1788107983295720700,0.142720703125,0.27197501063346863,0.5119125247001648,-0.1989624947309494
1788107983315895800,0.162895751953125,0.31597501039505005,1.2339249849319458,-0.1354375034570694
1788107983336074800,0.18307470703125,0.1522125005722046,1.3695000410079956,-0.14024999737739563
1788107983346172400,0.19317236328125,-0.011412499472498894,1.0726374387741089,-0.2527250051498413
1788107983356259800,0.203259765625,-0.24117499589920044,0.5875374674797058,-0.3772999942302704
1788107983376444400,0.2234443359375,-0.4890874922275543,-0.34581249952316284,-0.5740625262260437
1788107983386533400,0.233533447265625,-0.4390375018119812,-0.5436750054359436,-0.6155874729156494
1788107983396623600,0.24362353515625,-0.25946250557899475,-0.634149968624115,-0.6058250069618225
1788107983406726000,0.253725830078125,-0.03217500075697899,-0.6059625148773193,-0.4848249852657318
1788107983416816000,0.263816162109375,0.18768750131130219,-0.5669124722480774,-0.306487500667572
1788107983426912800,0.273912841796875,0.3465000092983246,-0.4716250002384186,-0.11343749612569809
1788107983437003800,0.284003662109375,0.3722124993801117,-0.3665750026702881,0.09913749992847443
1788107983447099000,0.294098876953125,0.29768750071525574,-0.41786250472068787,0.23966249823570251
1788107983457199000,0.30419921875,0.24626250565052032,-0.64638751745224,0.27623748779296875
1788107983467292400,0.31429248046875,0.20239999890327454,-0.8857749700546265,0.21642500162124634
1788107983477384400,0.324384521484375,0.12292499840259552,-1.014062523841858,0.10284999758005142
1788107983487475200,0.33447509765625,-0.004124999977648258,-1.02753746509552,-0.03162499889731407
1788107983497586200,0.344586181640625,-0.17998750507831573,-0.9982500076293945,-0.14891250431537628
1788107983507681800,0.354681884765625,-0.3254624903202057,-0.9248250126838684,-0.2662000060081482
1788107983517780500,0.364780517578125,-0.37674999237060547,-0.7429124712944031,-0.3235374987125397
1788107983527874600,0.37487451171875,-0.3817000091075897,-0.49114999175071716,-0.3199625015258789
1788107983537968400,0.384968505859375,-0.3718000054359436,-0.3750999867916107,-0.28929999470710754
1788107983548064300,0.395064208984375,-0.34869998693466187,-0.5046250224113464,-0.26496249437332153
1788107983558160000,0.405159912109375,-0.2924624979496002,-0.7429124712944031,-0.18301250040531158
1788107983568256800,0.4152568359375,-0.23017500340938568,-1.0421124696731567,0.013612499460577965
1788107983578353000,0.425352783203125,-0.21422499418258667,-1.4159749746322632,0.25423750281333923
1788107983588439300,0.435439208984375,-0.19470000267028809,-1.8460749387741089,0.5328124761581421
1788107983598563800,0.445563720703125,-0.09941250085830688,-2.117224931716919,0.7796249985694885
1788107983608657400,0.455657470703125,0.019112499430775642,-2.0146501064300537,0.8920999765396118
1788107983618753000,0.4657529296875,0.08016250282526016,-1.7360750436782837,0.9359624981880188
1788107983628841700,0.475841796875,0.07039999961853027,-1.2913999557495117,0.8993874788284302
1788107983638943000,0.48594287109375,0.006874999962747097,-0.7624375224113464,0.8406749963760376
1788107983649034000,0.496033935546875,-0.11769999563694,-0.17723749577999115,0.75638747215271
1788107983659119600,0.50611962890625,-0.2827000021934509,0.05486249923706055,0.6135249733924866
1788107983669214000,0.5162138671875,-0.38046249747276306,0.07686249911785126,0.39118748903274536
1788107983679298800,0.526298828125,-0.07741250097751617,-0.16981250047683716,0.15537500381469727
1788107983689398000,0.53639794921875,0.3965499997138977,-0.45938751101493835,0.04908749833703041
1788107983709604600,0.5566044921875,0.49678748846054077,-0.34581249952316284,0.0013749999925494194
1788107983719697000,0.56669677734375,0.521262526512146,-0.2040500044822693,0.10766249895095825
1788107983729792500,0.57679248046875,0.4992625117301941,-0.14547500014305115,0.26413750648498535
1788107983739871200,0.586871337890625,0.39531248807907104,-0.002474999986588955,0.37894999980926514
1788107983749965000,0.596965087890625,0.28049999475479126,0.0635249987244606,0.3801875114440918
1788107983760059400,0.607059326171875,0.27568748593330383,-0.07095000147819519,0.3422375023365021
1788107983770151200,0.617151123046875,0.3624500036239624,-0.25052499771118164,0.33976250886917114
1788107983780237300,0.6272373046875,0.5200250148773193,-0.3152875006198883,0.41676250100135803
1788107983790327000,0.6373271484375,0.722837507724762,-0.16376249492168427,0.5230500102043152
1788107983800414200,0.647414306640625,0.7986000180244446,0.10628750175237656,0.6050000190734863
1788107983810504000,0.65750390625,0.7215999960899353,0.22481249272823334,0.6586250066757202
1788107983820591900,0.667591796875,0.731362521648407,0.018287500366568565,0.6978124976158142
1788107983830685000,0.677684814453125,0.8962249755859375,-0.0929500013589859,0.6305750012397766
1788107983840776000,0.68777587890625,1.1112749576568604,-0.13571250438690186,0.6220499873161316
1788107983850871800,0.697871826171875,1.295799970626831,-0.08923749625682831,0.6575250029563904
1788107983860950800,0.70795068359375,1.378849983215332,-0.01223750039935112,0.685575008392334
1788107983871044600,0.718044677734375,1.3605624437332153,0.030524998903274536,0.7148625254631042
1788107983881137400,0.728137451171875,1.2676124572753906,0.047575000673532486,0.7210500240325928
1788107983891231500,0.7382314453125,1.1137499809265137,-0.02694999985396862,0.6990500092506409
1788107983901321000,0.748321044921875,0.9476500153541565,-0.20528750121593475,0.6586250066757202
1788107983911415800,0.758415771484375,0.7643625140190125,-0.32862499356269836,0.5853375196456909
1788107983921501000,0.7685009765625,0.4992625117301941,-0.29452499747276306,0.43505001068115234
1788107983931583200,0.778583251953125,0.23526249825954437,-0.17957499623298645,0.25066250562667847
1788107983941675500,0.788675537109375,0.0826374962925911,0.025575000792741776,0.13461250066757202
1788107983951772700,0.798772705078125,0.06063750013709068,0.10986249893903732,0.08208750188350677
1788107983961856500,0.8088564453125,0.14863750338554382,0.13928750157356262,0.10284999758005142
1788107983971950600,0.81895068359375,0.259737491607666,0.11110000312328339,0.15537500381469727
1788107983982037000,0.829037109375,0.2989250123500824,0.1685750037431717,0.15537500381469727
1788107983992121300,0.839121337890625,0.3562625050544739,0.4996750056743622,-0.002199999988079071
1788107984002212000,0.849212158203125,0.5700749754905701,1.120212435722351,-0.2124374955892563
1788107984012306700,0.859306640625,0.6653624773025513,1.0836374759674072,-0.2209624946117401
1788107984022390300,0.869390380859375,0.6055499911308289,0.9015874862670898,-0.14024999737739563
1788107984032487200,0.879487060546875,0.4100250005722046,0.8075374960899353,-0.027912499383091927
1788107984042573000,0.889572998046875,0.3562625050544739,0.7220125198364258,0.1504250019788742
1788107984052674800,0.8996748046875,0.3782624900341034,0.6010124683380127,0.2689499855041504
1788107984062758400,0.90975830078125,0.35144999623298645,0.43738749623298645,0.3349500000476837
1788107984072853200,0.919853271484375,0.254925012588501,0.3176249861717224,0.3777124881744385
1788107984082948400,0.9299482421875,0.15839999914169312,0.25891250371932983,0.4045250117778778
1788107984093040000,0.9400400390625,0.0826374962925911,0.23333749175071716,0.4460499882698059
1788107984103156200,0.95015625,0.011824999935925007,0.2003374993801117,0.5328124761581421
1788107984113251800,0.960251953125,-0.04193750023841858,0.1648624986410141,0.6403374671936035
1788107984123330600,0.97033056640625,-0.06517499685287476,0.16005000472068787,0.7185750007629395
1788107984133425200,0.980425048828125,-0.07259999960660934,0.19415000081062317,0.729574978351593
1788107984143516000,0.990515869140625,-0.0859375,0.21615000069141388,0.6892874836921692
1788107984153606100,1.000606201171875,-0.09817499667406082,0.2283875048160553,0.637862503528595
1788107984163703800,1.010703857421875,-0.0835999995470047,0.21615000069141388,0.6000499725341797
1788107984173794600,1.020794677734375,-0.055412501096725464,0.18809999525547028,0.5707625150680542
1788107984183884000,1.030884033203125,-0.020075000822544098,0.19910000264644623,0.5292375087738037
1788107984193976800,1.040976806640625,-0.0004124999977648258,0.2503874897956848,0.4950000047683716
1788107984204062000,1.05106201171875,0.017875000834465027,0.32491248846054077,0.491287499666214
1788107984214150100,1.061150146484375,0.03863750025629997,0.39820000529289246,0.5292375087738037
1788107984224247300,1.071247314453125,0.04235000163316727,0.4604874849319458,0.607337474822998
1788107984234335000,1.0813349609375,0.04235000163316727,0.48372501134872437,0.685575008392334
1788107984244423700,1.091423583984375,0.05444999784231186,0.4604874849319458,0.7283374667167664
1788107984254509000,1.101509033203125,0.07039999961853027,0.37991249561309814,0.7308124899864197
1788107984264603400,1.111603271484375,0.06792499870061874,0.29809999465942383,0.7258625030517578
1788107984274698500,1.121698486328125,0.04592499881982803,0.27114999294281006,0.7026249766349792
1788107984284793600,1.131793701171875,0.026399999856948853,0.3016749918460846,0.685575008392334
1788107984294879200,1.141879150390625,0.028875000774860382,0.3469125032424927,0.6721000075340271
1788107984304978000,1.15197802734375,0.0471624992787838,0.3969624936580658,0.6623374819755554
1788107984315070000,1.162070068359375,0.08992499858140945,0.4164874851703644,0.6305750012397766
1788107984325165600,1.17216552734375,0.1266375035047531,0.420199990272522,0.5865749716758728
1788107984345342500,1.192342529296875,0.15468749403953552,0.35791251063346863,0.4179999828338623
1788107984355436800,1.202436767578125,0.1424500048160553,0.3469125032424927,0.33976250886917114
1788107984365526800,1.21252685546875,0.1522125005722046,0.3676750063896179,0.2751374840736389
1788107984375620900,1.222620849609375,0.17063750326633453,0.3909125030040741,0.23237499594688416
1788107984385715700,1.2327158203125,0.19139999151229858,0.4324375092983246,0.21642500162124634
1788107984395803100,1.24280322265625,0.19868749380111694,0.40796250104904175,0.201712504029274
1788107984405894700,1.252894775390625,0.19373749196529388,0.3726249933242798,0.18466250598430634
1788107984415989200,1.2629892578125,0.17668749392032623,0.3359124958515167,0.17613749206066132
1788107984426088400,1.27308837890625,0.17544999718666077,0.28833749890327454,0.17489999532699585
1788107984436180500,1.283180419921875,0.17297500371932983,0.26510000228881836,0.18466250598430634
1788107984446273500,1.2932734375,0.16940000653266907,0.26743748784065247,0.19813749194145203
1788107984456367900,1.303367919921875,0.18892499804496765,0.27486249804496765,0.21147499978542328
1788107984466465000,1.313465087890625,0.20239999890327454,0.2956250011920929,0.19813749194145203
1788107984476546300,1.32354638671875,0.20845000445842743,0.29686251282691956,0.16513749957084656
1788107984486645200,1.333645263671875,0.2134000062942505,0.3102000057697296,0.11137499660253525
1788107984496741400,1.343741455078125,0.21216249465942383,0.3004375100135803,0.06613750010728836
1788107984506832100,1.35383203125,0.20350000262260437,0.282150000333786,0.040562499314546585
1788107984516918000,1.36391796875,0.18892499804496765,0.26138749718666077,0.028324998915195465
1788107984527006000,1.374005859375,0.17173749208450317,0.2576749920845032,0.011137500405311584
1788107984537097700,1.38409765625,0.16940000653266907,0.2723875045776367,-0.0364375002682209
1788107984547192000,1.394192138671875,0.16692499816417694,0.29686251282691956,-0.07919999957084656
1788107984557283600,1.40428369140625,0.16321249306201935,0.3151499927043915,-0.08291249722242355
1788107984567385300,1.41438525390625,0.1522125005722046,0.3091000020503998,-0.030387500301003456
1788107984577474300,1.424474365234375,0.13763749599456787,0.273624986410141,0.035612501204013824
1788107984587563800,1.434563720703125,0.12292499840259552,0.24557499587535858,0.08084999769926071
1788107984597657900,1.444657958984375,0.11921250075101852,0.20281249284744263,0.09308750182390213
1788107984607754200,1.454754150390625,0.11563749611377716,0.17957499623298645,0.06984999775886536
1788107984617851600,1.4648515625,0.11192499846220016,0.19181250035762787,0.02461249940097332
1788107984627946800,1.47494677734375,0.1143999993801117,0.2223374992609024,-0.013199999928474426
1788107984638032600,1.48503271484375,0.12044999748468399,0.2503874897956848,-0.01691249944269657
1788107984648129800,1.4951298828125,0.12168750166893005,0.25286251306533813,0.00989999994635582
1788107984658217700,1.5052177734375,0.10944999754428864,0.24310000240802765,0.0648999959230423
1788107984668306000,1.515305908203125,0.10216250270605087,0.210099995136261,0.1321374922990799
1788107984678400000,1.52539990234375,0.09844999760389328,0.1966249942779541,0.19689999520778656
1788107984688498200,1.535498291015625,0.1143999993801117,0.1966249942779541,0.22495000064373016
1788107984698582300,1.545582275390625,0.1424500048160553,0.18081249296665192,0.19813749194145203
1788107984708678100,1.55567822265625,0.1522125005722046,0.1746249943971634,0.15537500381469727
1788107984718768400,1.565768310546875,0.1326874941587448,0.20886249840259552,0.1381874978542328
1788107984728862200,1.5758623046875,0.09116250276565552,0.2638624906539917,0.18342499434947968
1788107984738953700,1.58595361328125,0.04468749836087227,0.32615000009536743,0.2849000096321106
1788107984749053400,1.596053466796875,0.016637500375509262,0.34814998507499695,0.39476248621940613
1788107984759151400,1.6061513671875,0.021587500348687172,0.3016749918460846,0.4632374942302704
1788107984769251800,1.616251953125,0.03616249933838844,0.2063875049352646,0.4632374942302704
1788107984779351300,1.626351318359375,0.04839999973773956,0.12086249887943268,0.408237487077713
1788107984789449200,1.63644921875,0.0411125011742115,0.02433750033378601,0.296999990940094
1788107984799535900,1.646535888671875,0.016637500375509262,-0.023237500339746475,0.15895000100135803
1788107984809629000,1.65662890625,-0.009074999950826168,-0.01223750039935112,0.052662499248981476
1788107984819723800,1.666723876953125,-0.02983750030398369,0.05609999969601631,-0.009624999947845936
1788107984829816800,1.67681689453125,-0.03712499886751175,0.1648624986410141,-0.04867500066757202
1788107984839902000,1.68690185546875,-0.038362499326467514,0.24310000240802765,-0.0681999996304512
1788107984849991400,1.696991455078125,-0.04441250115633011,0.2686749994754791,-0.06462500244379044
1788107984860075300,1.7070751953125,-0.06283749639987946,0.2540999948978424,-0.05472499877214432
1788107984870165200,1.717165283203125,-0.07259999960660934,0.19786250591278076,-0.06091250106692314
1788107984880250600,1.727250732421875,-0.07012499868869781,0.15015000104904175,-0.09019999951124191
1788107984890344400,1.737344482421875,-0.06393750011920929,0.11728750169277191,-0.14643749594688416
1788107984900436500,1.7474365234375,-0.057887498289346695,0.11357499659061432,-0.22577500343322754
1788107984910544600,1.757544677734375,-0.045649997889995575,0.14409999549388885,-0.3137750029563904
1788107984920635400,1.767635498046875,-0.02736249938607216,0.1929125040769577,-0.381012499332428
1788107984930729700,1.777729736328125,-0.004124999977648258,0.2381500005722046,-0.4188250005245209
1788107984940820200,1.7878203125,0.008112499490380287,0.25891250371932983,-0.4298250079154968
1788107984950919000,1.7979189453125,0.004399999976158142,0.2626250088214874,-0.40658751130104065
1788107984961004800,1.8080048828125,-0.010174999944865704,0.2686749994754791,-0.3614875078201294
1788107984971095800,1.818095703125,-0.021175000816583633,0.2540999948978424,-0.3100624978542328
1788107984981185000,1.82818505859375,-0.007837500423192978,0.22714999318122864,-0.26372501254081726
1788107984991282000,1.838281982421875,0.020349999889731407,0.19786250591278076,-0.21367499232292175
1788107985001373700,1.848373779296875,0.043449997901916504,0.1588124930858612,-0.18548749387264252
1788107985011481300,1.8584814453125,0.0411125011742115,0.14781250059604645,-0.15619999170303345
1788107985021565000,1.86856494140625,0.027637500315904617,0.13557499647140503,-0.11467500030994415
1788107985031663000,1.8786630859375,0.019112499430775642,0.1331000030040741,-0.06696250289678574
1788107985041750800,1.888750732421875,0.012924999929964542,0.13062499463558197,-0.02667500078678131
1788107985051840500,1.898840576171875,0.021587500348687172,0.1331000030040741,0.00989999994635582
1788107985061925600,1.908925537109375,0.03739999979734421,0.09404999762773514,0.020899999886751175
1788107985072019700,1.919019775390625,0.055687498301267624,0.04028749838471413,0.002612499985843897
1788107985082105600,1.929105712890625,0.06187500059604645,-0.01718750037252903,-0.02419999986886978
1788107985092209700,1.939209716796875,0.05087500065565109,-0.08318749815225601,-0.05238749831914902
1788107985102302500,1.949302490234375,0.05692499876022339,-0.11247500032186508,-0.0719124972820282
1788107985112403200,1.9594033203125,0.07644999772310257,-0.11604999750852585,-0.10119999945163727
1788107985122496300,1.969496337890625,0.11192499846220016,-0.10752499848604202,-0.11715000122785568
1788107985132590800,1.9795908203125,0.15963749587535858,-0.10147500038146973,-0.12691250443458557
1788107985142678000,1.989677978515625,0.18645000457763672,-0.11371249705553055,-0.1317249983549118
1788107985152779000,1.999779052734375,0.17668749392032623,-0.12099999934434891,-0.10119999945163727
1788107985162864400,2.009864501953125,0.16568750143051147,-0.12223749607801437,-0.04743750020861626
1788107985172963600,2.019963623046875,0.15716250240802765,-0.10999999940395355,0.018562499433755875
1788107985183058000,2.030057861328125,0.15716250240802765,-0.12828749418258667,0.06613750010728836
1788107985193156400,2.04015625,0.15344999730587006,-0.19181250035762787,0.09913749992847443
1788107985203242500,2.050242431640625,0.14973749220371246,-0.2578125,0.10408750176429749
1788107985213335000,2.0603349609375,0.14863750338554382,-0.32133749127388,0.06737499684095383
1788107985223429000,2.07042919921875,0.13516250252723694,-0.3433375060558319,0.02461249940097332
1788107985233516300,2.080516357421875,0.12292499840259552,-0.32257500290870667,-0.010862499475479126
1788107985243602400,2.0906025390625,0.1106875017285347,-0.2870999872684479,-0.027912499383091927
1788107985253691100,2.100691162109375,0.09239999949932098,-0.20047499239444733,-0.0193875003606081
1788107985263771400,2.110771484375,0.08139999955892563,-0.07699999958276749,0.02708750031888485
1788107985273860400,2.1208603515625,0.0789249986410141,0.004812499973922968,0.09790000319480896
1788107985283940900,2.13094091796875,0.07768750190734863,0.0340999998152256,0.16637499630451202
1788107985294033000,2.141032958984375,0.04592499881982803,0.04633750021457672,0.22618749737739563
1788107985304125000,2.151125,-0.012649999931454659,0.04633750021457672,0.2677125036716461
1788107985314219300,2.16121923828125,-0.07864999771118164,0.04386249929666519,0.2934249937534332
1788107985324304100,2.17130419921875,-0.1494625061750412,0.06228749826550484,0.30799999833106995
1788107985334400000,2.18139990234375,-0.18617500364780426,0.12581250071525574,0.31171250343322754
1788107985344497700,2.19149755859375,-0.19717499613761902,0.210099995136261,0.28971248865127563
1788107985354586000,2.201586181640625,-0.17393749952316284,0.29809999465942383,0.281187504529953
1788107985364679000,2.211678955078125,-0.1214125007390976,0.3969624936580658,0.28366249799728394
1788107985374769000,2.221768798828125,-0.07864999771118164,0.4349125027656555,0.3068999946117401
1788107985384864800,2.23186474609375,-0.057887498289346695,0.4092000126838684,0.34595000743865967
1788107985394954000,2.2419541015625,-0.07136250287294388,0.33096250891685486,0.38499999046325684
1788107985405054000,2.252053955078125,-0.10670000314712524,0.2638624906539917,0.4057624936103821
1788107985415142000,2.262141845703125,-0.14093749225139618,0.1905750036239624,0.39476248621940613
1788107985425234700,2.272234619140625,-0.1629374921321869,0.14038750529289246,0.36176249384880066
1788107985435322000,2.282322021484375,-0.16417500376701355,0.1648624986410141,0.3349500000476837
1788107985445413400,2.292413330078125,-0.14464999735355377,0.23938749730587006,0.31542500853538513
1788107985455502300,2.30250244140625,-0.09693749994039536,0.32120001316070557,0.27994999289512634
1788107985465601800,2.312601806640625,-0.04688749834895134,0.4006749987602234,0.2237125039100647
1788107985475688400,2.3226884765625,-0.009074999950826168,0.4824874997138977,0.16142499446868896
1788107985485779000,2.332779052734375,-0.0016499999910593033,0.49348750710487366,0.10037499666213989
1788107985495867100,2.3428671875,-0.005362499970942736,0.4641999900341034,0.057612501084804535
1788107985505965000,2.352965087890625,-0.005362499970942736,0.37991249561309814,0.023375000804662704
1788107985516053000,2.363052978515625,0.022687500342726707,0.4263874888420105,-0.08415000140666962
1788107985526154000,2.373154052734375,0.13021250069141388,0.42996248602867126,-0.14643749594688416
1788107985536243700,2.38324365234375,0.13021250069141388,0.3554374873638153,-0.12691250443458557
1788107985546335500,2.39333544921875,0.11921250075101852,0.3371500074863434,-0.1073874980211258
1788107985556425500,2.403425537109375,0.14863750338554382,0.3786749839782715,-0.1036750003695488
1788107985566522600,2.413522705078125,0.164450004696846,0.3786749839782715,-0.12319999933242798
1788107985576620000,2.4236201171875,0.16073749959468842,0.35420000553131104,-0.13791249692440033
1788107985586712300,2.43371240234375,0.1387374997138977,0.34814998507499695,-0.14396250247955322
1788107985596802600,2.443802490234375,0.11797499656677246,0.340862512588501,-0.12925000488758087
1788107985606899000,2.45389892578125,0.10092499852180481,0.36038750410079956,-0.08662500232458115
1788107985616987100,2.463987060546875,0.09239999949932098,0.38967499136924744,-0.025437500327825546
1788107985627085600,2.47408544921875,0.08992499858140945,0.41167500615119934,0.038087498396635056
1788107985637177900,2.484177734375,0.08621250092983246,0.45196250081062317,0.10642500221729279
1788107985647275300,2.494275146484375,0.07163749635219574,0.511775016784668,0.17118750512599945
1788107985657364700,2.50436474609375,0.06187500059604645,0.5436750054359436,0.2274249941110611
1788107985667457300,2.514457275390625,0.05444999784231186,0.5570124983787537,0.2872374951839447
1788107985677544700,2.524544677734375,0.06311249732971191,0.5337749719619751,0.3630000054836273
1788107985687642000,2.53464208984375,0.1106875017285347,0.48743748664855957,0.4595249891281128
1788107985697729000,2.54472900390625,0.18150000274181366,0.42143750190734863,0.5523374676704407
1788107985707823600,2.55482373046875,0.23292499780654907,0.3431999981403351,0.619575023651123
1788107985717941200,2.564941162109375,0.2377374917268753,0.29067498445510864,0.6476249694824219
1788107985728039000,2.575038818359375,0.22068749368190765,0.29067498445510864,0.6147624850273132
1788107985738136600,2.585136474609375,0.19868749380111694,0.32491248846054077,0.5413374900817871
1788107985748231700,2.595231689453125,0.17668749392032623,0.34814998507499695,0.4437125027179718
1788107985758326300,2.605326171875,0.15097500383853912,0.34814998507499695,0.353237509727478
1788107985768421400,2.61542138671875,0.09844999760389328,0.34814998507499695,0.272662490606308
1788107985778530300,2.6255302734375,0.03244999796152115,0.3591499924659729,0.19318750500679016
1788107985788628700,2.635628662109375,-0.015124999918043613,0.3946250081062317,0.1358499974012375
1788107985798723000,2.64572314453125,-0.02241249941289425,0.4384874999523163,0.11618749797344208
1788107985808808400,2.655808349609375,-0.005362499970942736,0.45925000309944153,0.09418749809265137
1788107985818901500,2.665901611328125,-0.006599999964237213,0.39943748712539673,0.04661250114440918
1788107985828993300,2.6759931640625,-0.02983750030398369,0.329862505197525,0.0013749999925494194
1788107985839078700,2.68607861328125,-0.045649997889995575,0.3078624904155731,-0.008387500420212746
1788107985849170200,2.696170166015625,-0.02983750030398369,0.3554374873638153,0.020899999886751175
1788107985859263700,2.706263671875,0.010587500408291817,0.41772499680519104,0.07108750194311142
1788107985869358300,2.7163583984375,0.04235000163316727,0.41772499680519104,0.10889999568462372
1788107985879442000,2.72644189453125,0.05692499876022339,0.3493874967098236,0.10642500221729279
1788107985889526300,2.7365263671875,0.06668750196695328,0.2870999872684479,0.07232499867677689
1788107985899616800,2.74661669921875,0.0789249986410141,0.24433749914169312,0.04413750022649765
1788107985909707300,2.756707275390625,0.08744999766349792,0.20886249840259552,0.045375000685453415
1788107985919794000,2.7667939453125,0.07768750190734863,0.15015000104904175,0.05389999970793724
1788107985929884400,2.776884521484375,0.05335000157356262,0.11357499659061432,0.07837499678134918
1788107985939962400,2.78696240234375,0.05211250111460686,0.11357499659061432,0.09184999763965607
1788107985950054100,2.79705419921875,0.06421250104904175,0.12209999561309814,0.06984999775886536
1788107985960138200,2.80713818359375,0.06668750196695328,0.14533749222755432,0.040562499314546585
1788107985970230300,2.817230224609375,0.05816249921917915,0.17104999721050262,0.0038499999791383743
1788107985980316000,2.82731591796875,0.043449997901916504,0.18081249296665192,-0.040150001645088196
1788107985990416000,2.837415771484375,0.026399999856948853,0.16609999537467957,-0.07796250283718109
1788107986000498700,2.847498779296875,0.017875000834465027,0.14657500386238098,-0.11219999939203262
1788107986010596000,2.85759619140625,0.011687500402331352,0.15015000104904175,-0.1256749927997589
1788107986020680400,2.867680419921875,-0.0016499999910593033,0.15138749778270721,-0.11838749796152115
1788107986030781200,2.87778125,-0.02241249941289425,0.14657500386238098,-0.10491249710321426
1788107986040869000,2.887869140625,-0.03712499886751175,0.11481250077486038,-0.1073874980211258
1788107986050958000,2.8979580078125,-0.055412501096725464,0.09157499670982361,-0.1097249984741211
1788107986061038300,2.908038330078125,-0.07493750005960464,0.10862500220537186,-0.10119999945163727
1788107986071128600,2.918128662109375,-0.0798875018954277,0.15015000104904175,-0.08415000140666962
1788107986081215700,2.9282158203125,-0.06283749639987946,0.17586250603199005,-0.06943749636411667
1788107986091315000,2.93831494140625,-0.03341250121593475,0.18191249668598175,-0.0681999996304512
1788107986101402600,2.948402587890625,-0.015124999918043613,0.1905750036239624,-0.03891250118613243
1788107986111496400,2.958496337890625,-0.018837500363588333,0.18809999525547028,0.018562499433755875
1788107986121591000,2.968591064453125,-0.038362499326467514,0.17833749949932098,0.06366249918937683
1788107986131678200,2.97867822265625,-0.05664999783039093,0.16005000472068787,0.10518749803304672
1788107986141764900,2.988764892578125,-0.05912499874830246,0.11604999750852585,0.11742500215768814
1788107986151857700,2.998857666015625,-0.053075000643730164,0.05609999969601631,0.10766249895095825
1788107986161951700,3.00895166015625,-0.0541750006377697,0.01209999993443489,0.05389999970793724
1788107986172041500,3.01904150390625,-0.0518375001847744,0.006049999967217445,-0.0034374999813735485
1788107986182140700,3.029140625,-0.038362499326467514,0.02928750030696392,-0.05967500060796738
1788107986192239400,3.0392392578125,-0.02241249941289425,0.08304999768733978,-0.11838749796152115
1788107986202326300,3.049326171875,0.0006874999962747097,0.1293874979019165,-0.1634874939918518
1788107986212423000,3.0594228515625,0.014162499457597733,0.17215000092983246,-0.16967499256134033
1788107986222536000,3.069535888671875,0.019112499430775642,0.18191249668598175,-0.14272500574588776
1788107986232631300,3.07963134765625,0.015399999916553497,0.14162500202655792,-0.1036750003695488
1788107986242724900,3.089724853515625,0.004399999976158142,0.11838749796152115,-0.04386249929666519
1788107986252817200,3.099817138671875,-0.0004124999977648258,0.07686249911785126,-0.002199999988079071
1788107986262909200,3.1099091796875,-0.012649999931454659,0.032862499356269836,0.02213750034570694
1788107986273008600,3.120008544921875,-0.010312499478459358,0.0010999999940395355,0.02708750031888485
1788107986283099000,3.130098876953125,-0.0016499999910593033,0.018287500366568565,0.035612501204013824
1788107986293198300,3.1401982421875,0.0056374999694526196,0.05376249924302101,0.033137500286102295
1788107986303290000,3.1502900390625,0.019112499430775642,0.09157499670982361,0.03437500074505806
1788107986313379800,3.1603798828125,0.027637500315904617,0.11481250077486038,0.047849997878074646
1788107986323487700,3.17048779296875,0.027637500315904617,0.11110000312328339,0.04908749833703041
1788107986333585400,3.18058544921875,0.006874999962747097,0.08786249905824661,0.028324998915195465
1788107986343676200,3.19067626953125,-0.02983750030398369,0.0952875018119812,0.02461249940097332
1788107986357811700,3.204811767578125,-0.07617499679327011,0.14038750529289246,0.062424998730421066
1788107986367907000,3.214906982421875,-0.08717499673366547,0.1685750037431717,0.1381874978542328
1788107986377999400,3.224999267578125,-0.08717499673366547,0.16609999537467957,0.22866250574588776
1788107986388088600,3.235088623046875,-0.07864999771118164,0.14038750529289246,0.2934249937534332
1788107986398175000,3.245175048828125,-0.08236250281333923,0.08786249905824661,0.3227125108242035
1788107986408270600,3.2552705078125,-0.08717499673366547,0.0340999998152256,0.31776249408721924
1788107986418359600,3.265359619140625,-0.0859375,-0.02199999988079071,0.2714250087738037
1788107986428446000,3.275446044921875,-0.08717499673366547,-0.05871250107884407,0.201712504029274
1788107986438526000,3.28552587890625,-0.09941250085830688,-0.07699999958276749,0.12113749980926514
1788107986448621000,3.29562109375,-0.11041250079870224,-0.0611874982714653,0.052662499248981476
1788107986458717400,3.305717529296875,-0.10559999942779541,-0.03918749839067459,-0.007149999961256981
1788107986468809500,3.3158095703125,-0.09088750183582306,-0.01966249942779541,-0.05843750014901161
1788107986478896400,3.325896484375,-0.06641250103712082,-0.0147124994546175,-0.09748750180006027
1788107986488979200,3.335979248046875,-0.055412501096725464,-0.03423750028014183,-0.14024999737739563
1788107986499068200,3.346068115234375,-0.055412501096725464,-0.054999999701976776,-0.20143750309944153
1788107986509158100,3.356158203125,-0.05912499874830246,-0.07452499866485596,-0.27719998359680176
1788107986519243000,3.366242919921875,-0.050599999725818634,-0.07452499866485596,-0.3590124845504761
1788107986529336300,3.37633642578125,-0.04441250115633011,-0.09171249717473984,-0.43601250648498535
1788107986539424000,3.386424072265625,-0.04441250115633011,-0.13199999928474426,-0.5178250074386597
1788107986549511200,3.39651123046875,-0.04207500070333481,-0.12347500026226044,-0.5813499689102173
1788107986559595800,3.406595703125,-0.038362499326467514,-0.06971249729394913,-0.6168249845504761
1788107986569695500,3.416695556640625,-0.026124998927116394,-0.04152499884366989,-0.6143500208854675
1788107986579794200,3.426794189453125,-0.020075000822544098,-0.01966249942779541,-0.5752999782562256
1788107986589886200,3.43688623046875,-0.013887500390410423,0.004812499973922968,-0.5190625190734863
1788107986599974700,3.446974609375,0.0056374999694526196,0.0010999999940395355,-0.4713499844074249
1788107986610070500,3.457070556640625,0.03739999979734421,-0.04647500067949295,-0.4470124840736389
1788107986620152300,3.46715234375,0.06421250104904175,-0.11495000123977661,-0.4493499994277954
1788107986630250000,3.47725,0.07397499680519104,-0.13928750157356262,-0.45182499289512634
1788107986640340000,3.487340087890625,0.07644999772310257,-0.10999999940395355,-0.4310624897480011
1788107986650430200,3.49743017578125,0.06063750013709068,-0.04399999976158142,-0.3797749876976013
1788107986660528000,3.507528076171875,0.04839999973773956,0.059812501072883606,-0.306487500667572
1788107986670631700,3.517631591796875,0.06063750013709068,0.1293874979019165,-0.234437495470047
1788107986680722200,3.52772216796875,0.08992499858140945,0.12333749979734421,-0.17943750321865082
1788107986690828500,3.53782861328125,0.1289750039577484,0.02681249938905239,-0.18301250040531158
1788107986700918000,3.54791796875,0.14973749220371246,-0.0611874982714653,-0.23319999873638153
1788107986711010000,3.558010009765625,0.14368750154972076,-0.0929500013589859,-0.2759625017642975
1788107986721101300,3.568101318359375,0.12168750166893005,-0.05871250107884407,-0.2685374915599823
1788107986731207000,3.57820703125,0.08992499858140945,-0.0037124999798834324,-0.2441999912261963
1788107986741297700,3.588297607421875,0.06792499870061874,0.05004999786615372,-0.21367499232292175
1788107986751393300,3.598393310546875,0.04592499881982803,0.10381250083446503,-0.16596250236034393
1788107986761484800,3.60848486328125,0.03492499887943268,0.13062499463558197,-0.08043749630451202
1788107986771568400,3.618568359375,0.03492499887943268,0.08304999768733978,0.006324999965727329
1788107986781660200,3.62866015625,0.027637500315904617,0.01209999993443489,0.07108750194311142
1788107986791755800,3.638755859375,0.027637500315904617,-0.03918749839067459,0.1223749965429306
1788107986801838800,3.6488388671875,0.03863750025629997,-0.06971249729394913,0.15895000100135803
1788107986811938800,3.658938720703125,0.04221250116825104,-0.07452499866485596,0.17861250042915344
1788107986822026000,3.66902587890625,0.03987500071525574,-0.04895000159740448,0.18095000088214874
1788107986832121300,3.679121337890625,0.03135000169277191,0.015812499448657036,0.2079000025987625
1788107986842207500,3.68920751953125,0.023924998939037323,0.06833750009536743,0.24323749542236328
1788107986852300800,3.69930078125,0.014162499457597733,0.08057499676942825,0.2774749994277954
1788107986862400300,3.709400146484375,0.012924999929964542,0.06104999780654907,0.3129499852657318
1788107986872486700,3.719486572265625,-0.0016499999910593033,0.002337499987334013,0.3409999907016754
1788107986882571800,3.72957177734375,-0.02488750033080578,-0.08799999952316284,0.32394999265670776
1788107986892660200,3.73966015625,-0.035887498408555984,-0.1662375032901764,0.2677125036716461
1788107986902742000,3.749741943359375,-0.04441250115633011,-0.17476250231266022,0.19442500174045563
1788107986912830000,3.759829833984375,-0.053075000643730164,-0.11976250261068344,0.12113749980926514
1788107986922923500,3.769923583984375,-0.07012499868869781,-0.028187500312924385,0.0966624990105629
1788107986933031000,3.780031005859375,-0.10188750177621841,0.0635249987244606,0.1321374922990799
1788107986943115800,3.79011572265625,-0.12636250257492065,0.11604999750852585,0.2237125039100647
1788107986953216800,3.800216796875,-0.1311749964952469,0.10009999573230743,0.32147499918937683
1788107986963303200,3.81030322265625,-0.12264999747276306,0,0.36176249384880066
1788107986973399600,3.820399658203125,-0.10793749988079071,-0.14423750340938568,0.3287625014781952
1788107986983477500,3.8304775390625,-0.10064999759197235,-0.24928750097751617,0.2274249941110611
1788107986993565400,3.8405654296875,-0.09941250085830688,-0.26028749346733093,0.09418749809265137
1788107987003659800,3.85065966796875,-0.09459999948740005,-0.19181250035762787,-0.03162499889731407
1788107987013752300,3.86075244140625,-0.09088750183582306,-0.08428750187158585,-0.1256749927997589
1788107987023840800,3.8708408203125,-0.09212499856948853,0.018287500366568565,-0.18191249668598175
1788107987033924600,3.880924560546875,-0.10559999942779541,0.09886249899864197,-0.19043749570846558
1788107987044013300,3.891013427734375,-0.12264999747276306,0.12828749418258667,-0.1451999992132187
1788107987054107400,3.901107421875,-0.14217500388622284,0.11728750169277191,-0.05596249923110008
1788107987064199000,3.911198974609375,-0.15193749964237213,0.0635249987244606,0.028324998915195465
1788107987074293800,3.921293701171875,-0.1531749963760376,-0.020762499421834946,0.07232499867677689
1788107987084383000,3.931383056640625,-0.14217500388622284,-0.10628750175237656,0.05884999781847
1788107987094477000,3.94147705078125,-0.12264999747276306,-0.1405249983072281,-0.010862499475479126
1788107987104567600,3.951567626953125,-0.10064999759197235,-0.11495000123977661,-0.11096250265836716
1788107987114657300,3.9616572265625,-0.07259999960660934,-0.018424998968839645,-0.21601249277591705
1788107987124749600,3.97174951171875,-0.043175000697374344,0.05376249924302101,-0.29548749327659607
1788107987134839000,3.981839111328125,-0.023649999871850014,0.09652499854564667,-0.32477501034736633
1788107987144931000,3.99193115234375,-0.02241249941289425,0.10381250083446503,-0.30524998903274536
1788107987155026400,4.0020263671875,-0.03959999978542328,0.08662500232458115,-0.24172499775886536
1788107987165118200,4.0121181640625,-0.057887498289346695,0.05004999786615372,-0.12319999933242798
1788107987175213000,4.022213134765625,-0.07259999960660934,0.004812499973922968,0.012374999932944775
1788107987185308200,4.03230810546875,-0.07136250287294388,-0.029424998909235,0.12718750536441803
1788107987195402200,4.04240234375,-0.06283749639987946,-0.05376249924302101,0.20047499239444733
1788107987205493000,4.052492919921875,-0.053075000643730164,-0.07095000147819519,0.2079000025987625
1788107987215583200,4.062583251953125,-0.038362499326467514,-0.10395000129938126,0.15537500381469727
1788107987225673000,4.0726728515625,-0.023649999871850014,-0.13805000483989716,0.05637500062584877
1788107987235758800,4.0827587890625,-0.010312499478459358,-0.15399999916553497,-0.05486249923706055
1788107987245855000,4.09285498046875,-0.015124999918043613,-0.1247124969959259,-0.12815000116825104
1788107987255945700,4.10294580078125,-0.031075000762939453,-0.07452499866485596,-0.1414874941110611
1788107987266042600,4.113042724609375,-0.0518375001847744,-0.00976249948143959,-0.10491249710321426
1788107987276130800,4.123130859375,-0.07383749634027481,0.042762499302625656,-0.0193875003606081
1788107987286234600,4.133234619140625,-0.08841250091791153,0.05004999786615372,0.0966624990105629
1788107987296327200,4.1433271484375,-0.08717499673366547,0.010999999940395355,0.19318750500679016
1788107987306420700,4.153420654296875,-0.07617499679327011,-0.04399999976158142,0.25423750281333923
1788107987316516900,4.163516845703125,-0.07259999960660934,-0.0952875018119812,0.28366249799728394
1788107987326616600,4.173616455078125,-0.07741250097751617,-0.10395000129938126,0.2849000096321106
1788107987336708600,4.18370849609375,-0.07741250097751617,-0.09418749809265137,0.24447499215602875
1788107987346804700,4.1938046875,-0.07136250287294388,-0.07947500050067902,0.15537500381469727
1788107987356900400,4.203900390625,-0.060362499207258224,-0.08071249723434448,0.030662499368190765
1788107987366999800,4.213999755859375,-0.05912499874830246,-0.07342500239610672,-0.08896250277757645
1788107987377091000,4.224091064453125,-0.06159999966621399,-0.03423750028014183,-0.17572499811649323
1788107987387189000,4.23418896484375,-0.06283749639987946,0.04152499884366989,-0.19043749570846558
1788107987397281500,4.244281494140625,-0.060362499207258224,0.11604999750852585,-0.1317249983549118
1788107987407376000,4.2543759765625,-0.05912499874830246,0.16005000472068787,-0.02186249941587448
1788107987417463300,4.26446337890625,-0.05664999783039093,0.14904999732971191,0.11137499660253525
1788107987427553300,4.27455322265625,-0.043175000697374344,0.07686249911785126,0.22247499227523804
1788107987437646300,4.284646240234375,-0.026124998927116394,-0.02694999985396862,0.28366249799728394
1788107987447741200,4.2947412109375,-0.010312499478459358,-0.11618749797344208,0.2824249863624573
1788107987457832700,4.304832763671875,0.004399999976158142,-0.18081249296665192,0.2311374992132187
1788107987467929300,4.314929443359375,0.020349999889731407,-0.1845249980688095,0.14066250622272491
1788107987478026200,4.325026123046875,0.04468749836087227,-0.14176249504089355,0.020899999886751175
1788107987488129800,4.3351298828125,0.06187500059604645,-0.0929500013589859,-0.10615000128746033
1788107987498227000,4.34522705078125,0.06063750013709068,-0.018424998968839645,-0.20391249656677246
1788107987508327200,4.3553271484375,0.03135000169277191,0.09404999762773514,-0.234437495470047
1788107987518417200,4.365417236328125,-0.015124999918043613,0.20281249284744263,-0.18067499995231628
1788107987528504600,4.375504638671875,-0.035887498408555984,0.26633748412132263,-0.07919999957084656
1788107987538593300,4.38559326171875,-0.020075000822544098,0.24186250567436218,0.00989999994635582
1788107987548684800,4.395684814453125,0.010449999943375587,0.12581250071525574,0.06366249918937683
1788107987558771000,4.40577099609375,0.03863750025629997,-0.00494999997317791,0.07713750004768372
1788107987568852700,4.415852783203125,0.06187500059604645,-0.1307625025510788,0.04166249930858612
1788107987578937900,4.425937744140625,0.0728750005364418,-0.19181250035762787,-0.037675000727176666
1788107987589029600,4.436029541015625,0.05087500065565109,-0.14547500014305115,-0.11948750168085098
1788107987599115300,4.446115234375,0.10216250270605087,-0.002474999986588955,-0.18301250040531158
1788107987609199400,4.456199462890625,0.06063750013709068,0.08428750187158585,-0.18672500550746918
1788107987619290400,4.466290283203125,0.05211250111460686,0.14162500202655792,-0.15619999170303345
1788107987629381400,4.47638134765625,0.0411125011742115,0.12581250071525574,-0.11467500030994415
1788107987639467800,4.4864677734375,0.031212499365210533,0.07328750193119049,-0.07315000146627426
1788107987649552100,4.49655224609375,0.026399999856948853,0.025575000792741776,-0.0193875003606081
1788107987659645200,4.506645263671875,0.025162499397993088,-0.010999999940395355,0.01966249942779541
1788107987669748700,4.516748779296875,0.030112499371170998,-0.015949999913573265,0.02708750031888485
1788107987679842800,4.5268427734375,0.03616249933838844,-0.0012374999932944775,-0.002199999988079071
1788107987689939700,4.536939697265625,0.04468749836087227,0.0170499999076128,-0.06462500244379044
1788107987700025600,4.547025634765625,0.05444999784231186,0.02433750033378601,-0.14891250431537628
1788107987710112500,4.557112548828125,0.06187500059604645,0.02186249941587448,-0.22824999690055847
1788107987720210200,4.567210205078125,0.05692499876022339,0.04386249929666519,-0.2662000060081482
1788107987730303200,4.57730322265625,0.043449997901916504,0.057337500154972076,-0.26496249437332153
1788107987740407000,4.587406982421875,0.03368749842047691,0.037812501192092896,-0.26001250743865967
1788107987750503200,4.597503173828125,0.03368749842047691,0.023099999874830246,-0.2246749997138977
1788107987760599300,4.607599365234375,0.027637500315904617,0.04633750021457672,-0.1611499935388565
1788107987770687500,4.6176875,0.020349999889731407,0.10862500220537186,-0.05967500060796738
1788107987780784000,4.6277841796875,0.017875000834465027,0.18562500178813934,0.08208750188350677
1788107987790878500,4.63787841796875,0.031212499365210533,0.21133749186992645,0.20418749749660492
1788107987800974800,4.647974853515625,0.06421250104904175,0.1685750037431717,0.2639999985694885
1788107987811064300,4.658064208984375,0.10573749989271164,0.08786249905824661,0.23718750476837158
1788107987821158100,4.668158203125,0.13516250252723694,-0.020762499421834946,0.1223749965429306
1788107987831243800,4.678243896484375,0.13750000298023224,-0.08799999952316284,-0.02186249941587448
1788107987841341000,4.6883408203125,0.13392500579357147,-0.06971249729394913,-0.1414874941110611
1788107987851433000,4.698432861328125,0.13750000298023224,0.00976249948143959,-0.20748749375343323
1788107987861528300,4.7085283203125,0.13516250252723694,0.1013374999165535,-0.2124374955892563
1788107987871618300,4.718618408203125,0.1266375035047531,0.18081249296665192,-0.16843749582767487
1788107987881717200,4.72871728515625,0.1266375035047531,0.2246749997138977,-0.09638749808073044
1788107987891820800,4.73882080078125,0.13750000298023224,0.17586250603199005,-0.05238749831914902
1788107987901906200,4.74890625,0.15716250240802765,0.06228749826550484,-0.06572499871253967
1788107987911991300,4.7589912109375,0.1742125004529953,-0.08071249723434448,-0.16596250236034393
1788107987922122500,4.76912255859375,0.18150000274181366,-0.19181250035762787,-0.30524998903274536
1788107987932213000,4.779212890625,0.1839749962091446,-0.22357499599456787,-0.40424999594688416
1788107987942308600,4.78930859375,0.17916250228881836,-0.1588124930858612,-0.44206249713897705
1788107987952395800,4.799395751953125,0.1802625060081482,-0.028187500312924385,-0.4250124990940094
1788107987962492700,4.80949267578125,0.1742125004529953,0.08662500232458115,-0.39077499508857727
1788107987972578300,4.819578369140625,0.16073749959468842,0.14657500386238098,-0.34072500467300415
1788107987982666200,4.829666259765625,0.14973749220371246,0.11728750169277191,-0.27953749895095825
1788107987992747500,4.83974755859375,0.13392500579357147,0.014574999921023846,-0.2527250051498413
1788107988002839800,4.84983984375,0.11921250075101852,-0.10876250267028809,-0.27719998359680176
1788107988012926000,4.859926025390625,0.10821250081062317,-0.16981250047683716,-0.3357749879360199
1788107988023010600,4.870010498046875,0.09363749623298645,-0.13928750157356262,-0.39448750019073486
1788107988033098200,4.88009814453125,0.08016250282526016,-0.057475000619888306,-0.4212999939918518
1788107988043194600,4.890194580078125,0.07163749635219574,0.025575000792741776,-0.4127750098705292
1788107988053274600,4.900274658203125,0.06544999778270721,0.05857500061392784,-0.3712500035762787
1788107988063366000,4.910365966796875,0.06421250104904175,0.0635249987244606,-0.2685374915599823
1788107988073455600,4.92045556640625,0.06792499870061874,0.028049999848008156,-0.11948750168085098
1788107988083541000,4.930541015625,0.06792499870061874,-0.040424998849630356,0.02213750034570694
1788107988093635800,4.9406357421875,0.05321250110864639,-0.10271249711513519,0.1381874978542328
1788107988103734800,4.95073486328125,0.020349999889731407,-0.11976250261068344,0.2457125037908554
1788107988113829000,4.9608291015625,-0.023649999871850014,-0.08923749625682831,0.3227125108242035
1788107988123917000,4.9709169921875,-0.0541750006377697,-0.06476250290870667,0.34347498416900635
1788107988134009600,4.981009521484375,-0.04441250115633011,-0.07576250284910202,0.28366249799728394
1788107988144095700,4.991095703125,-0.0005499999970197678,-0.10395000129938126,0.15166249871253967
1788107988154191000,5.001191162109375,0.03987500071525574,-0.1270499974489212,-0.014437500387430191
1788107988164277500,5.011277587890625,0.05444999784231186,-0.12099999934434891,-0.16224999725818634
1788107988174373600,5.02137353515625,0.03739999979734421,-0.07095000147819519,-0.2367749959230423
1788107988184465400,5.03146533203125,-0.006599999964237213,0.014574999921023846,-0.23567499220371246
1788107988194557400,5.041557373046875,-0.0518375001847744,0.05252499878406525,-0.20996250212192535
1788107988204651800,5.05165185546875,-0.07864999771118164,0.02681249938905239,-0.1929125040769577
1788107988214745300,5.061745361328125,-0.08112499862909317,-0.05623750016093254,-0.2087250053882599
1788107988224829700,5.07182958984375,-0.07259999960660934,-0.1307625025510788,-0.2502500116825104
1788107988234916000,5.081916015625,-0.07012499868869781,-0.12952500581741333,-0.3040125072002411
1788107988245010000,5.092010009765625,-0.07383749634027481,-0.07095000147819519,-0.34306249022483826
1788107988255098000,5.10209814453125,-0.07383749634027481,0.0085249999538064,-0.3712500035762787
1788107988265189600,5.112189697265625,-0.06888750195503235,0.07081250101327896,-0.3760625123977661
1788107988275272000,5.12227197265625,-0.07259999960660934,0.08786249905824661,-0.3480125069618225
1788107988285367000,5.132366943359375,-0.06764999777078629,0.0695749968290329,-0.2857249975204468
1788107988295455700,5.142455810546875,-0.05664999783039093,0.025575000792741776,-0.21972499787807465
1788107988305547000,5.152547119140625,-0.045649997889995575,-0.01223750039935112,-0.170912504196167
1788107988315641600,5.1626416015625,-0.048124998807907104,-0.01223750039935112,-0.1256749927997589
1788107988325739500,5.172739501953125,-0.04441250115633011,-0.007424999959766865,-0.09267500042915344
1788107988335833900,5.182833740234375,-0.026124998927116394,0,-0.08896250277757645
1788107988345931000,5.192930908203125,-0.0005499999970197678,-0.007424999959766865,-0.10848750174045563
1788107988356022500,5.2030224609375,0.025162499397993088,-0.037950001657009125,-0.15015000104904175
1788107988366118700,5.21311865234375,0.05087500065565109,-0.07576250284910202,-0.19167499244213104
1788107988376213000,5.223212890625,0.05939999967813492,-0.08195000141859055,-0.2050125002861023
1788107988386313700,5.233313720703125,0.05444999784231186,-0.023237500339746475,-0.15619999170303345
1788107988396395500,5.2433955078125,0.04592499881982803,0.07933750003576279,-0.04138749837875366
1788107988406490600,5.25349072265625,0.0411125011742115,0.14657500386238098,0.07232499867677689
1788107988416574500,5.263574462890625,0.05816249921917915,0.11110000312328339,0.13695000112056732
1788107988426678800,5.2736787109375,0.08621250092983246,-0.008662499487400055,0.1321374922990799
1788107988436776200,5.283776123046875,0.11316250264644623,-0.16128750145435333,0.05884999781847
1788107988446873600,5.29387353515625,0.12292499840259552,-0.26028749346733093,-0.04743750020861626
1788107988456968400,5.303968505859375,0.11563749611377716,-0.22357499599456787,-0.13791249692440033
1788107988467062800,5.314062744140625,0.09597499668598175,-0.07947500050067902,-0.18191249668598175
1788107988477149200,5.324149169921875,0.06187500059604645,0.08304999768733978,-0.18067499995231628
1788107988487247400,5.334247314453125,0.03244999796152115,0.16362500190734863,-0.15015000104904175
1788107988497337000,5.344337158203125,0.017875000834465027,0.14781250059604645,-0.11343749612569809
1788107988507428600,5.3544287109375,0.022687500342726707,0.0340999998152256,-0.09872499853372574
1788107988517512200,5.36451220703125,0.027637500315904617,-0.10395000129938126,-0.0999625027179718
1788107988527607300,5.374607177734375,0.014162499457597733,-0.1564749926328659,-0.09267500042915344
1788107988537699000,5.384698974609375,-0.004124999977648258,-0.10628750175237656,-0.08415000140666962
1788107988547799600,5.394799560546875,-0.013887500390410423,-0.020762499421834946,-0.09143749624490738
1788107988557899300,5.404899169921875,-0.011412499472498894,0.042762499302625656,-0.1256749927997589
1788107988567988700,5.41498876953125,-0.0016499999910593033,0.05609999969601631,-0.1634874939918518
1788107988578084400,5.42508447265625,0.012924999929964542,0.032862499356269836,-0.1769624948501587
1788107988588172500,5.435172607421875,0.011687500402331352,0.01952499896287918,-0.1293874979019165
1788107988598266400,5.445266357421875,-0.007837500423192978,0.03657500073313713,-0.03891250118613243
1788107988608369000,5.455368896484375,-0.03712499886751175,0.07328750193119049,0.08937499672174454
1788107988618451000,5.465450927734375,-0.04936249926686287,0.08910000324249268,0.21642500162124634
1788107988628535000,5.47553515625,-0.040837500244379044,0.06104999780654907,0.28366249799728394
1788107988638630100,5.485630126953125,-0.018837500363588333,-0.029424998909235,0.2994749844074249
1788107988648724000,5.495723876953125,-0.0016499999910593033,-0.1344749927520752,0.27018749713897705
1788107988658810600,5.505810546875,0.0019249999895691872,-0.20652499794960022,0.21271249651908875
1788107988668900600,5.515900634765625,-0.011549999937415123,-0.24928750097751617,0.15537500381469727
1788107988678995000,5.525994873046875,-0.028599999845027924,-0.23100000619888306,0.13337500393390656
1788107988689078500,5.53607861328125,-0.028599999845027924,-0.14794999361038208,0.10766249895095825
1788107988699164400,5.546164306640625,-0.021312499418854713,-0.059950001537799835,0.0648999959230423
1788107988709254700,5.556254638671875,-0.009074999950826168,-0.00494999997317791,0.020899999886751175
1788107988719349500,5.566349609375,0.0031624999828636646,-0.00989999994635582,-0.04496249929070473
1788107988729446000,5.57644580078125,0.012924999929964542,-0.05142499879002571,-0.13048750162124634
1788107988739545000,5.586545166015625,0.012924999929964542,-0.0929500013589859,-0.2172500044107437
1788107988749633800,5.5966337890625,-0.006599999964237213,-0.062424998730421066,-0.26372501254081726
1788107988759731000,5.60673095703125,-0.028599999845027924,0.04386249929666519,-0.25519999861717224
1788107988769810200,5.61681005859375,-0.02983750030398369,0.1648624986410141,-0.18796250224113464
1788107988779897900,5.62689794921875,-0.010312499478459358,0.21133749186992645,-0.09143749624490738
1788107988789998600,5.63699853515625,0.016637500375509262,0.17710000276565552,0.0013749999925494194
1788107988800096000,5.647095947265625,0.03492499887943268,0.09638749808073044,0.10518749803304672
1788107988810180000,5.65718017578125,0.0411125011742115,-0.008662499487400055,0.20418749749660492
1788107988820280800,5.66728076171875,0.03739999979734421,-0.042762499302625656,0.27994999289512634
1788107988830366000,5.677365966796875,0.020212499424815178,0.0085249999538064,0.33976250886917114
1788107988840464000,5.6874638671875,0.006874999962747097,0.0658624991774559,0.37152498960494995
1788107988850546000,5.6975458984375,-0.005362499970942736,0.11233749985694885,0.36547499895095825
1788107988860649200,5.707649169921875,-0.0016499999910593033,0.1013374999165535,0.296999990940094
1788107988870740000,5.717739990234375,0.017875000834465027,0.010999999940395355,0.17737500369548798
1788107988880850200,5.72785009765625,0.021449999883770943,-0.09652499854564667,0.033137500286102295
1788107988890938600,5.737938720703125,0.0006874999962747097,-0.11728750169277191,-0.062150001525878906
1788107988901034800,5.74803466796875,-0.040837500244379044,-0.06476250290870667,-0.06462500244379044
1788107988911122000,5.758121826171875,-0.07864999771118164,0.05004999786615372,0.016087500378489494
1788107988921209300,5.768209228515625,-0.10064999759197235,0.15386250615119934,0.12966249883174896
1788107988931298000,5.778298095703125,-0.10436250269412994,0.18191249668598175,0.23471249639987946
1788107988941396500,5.788396484375,-0.07617499679327011,0.11604999750852585,0.3031874895095825
1788107988951479800,5.798479736328125,-0.045649997889995575,-0.01718750037252903,0.32023748755455017
1788107988961565200,5.808565185546875,-0.026124998927116394,-0.14176249504089355,0.3104749917984009
1788107988971661000,5.8186611328125,-0.018837500363588333,-0.16005000472068787,0.31776249408721924
1788107988981751800,5.828751708984375,-0.010312499478459358,-0.12223749607801437,0.34718748927116394
1788107988991848700,5.8388486328125,-0.012649999931454659,-0.035475000739097595,0.4057624936103821
1788107989001938400,5.8489384765625,-0.005362499970942736,0.02186249941587448,0.43876248598098755
1788107989012041700,5.859041748046875,0.014162499457597733,0.028049999848008156,0.43876248598098755
1788107989022134500,5.869134521484375,0.020212499424815178,-0.015949999913573265,0.4204750061035156
1788107989032221700,5.8792216796875,0.030112499371170998,-0.07947500050067902,0.37400001287460327
1788107989042314800,5.889314697265625,0.03492499887943268,-0.15399999916553497,0.30566251277923584
1788107989052406800,5.89940673828125,0.03739999979734421,-0.21876250207424164,0.24447499215602875
1788107989062498800,5.909498779296875,0.03863750025629997,-0.26028749346733093,0.21037499606609344
1788107989072642300,5.919642333984375,0.04839999973773956,-0.2675749957561493,0.17737500369548798
1788107989082727200,5.92972705078125,0.06063750013709068,-0.2297624945640564,0.13337500393390656
1788107989092822000,5.939822021484375,0.06297499686479568,-0.1979999989271164,0.10284999758005142
1788107989102909200,5.9499091796875,0.06297499686479568,-0.15771250426769257,0.07342500239610672
1788107989113003800,5.960003662109375,0.05211250111460686,-0.12594999372959137,0.04661250114440918
1788107989123090400,5.97009033203125,0.030112499371170998,-0.09047500044107437,0.018562499433755875
1788107989133186800,5.980186767578125,0.019112499430775642,-0.04895000159740448,-0.0034374999813735485
1788107989143281400,5.990281494140625,0.010449999943375587,-0.0147124994546175,-0.002199999988079071
1788107989153380900,6.000380859375,0.010449999943375587,0.014574999921023846,0.01732499897480011
1788107989163466200,6.01046630859375,0.012924999929964542,0.05128749832510948,0.060087498277425766
1788107989173572000,6.020572021484375,0.010449999943375587,0.08662500232458115,0.11866249889135361
1788107989183667500,6.03066748046875,0.009212499484419823,0.09281250089406967,0.18095000088214874
1788107989193755100,6.040755126953125,0.0006874999962747097,0.06833750009536743,0.22990000247955322
1788107989203849200,6.05084912109375,-0.010312499478459358,0.004812499973922968,0.2457125037908554
1788107989213930500,6.060930419921875,-0.010312499478459358,-0.037950001657009125,0.23471249639987946
1788107989224022500,6.0710224609375,-0.0016499999910593033,-0.05623750016093254,0.1993750035762787
1788107989234103300,6.081103271484375,-0.004124999977648258,-0.029424998909235,0.16266250610351562
1788107989244191200,6.091191162109375,-0.018837500363588333,0.045099999755620956,0.1541374921798706
1788107989254279000,6.10127880859375,-0.03959999978542328,0.1270499974489212,0.17489999532699585
1788107989264371700,6.111371826171875,-0.045649997889995575,0.1648624986410141,0.22013749182224274
1788107989274462200,6.121462158203125,-0.03341250121593475,0.15757499635219574,0.25671249628067017
1788107989284554200,6.13155419921875,-0.0016499999910593033,0.12086249887943268,0.27018749713897705
1788107989294654200,6.141654296875,0.03739999979734421,0.023099999874830246,0.25423750281333923
1788107989304754200,6.151754150390625,0.07163749635219574,-0.07823749631643295,0.18947499990463257
1788107989314846200,6.16184619140625,0.09968750178813934,-0.13695000112056732,0.0906125009059906
1788107989324947700,6.17194775390625,0.11550000309944153,-0.16981250047683716,-0.030387500301003456
1788107989335039500,6.18203955078125,0.11316250264644623,-0.1405249983072281,-0.12443749606609344
1788107989345131500,6.192131591796875,0.09597499668598175,-0.045237500220537186,-0.1611499935388565
1788107989355216000,6.2022158203125,0.07644999772310257,0.06104999780654907,-0.1256749927997589
1788107989365307000,6.212306884765625,0.05692499876022339,0.14409999549388885,-0.04138749837875366
1788107989375389400,6.222389404296875,0.05197500064969063,0.15386250615119934,0.06366249918937683
1788107989385479400,6.2324794921875,0.05939999967813492,0.0976250022649765,0.15661250054836273
1788107989395573200,6.2425732421875,0.0789249986410141,0.0035749999806284904,0.22123749554157257
1788107989405670700,6.252670654296875,0.10092499852180481,-0.10271249711513519,0.26042500138282776
1788107989415762400,6.262762451171875,0.1046374961733818,-0.15771250426769257,0.272662490606308
1788107989425846800,6.2728466796875,0.09721250087022781,-0.12223749607801437,0.28600001335144043
1788107989435936000,6.28293603515625,0.07768750190734863,-0.042762499302625656,0.29218751192092896
1788107989446028000,6.293028076171875,0.03987500071525574,0.0340999998152256,0.2946625053882599
1788107989456123100,6.303123046875,0.011687500402331352,0.08304999768733978,0.2689499855041504
1788107989466213400,6.31321337890625,-0.007837500423192978,0.05252499878406525,0.22247499227523804
1788107989476307700,6.3233076171875,-0.0005499999970197678,-0.0317624993622303,0.15289999544620514
1788107989486401500,6.333401611328125,-0.0016499999910593033,-0.10876250267028809,0.08208750188350677
1788107989496495400,6.343495361328125,-0.016362499445676804,-0.14423750340938568,0.02213750034570694
1788107989506586000,6.353586181640625,-0.038362499326467514,-0.11852499842643738,0.00013749999925494194
1788107989516683000,6.36368310546875,-0.07012499868869781,-0.05142499879002571,0.008662499487400055
1788107989526782000,6.373781982421875,-0.09088750183582306,0.028049999848008156,0.045375000685453415
1788107989536866800,6.38386669921875,-0.08717499673366547,0.08662500232458115,0.08318749815225601
1788107989546971100,6.39397119140625,-0.07136250287294388,0.07933750003576279,0.13089999556541443
1788107989557057000,6.40405712890625,-0.07864999771118164,0.0317624993622303,0.19071249663829803
1788107989567159000,6.414158935546875,-0.09212499856948853,-0.0147124994546175,0.27018749713897705
1788107989577243400,6.424243408203125,-0.09707500040531158,-0.06847500056028366,0.3349500000476837
1788107989587338200,6.434338134765625,-0.08841250091791153,-0.10876250267028809,0.3581874966621399
1788107989597421600,6.444421630859375,-0.07617499679327011,-0.13695000112056732,0.31776249408721924
1788107989607509500,6.454509521484375,-0.0835999995470047,-0.1344749927520752,0.2579500079154968
1788107989617600800,6.464600830078125,-0.09459999948740005,-0.11618749797344208,0.20666250586509705
1788107989627699200,6.47469921875,-0.1153625026345253,-0.057475000619888306,0.1541374921798706
1788107989637798400,6.48479833984375,-0.1311749964952469,0.002337499987334013,0.10408750176429749
1788107989647894000,6.49489404296875,-0.1373624950647354,0.030524998903274536,0.06613750010728836
1788107989657992200,6.5049921875,-0.1471250057220459,0.06462500244379044,0.055137500166893005
1788107989668093700,6.51509375,-0.15565000474452972,0.08181250095367432,0.057612501084804535
1788107989678193400,6.525193359375,-0.14836250245571136,0.05486249923706055,0.06861250102519989
1788107989688295700,6.535295654296875,-0.12388750165700912,0.002337499987334013,0.062424998730421066
1788107989698385000,6.545385009765625,-0.10188750177621841,-0.02199999988079071,0.0648999959230423
1788107989708475400,6.555475341796875,-0.0798875018954277,-0.00494999997317791,0.09418749809265137
1788107989718568400,6.565568359375,-0.05912499874830246,0.0317624993622303,0.15166249871253967
1788107989728662000,6.575662109375,-0.04207500070333481,0.059812501072883606,0.19689999520778656
1788107989738752000,6.585751953125,-0.02488750033080578,0.04633750021457672,0.21037499606609344
1788107989748843300,6.59584326171875,-0.018837500363588333,0.035337500274181366,0.2079000025987625
1788107989758931000,6.605930908203125,-0.010312499478459358,0.01952499896287918,0.21518750488758087
1788107989769024500,6.6160244140625,-0.006599999964237213,-0.018424998968839645,0.201712504029274
1788107989779107600,6.626107666015625,-0.0028874999843537807,-0.042762499302625656,0.15895000100135803
1788107989789199400,6.636199462890625,-0.011549999937415123,-0.042762499302625656,0.09542500227689743
1788107989799286300,6.646286376953125,-0.035887498408555984,-0.029424998909235,0.038087498396635056
1788107989809383000,6.6563828125,-0.06407500058412552,0.0085249999538064,-0.005912499967962503
1788107989819468800,6.66646875,-0.08112499862909317,0.037812501192092896,-0.0340999998152256
1788107989829565400,6.6765654296875,-0.07864999771118164,0.047575000673532486,-0.06338749825954437
1788107989839649300,6.686649169921875,-0.07617499679327011,0.042762499302625656,-0.09638749808073044
1788107989849746700,6.69674658203125,-0.07864999771118164,0.0340999998152256,-0.12196250259876251
1788107989859832600,6.70683251953125,-0.0835999995470047,0.05857500061392784,-0.12691250443458557
1788107989869930000,6.716929931640625,-0.0835999995470047,0.10986249893903732,-0.1036750003695488
1788107989880009200,6.72700927734375,-0.05912499874830246,0.15633749961853027,-0.05843750014901161
1788107989890099200,6.73709912109375,-0.018837500363588333,0.1611499935388565,-0.023099999874830246
1788107989900187600,6.747187744140625,0.026399999856948853,0.12457499653100967,-0.008387500420212746
1788107989910289000,6.757288818359375,0.05087500065565109,0.07933750003576279,0.013612499460577965
1788107989920390000,6.767389892578125,0.05816249921917915,0.04881250113248825,0.04413750022649765
1788107989930489600,6.777489501953125,0.05816249921917915,0.025575000792741776,0.05142499879002571
1788107989940589300,6.78758935546875,0.0752125009894371,0.014574999921023846,0.02708750031888485
1788107989950687700,6.797687744140625,0.09597499668598175,0.004812499973922968,-0.027912499383091927
1788107989960789200,6.807789306640625,0.1106875017285347,-0.015949999913573265,-0.11219999939203262
1788107989970880300,6.81788037109375,0.1143999993801117,-0.057475000619888306,-0.20019999146461487
1788107989980958000,6.8279580078125,0.10573749989271164,-0.1307625025510788,-0.27719998359680176
1788107989991048000,6.8380478515625,0.09844999760389328,-0.201712504029274,-0.34677499532699585
1788107990001145900,6.848145751953125,0.08621250092983246,-0.21147499978542328,-0.4188250005245209
1788107990011237400,6.8582373046875,0.0752125009894371,-0.17723749577999115,-0.4885374903678894
1788107990021334500,6.86833447265625,0.07163749635219574,-0.12828749418258667,-0.5128750205039978
1788107990031419400,6.87841943359375,0.07039999961853027,-0.059950001537799835,-0.4811125099658966
1788107990041518000,6.88851806640625,0.07397499680519104,0.025575000792741776,-0.39201250672340393
1788107990051609600,6.898609619140625,0.06668750196695328,0.12333749979734421,-0.234437495470047
1788107990061708300,6.908708251953125,0.05816249921917915,0.17957499623298645,-0.0193875003606081
1788107990071794000,6.9187939453125,0.05087500065565109,0.1648624986410141,0.1821874976158142
1788107990081887000,6.928886962890625,0.07039999961853027,0.10257499665021896,0.3067624866962433
1788107990091970600,6.938970458984375,0.10339999943971634,-0.0037124999798834324,0.353237509727478
1788107990102061600,6.9490615234375,0.14492499828338623,-0.14300000667572021,0.3361875116825104
1788107990112153300,6.9591533203125,0.19373749196529388,-0.2737624943256378,0.26647499203681946
1788107990122239500,6.969239501953125,0.20102499425411224,-0.32133749127388,0.20047499239444733
1788107990132330200,6.979330322265625,0.16692499816417694,-0.28476250171661377,0.19813749194145203
1788107990142438400,6.9894384765625,0.12416250258684158,-0.20528750121593475,0.23966249823570251
1788107990152527000,6.999527099609375,0.09473749995231628,-0.12099999934434891,0.25189998745918274
1788107990162622500,7.00962255859375,0.09116250276565552,-0.06971249729394913,0.18947499990463257
1788107990172707800,7.019707763671875,0.09473749995231628,-0.06971249729394913,0.08208750188350677
1788107990182790700,7.029790771484375,0.08621250092983246,-0.15771250426769257,-0.04743750020861626
1788107990192875800,7.039875732421875,0.07768750190734863,-0.28228750824928284,-0.1769624948501587
1788107990202970600,7.049970703125,0.06063750013709068,-0.3825249969959259,-0.2564375102519989
1788107990213061600,7.0600615234375,0.03244999796152115,-0.4068624973297119,-0.26001250743865967
1788107990223156000,7.070156005859375,0.006874999962747097,-0.3825249969959259,-0.21601249277591705
1788107990233240000,7.080239990234375,-0.010312499478459358,-0.29081249237060547,-0.15372499823570251
1788107990243332000,7.09033203125,-0.012787500396370888,-0.1722874939441681,-0.09872499853372574
1788107990253419500,7.10041943359375,0.0006874999962747097,-0.050187498331069946,-0.05362499877810478
1788107990263506000,7.110505859375,0.009212499484419823,0.02681249938905239,-0.004674999974668026
1788107990273599500,7.120599609375,0.004399999976158142,0.05857500061392784,0.05142499879002571
1788107990283699200,7.13069921875,0.0056374999694526196,0.05362499877810478,0.09790000319480896
1788107990293795300,7.14079541015625,0.020212499424815178,0.0085249999538064,0.11866249889135361
1788107990303887400,7.150887451171875,0.04221250116825104,-0.06847500056028366,0.10395000129938126
1788107990313971200,7.16097119140625,0.06297499686479568,-0.13805000483989716,0.07218749821186066
1788107990324060200,7.17106005859375,0.06668750196695328,-0.1625249981880188,0.06132499873638153
1788107990334158800,7.181158935546875,0.04468749836087227,-0.16128750145435333,0.07837499678134918
1788107990344242000,7.191241943359375,0.009212499484419823,-0.13199999928474426,0.12113749980926514
1788107990354337800,7.201337890625,-0.007837500423192978,-0.06971249729394913,0.13695000112056732
1788107990364430000,7.21143017578125,-0.007837500423192978,-0.0037124999798834324,0.11742500215768814
1788107990374529300,7.221529296875,0.015399999916553497,-0.015949999913573265,0.050324998795986176
1788107990384621000,7.23162109375,0.04592499881982803,-0.057475000619888306,-0.06091250106692314
1788107990394715400,7.24171533203125,0.07163749635219574,-0.0672374963760376,-0.1671999990940094
1788107990404807200,7.25180712890625,0.09968750178813934,-0.07947500050067902,-0.2502500116825104
1788107990414898000,7.26189794921875,0.12773749232292175,-0.0989999994635582,-0.3297249972820282
1788107990424990200,7.271990234375,0.15592500567436218,-0.09418749809265137,-0.4152500033378601
1788107990435079000,7.282078857421875,0.18150000274181366,-0.10395000129938126,-0.5153499841690063
1788107990445170400,7.29217041015625,0.18892499804496765,-0.11495000123977661,-0.5886374711990356
1788107990455255600,7.302255615234375,0.18521249294281006,-0.11728750169277191,-0.599637508392334
1788107990465351200,7.31235107421875,0.18892499804496765,-0.09171249717473984,-0.5568749904632568
1788107990475441700,7.322441650390625,0.18892499804496765,-0.015949999913573265,-0.47753748297691345
1788107990485540000,7.3325400390625,0.16073749959468842,0.09033749997615814,-0.34072500467300415
1788107990495632600,7.342632568359375,0.12540000677108765,0.14038750529289246,-0.16967499256134033
1788107990505732400,7.352732421875,0.1069749966263771,0.12209999561309814,-0.03519999980926514
1788107990525916700,7.372916748046875,0.06792499870061874,0.007287499960511923,0.14190000295639038
1788107990536007000,7.3830068359375,0.031212499365210533,0.020762499421834946,0.2457125037908554
1788107990546094800,7.3930947265625,-0.011549999937415123,0.08304999768733978,0.353237509727478
1788107990556183000,7.40318310546875,-0.048124998807907104,0.14904999732971191,0.42294999957084656
1788107990566279700,7.41327978515625,-0.057887498289346695,0.1905750036239624,0.4314749836921692
1788107990576370200,7.4233701171875,-0.03959999978542328,0.2149125039577484,0.3727625012397766
1788107990586466000,7.433466064453125,-0.013887500390410423,0.210099995136261,0.24695000052452087
1788107990596545300,7.443545166015625,-0.0017874999903142452,0.16981250047683716,0.08689999580383301
1788107990606644700,7.453644775390625,0.0019249999895691872,0.11838749796152115,-0.07686249911785126
1788107990616738800,7.46373876953125,-0.011549999937415123,0.08181250095367432,-0.2246749997138977
1788107990626878500,7.47387841796875,-0.03231250122189522,0.06104999780654907,-0.3235374987125397
1788107990636956400,7.483956298828125,-0.05912499874830246,0.05252499878406525,-0.3895374834537506
1788107990647051800,7.4940517578125,-0.0835999995470047,0.07081250101327896,-0.4188250005245209
1788107990657139700,7.5041396484375,-0.09336250275373459,0.10862500220537186,-0.42253750562667847
1788107990667239400,7.514239501953125,-0.08607500046491623,0.11357499659061432,-0.4054875075817108
1788107990677333000,7.5243330078125,-0.07383749634027481,0.1391499936580658,-0.36024999618530273
1788107990687428600,7.5344287109375,-0.05912499874830246,0.14409999549388885,-0.3162499964237213
1788107990697511400,7.544511474609375,-0.038362499326467514,0.13433749973773956,-0.2624875009059906
1788107990707609600,7.554609619140625,-0.020075000822544098,0.11233749985694885,-0.2087250053882599
1788107990717700400,7.564700439453125,-0.012787500396370888,0.08910000324249268,-0.16596250236034393
1788107990727800000,7.574800048828125,-0.012787500396370888,0.07562500238418579,-0.13667500019073486
1788107990737890600,7.584890625,-0.023649999871850014,0.08538749814033508,-0.11096250265836716
1788107990747987700,7.59498779296875,-0.03231250122189522,0.10257499665021896,-0.10243749618530273
1788107990758079000,7.605078857421875,-0.03231250122189522,0.11481250077486038,-0.12319999933242798
1788107990768173300,7.61517333984375,-0.016362499445676804,0.08538749814033508,-0.18424999713897705
1788107990778250500,7.62525048828125,-0.005362499970942736,0.0340999998152256,-0.28325000405311584
1788107990788344800,7.6353447265625,-0.006599999964237213,0.010862499475479126,-0.3760625123977661
1788107990798437400,7.645437255859375,-0.007837500423192978,-0.0037124999798834324,-0.4395875036716461
1788107990808523500,7.6555234375,-0.012787500396370888,-0.006187499966472387,-0.4763000011444092
1788107990818611200,7.665611083984375,-0.007837500423192978,0.007287499960511923,-0.5202999711036682
1788107990828706800,7.675706787109375,0.0031624999828636646,0.0317624993622303,-0.5435374975204468
1788107990838796300,7.68579638671875,0.004399999976158142,0.05362499877810478,-0.5238749980926514
1788107990848890400,7.695890380859375,-0.0005499999970197678,0.013337500393390656,-0.5031124949455261
1788107990858977500,7.7059775390625,-0.011549999937415123,-0.032999999821186066,-0.4713499844074249
1788107990869065700,7.716065673828125,-0.028599999845027924,-0.047712501138448715,-0.42006251215934753
1788107990879150800,7.72615087890625,-0.060362499207258224,-0.032999999821186066,-0.3394874930381775
1788107990889240800,7.73624072265625,-0.09459999948740005,0.020762499421834946,-0.20996250212192535
1788107990899328500,7.74632861328125,-0.10807500034570694,0.05609999969601631,-0.0719124972820282
1788107990909417000,7.7564169921875,-0.09088750183582306,0.07328750193119049,0.05389999970793724
1788107990919499800,7.766499755859375,-0.05664999783039093,0.02681249938905239,0.12113749980926514
1788107990929588500,7.77658837890625,-0.02736249938607216,-0.06847500056028366,0.14066250622272491
1788107990939675600,7.786675537109375,-0.0017874999903142452,-0.1699499934911728,0.13571250438690186
1788107990949772000,7.79677197265625,-0.0017874999903142452,-0.23704999685287476,0.13089999556541443
1788107990959859200,7.806859130859375,-0.01759999990463257,-0.25052499771118164,0.1443749964237213
1788107990969950700,7.81695068359375,-0.035887498408555984,-0.233474999666214,0.15661250054836273
1788107990980032300,7.8270322265625,-0.04207500070333481,-0.18947499990463257,0.14561249315738678
1788107990990127900,7.8371279296875,-0.02736249938607216,-0.15028749406337738,0.09790000319480896
1788107991000216600,7.847216552734375,-0.0017874999903142452,-0.1344749927520752,0.040424998849630356
1788107991010313500,7.8573134765625,0.022687500342726707,-0.13695000112056732,-0.002337499987334013
1788107991020406500,7.867406494140625,0.04097500070929527,-0.16747500002384186,-0.02667500078678131
1788107991030499800,7.877499755859375,0.05444999784231186,-0.19304999709129333,-0.02667500078678131
1788107991040583700,7.887583740234375,0.0752125009894371,-0.20776249468326569,-0.02914999984204769
1788107991050685000,7.897684814453125,0.10216250270605087,-0.21147499978542328,-0.05238749831914902
1788107991060774400,7.9077744140625,0.13392500579357147,-0.22247499227523804,-0.06943749636411667
1788107991070869000,7.917868896484375,0.16321249306201935,-0.2358125001192093,-0.09019999951124191
1788107991080960300,7.927960205078125,0.19744999706745148,-0.22728750109672546,-0.0976250022649765
1788107991091056400,7.938056396484375,0.22426250576972961,-0.19071249663829803,-0.07315000146627426
1788107991101142000,7.94814208984375,0.22550000250339508,-0.1467124968767166,-0.002337499987334013
1788107991111241700,7.95824169921875,0.21326249837875366,-0.08195000141859055,0.08566249907016754
1788107991121340400,7.96834033203125,0.19346250593662262,-0.028324998915195465,0.16885000467300415
1788107991131430700,7.9784306640625,0.18603749573230743,-0.008799999952316284,0.23237499594688416
1788107991141524500,7.9885244140625,0.1835625022649765,-0.0002749999985098839,0.2934249937534332
1788107991151619600,7.99861962890625,0.18603749573230743,0.0364375002682209,0.3301374912261963
1788107991161713200,8.008713134765625,0.2055625021457672,0.07301250100135803,0.3251875042915344
1788107991171813400,8.0188134765625,0.24227499961853027,0.08524999767541885,0.2849000096321106
1788107991181895700,8.028895751953126,0.2777499854564667,0.05348749831318855,0.2116124927997589
1788107991191989200,8.0389892578125,0.3082749843597412,-0.028324998915195465,0.06132499873638153
1788107991202074400,8.049074462890625,0.31556248664855957,-0.10656250268220901,-0.1354375034570694
1788107991212165600,8.05916552734375,0.28984999656677246,-0.1676124930381775,-0.32725000381469727
1788107991222255900,8.069255859375,0.24832500517368317,-0.1615625023841858,-0.4468750059604645
1788107991232339200,8.079339111328125,0.20679999887943268,-0.08208750188350677,-0.5116375088691711
1788107991242424000,8.089424072265626,0.1872749924659729,0.04372499883174896,-0.5446375012397766
1788107991252513000,8.099512939453126,0.19346250593662262,0.12925000488758087,-0.5715875029563904
1788107991262603000,8.10960302734375,0.2055625021457672,0.15619999170303345,-0.582587480545044
1788107991272693000,8.11969287109375,0.2092749923467636,0.1097249984741211,-0.5593500137329102
1788107991282797300,8.12979736328125,0.19827499985694885,0.04619999974966049,-0.48606249690055847
1788107991292892000,8.139891845703126,0.17022499442100525,0.014437500387430191,-0.3723500072956085
1788107991302985000,8.14998486328125,0.12251249700784683,0.08896250277757645,-0.18796250224113464
1788107991313074000,8.160073974609375,0.06393750011920929,0.18906250596046448,0.02956249937415123
1788107991323162400,8.170162353515625,0.01993750035762787,0.22206249833106995,0.23718750476837158
1788107991333252900,8.1802529296875,-0.004537499975413084,0.23182499408721924,0.3936625123023987
1788107991343349200,8.190349365234376,-0.025299999862909317,0.2209624946117401,0.4852375090122223
1788107991353443000,8.200443115234375,-0.025299999862909317,0.1915374994277954,0.5218124985694885
1788107991363533600,8.210533447265625,-0.025299999862909317,0.14024999737739563,0.49252501130104065
1788107991373630500,8.22063037109375,-0.03135000169277191,0.07548750191926956,0.3899500072002411
1788107991383738000,8.230738037109376,-0.04853750020265579,-0.010037500411272049,0.2237125039100647
1788107991393828000,8.240828125,-0.08758749812841415,-0.07108750194311142,0.07713750004768372
1788107991403916000,8.250916015625,-0.11935000121593475,-0.03203750029206276,-0.005912499967962503
1788107991414007600,8.261007568359375,-0.1498750001192093,0.09143749624490738,-0.009624999947845936
1788107991424094500,8.271094482421875,-0.17311249673366547,0.2807750105857849,0.038087498396635056
1788107991434184700,8.281184814453125,-0.1658249944448471,0.468874990940094,0.11261250078678131
1788107991444279000,8.291279052734374,-0.12553749978542328,0.5983999967575073,0.16637499630451202
1788107991454376200,8.301376220703125,-0.06929999589920044,0.5874000191688538,0.19318750500679016
1788107991464473900,8.311473876953125,0.002749999985098839,0.46406251192092896,0.21518750488758087
1788107991474558700,8.321558837890626,0.08098749816417694,0.2307250052690506,0.22618749737739563
1788107991484659000,8.331658935546875,0.15798750519752502,-0.021037500351667404,0.21889999508857727
1788107991494758100,8.341758056640625,0.23375000059604645,-0.19208750128746033,0.20666250586509705
1788107991504849000,8.351848876953126,0.2887499928474426,-0.256850004196167,0.21642500162124634
1788107991514943700,8.36194384765625,0.31556248664855957,-0.2909500002861023,0.2531374990940094
1788107991525036800,8.372036865234374,0.32284998893737793,-0.2751374840736389,0.28366249799728394
1788107991535123000,8.382123046875,0.2923249900341034,-0.24695000052452087,0.2994749844074249
1788107991545215700,8.3922158203125,0.21656249463558197,-0.1993750035762787,0.28737500309944153
1788107991555305000,8.402304931640625,0.12127500027418137,-0.14932499825954437,0.25561249256134033
1788107991565383700,8.4123837890625,0.021175000816583633,-0.0943249985575676,0.2213750034570694
1788107991575466800,8.422466796875,-0.0411125011742115,-0.03932499885559082,0.17242500185966492
1788107991585557200,8.43255712890625,-0.04977500066161156,-0.007562499959021807,0.10408750176429749
1788107991595648300,8.442648193359375,-0.04606249928474426,-0.021037500351667404,0.028324998915195465
1788107991605741000,8.452740966796876,-0.04853750020265579,-0.06613750010728836,-0.013199999928474426
1788107991615824600,8.46282470703125,-0.05829999968409538,-0.12732499837875366,-0.04372499883174896
1788107991625915000,8.472914794921875,-0.0668250024318695,-0.14190000295639038,-0.0681999996304512
1788107991636000800,8.483000732421875,-0.09487500041723251,-0.1223749965429306,-0.05967500060796738
1788107991646086400,8.49308642578125,-0.12430000305175781,-0.0906125009059906,-0.040150001645088196
1788107991656178200,8.50317822265625,-0.14863750338554382,-0.0625625029206276,-0.025437500327825546
1788107991666271700,8.513271728515624,-0.1755875051021576,-0.04427500069141388,-0.009624999947845936
1788107991676359000,8.52335888671875,-0.19882500171661377,-0.025849999859929085,-0.008387500420212746
1788107991686459100,8.533459228515625,-0.2134000062942505,-0.016087500378489494,-0.007149999961256981
1788107991696546600,8.543546630859375,-0.2256374955177307,0.013199999928474426,-0.005912499967962503
1788107991706641000,8.553640869140626,-0.219587504863739,0.05596249923110008,-0.008387500420212746
1788107991716732000,8.56373193359375,-0.20611250400543213,0.11824999749660492,-0.004674999974668026
1788107991726826800,8.57382666015625,-0.19882500171661377,0.19030000269412994,0.002612499985843897
1788107991736911000,8.5839111328125,-0.19139999151229858,0.2110625058412552,0.0013749999925494194
1788107991747006000,8.594005859375,-0.20239999890327454,0.22948749363422394,-0.011962499469518661
1788107991757098000,8.604097900390625,-0.22192500531673431,0.2172500044107437,-0.04496249929070473
1788107991767192000,8.614192138671875,-0.2391124963760376,0.2050125002861023,-0.06091250106692314
1788107991777305600,8.6243056640625,-0.25616249442100525,0.19648750126361847,-0.08524999767541885
1788107991787401200,8.634401123046874,-0.27211248874664307,0.22577500343322754,-0.09267500042915344
1788107991797491200,8.6444912109375,-0.27568748593330383,0.26977500319480896,-0.09019999951124191
1788107991807585300,8.654585205078124,-0.2671625018119812,0.32106250524520874,-0.09748750180006027
1788107991817681400,8.664681396484376,-0.25011250376701355,0.33934998512268066,-0.10615000128746033
1788107991827776000,8.67477587890625,-0.22687499225139618,0.33329999446868896,-0.11824999749660492
1788107991837873700,8.684873779296876,-0.1938749998807907,0.3100624978542328,-0.14024999737739563
1788107991847968000,8.694968017578125,-0.1621125042438507,0.2905375063419342,-0.13667500019073486
1788107991858057000,8.705056884765625,-0.1340624988079071,0.2624875009059906,-0.11824999749660492
1788107991868150800,8.71515087890625,-0.1046374961733818,0.24406249821186066,-0.08648750185966492
1788107991878238700,8.72523876953125,-0.08635000139474869,0.22577500343322754,-0.05115000158548355
1788107991898425900,8.74542578125,-0.08030000329017639,0.2012999951839447,0.012374999932944775
1788107991908515800,8.755515869140625,-0.06806249916553497,0.1597750037908554,0.03684999793767929
1788107991918606800,8.76560693359375,-0.05829999968409538,0.12677499651908875,0.047849997878074646
1788107991928705500,8.77570556640625,-0.06077500060200691,0.1097249984741211,0.052799999713897705
1788107991938798800,8.785798828125,-0.06077500060200691,0.10724999755620956,0.04413750022649765
1788107991948891000,8.795890869140624,-0.06077500060200691,0.08277499675750732,0.02213750034570694
1788107991958982700,8.805982666015625,-0.07535000145435333,0.04124999791383743,-0.0424874983727932
1788107991969078500,8.81607861328125,-0.08277499675750732,0.021724998950958252,-0.12072499841451645
1788107991979170000,8.826170166015626,-0.08511249721050262,0.015675000846385956,-0.20996250212192535
1788107991989261600,8.836261474609374,-0.1023000031709671,0.008249999955296516,-0.2759625017642975
1788107991999347200,8.84634716796875,-0.12182500213384628,0.027912499383091927,-0.29782500863075256
1788107992009441000,8.85644091796875,-0.13529999554157257,0.07067500054836273,-0.2685374915599823
1788107992019518000,8.86651806640625,-0.12430000305175781,0.10119999945163727,-0.2232999950647354
1788107992029616400,8.876616455078125,-0.10587500035762787,0.11577499657869339,-0.1769624948501587
1788107992039707100,8.88670703125,-0.08511249721050262,0.08524999767541885,-0.11467500030994415
1788107992049800700,8.89680078125,-0.07782500237226486,0.014437500387430191,-0.06338749825954437
1788107992059894300,8.906894287109376,-0.08511249721050262,-0.07479999959468842,-0.01691249944269657
1788107992069989400,8.9169892578125,-0.11453749984502792,-0.13337500393390656,0.025849999859929085
1788107992080071700,8.92707177734375,-0.12911249697208405,-0.15056249499320984,0.0625625029206276
1788107992090160000,8.93716015625,-0.12430000305175781,-0.14932499825954437,0.0845625028014183
1788107992100246500,8.94724658203125,-0.10587500035762787,-0.14066250622272491,0.07590000331401825
1788107992110344000,8.957343994140626,-0.09129999577999115,-0.10656250268220901,0.060087498277425766
1788107992120428500,8.967428466796875,-0.08277499675750732,-0.08703749626874924,0.035612501204013824
1788107992130526200,8.977526123046875,-0.09129999577999115,-0.07603749632835388,0.011137500405311584
1788107992140612600,8.987612548828125,-0.10958749800920486,-0.0906125009059906,-0.025437500327825546
1788107992150705200,8.997705078125,-0.1303499937057495,-0.07713750004768372,-0.05967500060796738
1788107992160796200,9.007796142578124,-0.14863750338554382,-0.052799999713897705,-0.07548750191926956
1788107992170888400,9.017888427734375,-0.16940000653266907,-0.011274999938905239,-0.05472499877214432
1788107992180982500,9.027982421875,-0.17311249673366547,0.018149999901652336,-0.0424874983727932
1788107992191081700,9.038081787109375,-0.15482500195503235,0.004674999974668026,-0.04496249929070473
1788107992201169000,9.0481689453125,-0.11811249703168869,-0.02708750031888485,-0.0719124972820282
1788107992211266300,9.058266357421875,-0.06929999589920044,-0.06737499684095383,-0.12443749606609344
1788107992221356300,9.068356201171875,-0.015537500381469727,-0.12113749980926514,-0.18301250040531158
1788107992231448300,9.0784482421875,0.01993750035762787,-0.14066250622272491,-0.22453749179840088
1788107992241537500,9.08853759765625,0.043175000697374344,-0.11990000307559967,-0.23319999873638153
1788107992251634200,9.09863427734375,0.04922499880194664,-0.05403750017285347,-0.20253749191761017
1788107992261723000,9.108722900390624,0.0541750006377697,0.013199999928474426,-0.14396250247955322
1788107992271814700,9.118814697265625,0.06146249920129776,0.04124999791383743,-0.07067500054836273
1788107992281910800,9.128910888671875,0.07369999587535858,0.0424874983727932,-0.002199999988079071
1788107992292002000,9.139001953125,0.0882750004529953,0.02419999986886978,0.033137500286102295
1788107992302141400,9.149141357421875,0.10175000131130219,-0.0038499999791383743,0.042899999767541885
1788107992312232400,9.159232421875,0.11879999935626984,-0.04661250114440918,0.033137500286102295
1788107992322314800,9.169314697265625,0.13846249878406525,-0.08937499672174454,-0.009624999947845936
1788107992332407800,9.17940771484375,0.1592250019311905,-0.11384999752044678,-0.07548750191926956
1788107992342493000,9.189492919921875,0.1592250019311905,-0.1297999918460846,-0.1317249983549118
1788107992352579300,9.199579345703125,0.12870000302791595,-0.12484999746084213,-0.16596250236034393
1788107992362679600,9.209679443359375,0.09075000137090683,-0.10779999941587448,-0.18548749387264252
1788107992372769800,9.219769775390626,0.05898749828338623,-0.06984999775886536,-0.18672500550746918
1788107992382861300,9.229861328125,0.038224998861551285,-0.03203750029206276,-0.16224999725818634
1788107992392957700,9.239957763671875,0.040699999779462814,-0.045375000685453415,-0.13667500019073486
1788107992403054600,9.2500546875,0.05898749828338623,-0.08703749626874924,-0.11343749612569809
1788107992413142800,9.260142822265625,0.09075000137090683,-0.15289999544620514,-0.10848750174045563
1788107992423235000,9.270235107421875,0.12622499465942383,-0.25189998745918274,-0.14877499639987946
1788107992433319000,9.28031884765625,0.1396999955177307,-0.33137500286102295,-0.2087250053882599
1788107992443408400,9.290408447265625,0.13227500021457672,-0.38142499327659607,-0.26001250743865967
1788107992453492000,9.300491943359376,0.10051249712705612,-0.37894999980926514,-0.3100624978542328
1788107992463574500,9.310574462890624,0.03698749840259552,-0.3081375062465668,-0.3577750027179718
1788107992473671000,9.3206708984375,-0.03753750026226044,-0.2079000025987625,-0.3735874891281128
1788107992483759900,9.330759765625,-0.1083500012755394,-0.10284999758005142,-0.3614875078201294
1788107992493848800,9.340848876953125,-0.14863750338554382,0.004674999974668026,-0.322299987077713
1788107992503938000,9.35093798828125,-0.15729999542236328,0.06943749636411667,-0.26001250743865967
1788107992514033000,9.361032958984374,-0.14011250436306,0.1036750003695488,-0.1732500046491623
1788107992524119300,9.371119384765626,-0.10958749800920486,0.09872499853372574,-0.09143749624490738
1788107992534214000,9.3812138671875,-0.09377499669790268,0.08043749630451202,-0.02667500078678131
1788107992544307200,9.39130712890625,-0.09982500225305557,0.04372499883174896,0.03932499885559082
1788107992554404000,9.401404052734375,-0.12306249886751175,0.01924999989569187,0.1358499974012375
1788107992564497700,9.41149755859375,-0.15482500195503235,0.015675000846385956,0.23594999313354492
1788107992574590000,9.42158984375,-0.18039999902248383,0.0364375002682209,0.31790000200271606
1788107992584685600,9.431685546875,-0.19016249477863312,0.05843750014901161,0.37400001287460327
1788107992594778000,9.441778076171875,-0.19016249477863312,0.0681999996304512,0.4179999828338623
1788107992604871200,9.45187109375,-0.1816374957561493,0.0681999996304512,0.4362874925136566
1788107992614960400,9.46196044921875,-0.17806249856948853,0.05719999969005585,0.4314749836921692
1788107992625057500,9.4720576171875,-0.17434999346733093,0.05596249923110008,0.4057624936103821
1788107992635142100,9.48214208984375,-0.18411250412464142,0.05348749831318855,0.36918750405311584
1788107992645228500,9.492228515625,-0.2073500007390976,0.05224999785423279,0.32394999265670776
1788107992655317200,9.502317138671875,-0.24034999310970306,0.06696250289678574,0.2751374840736389
1788107992665408500,9.512408447265624,-0.2671625018119812,0.08167500048875809,0.2274249941110611
1788107992675494100,9.522494140625,-0.28187498450279236,0.09143749624490738,0.17737500369548798
1788107992685560300,9.532560302734375,-0.2843500077724457,0.1097249984741211,0.13708749413490295
1788107992695651600,9.542651611328125,-0.2733500003814697,0.14024999737739563,0.1163249984383583
1788107992705755100,9.552755126953125,-0.25987499952316284,0.18906250596046448,0.1358499974012375
1788107992715844900,9.562844970703125,-0.25011250376701355,0.258774995803833,0.19085000455379486
1788107992725956600,9.57295654296875,-0.23787499964237213,0.31735000014305115,0.26647499203681946
1788107992736051000,9.583051025390626,-0.22316250205039978,0.3345375061035156,0.34347498416900635
1788107992746139400,9.593139404296876,-0.1975875049829483,0.30153748393058777,0.38266250491142273
1788107992756232700,9.603232666015625,-0.16830000281333923,0.2330625057220459,0.3581874966621399
1788107992766329600,9.61332958984375,-0.1498750001192093,0.17448750138282776,0.29589998722076416
1788107992776423700,9.623423583984374,-0.12911249697208405,0.12196250259876251,0.22495000064373016
1788107992786516700,9.633516845703125,-0.11935000121593475,0.09748750180006027,0.15537500381469727
1788107992796602400,9.643602294921875,-0.1340624988079071,0.1036750003695488,0.0943249985575676
1788107992806703400,9.653703369140626,-0.15963749587535858,0.14396250247955322,0.06132499873638153
1788107992816786400,9.663786376953125,-0.19139999151229858,0.1915374994277954,0.05637500062584877
1788107992826884900,9.673884765625,-0.22687499225139618,0.2209624946117401,0.05884999781847
1788107992836970500,9.683970458984374,-0.2536875009536743,0.19401249289512634,0.04413750022649765
1788107992847070500,9.694070556640625,-0.2574000060558319,0.11948750168085098,0.002612499985843897
1788107992857157400,9.704157470703125,-0.2391124963760376,0.02419999986886978,-0.06338749825954437
1788107992867255800,9.714255859375,-0.2134000062942505,-0.045375000685453415,-0.1317249983549118
1788107992877346300,9.72434619140625,-0.19139999151229858,-0.08208750188350677,-0.16843749582767487
1788107992887436300,9.734436279296874,-0.16087499260902405,-0.11013749986886978,-0.19277499616146088
1788107992897514500,9.744514404296876,-0.12306249886751175,-0.12732499837875366,-0.22824999690055847
1788107992907614000,9.754614013671874,-0.10106249898672104,-0.1321374922990799,-0.26372501254081726
1788107992917702000,9.764701904296874,-0.09377499669790268,-0.09679999947547913,-0.24296249449253082
1788107992927803100,9.77480322265625,-0.09377499669790268,-0.050324998795986176,-0.1769624948501587
1788107992937893600,9.7848935546875,-0.09253749996423721,-0.0002749999985098839,-0.08772499859333038
1788107992947980800,9.794980712890625,-0.07411249727010727,0.05596249923110008,0.006324999965727329
1788107992958082600,9.80508251953125,-0.027775000780820847,0.07548750191926956,0.10656250268220901
1788107992968183800,9.815183837890626,0.018699999898672104,0.05472499877214432,0.2116124927997589
1788107992978278400,9.8252783203125,0.056512501090765,0.013199999928474426,0.30566251277923584
1788107992988377900,9.8353779296875,0.07603749632835388,-0.021037500351667404,0.39118748903274536
1788107992998465500,9.845465576171875,0.08098749816417694,-0.05637500062584877,0.4497624933719635
1788107993008550100,9.855550048828125,0.08470000326633453,-0.07713750004768372,0.4582875072956085
1788107993018642000,9.865641845703125,0.09322500228881836,-0.0845625028014183,0.4217124879360199
1788107993028730000,9.875730224609375,0.10903749614953995,-0.10656250268220901,0.3312374949455261
1788107993038825500,9.885825439453125,0.13103750348091125,-0.1297999918460846,0.19813749194145203
1788107993048911000,9.8959111328125,0.14822499454021454,-0.14190000295639038,0.050324998795986176
1788107993058997000,9.9059970703125,0.15674999356269836,-0.1297999918460846,-0.09872499853372574
1788107993069087700,9.916087646484375,0.16651250422000885,-0.10779999941587448,-0.22948749363422394
1788107993079179000,9.926178955078125,0.18603749573230743,-0.10408750176429749,-0.33329999446868896
1788107993089256000,9.936255859375,0.2092749923467636,-0.10889999568462372,-0.40411248803138733
1788107993099342800,9.9463427734375,0.2227499932050705,-0.14561249315738678,-0.4273499846458435
1788107993109430300,9.95643017578125,0.22398750483989716,-0.18232500553131104,-0.39682498574256897
1788107993119520300,9.966520263671875,0.2250874936580658,-0.2213750034570694,-0.3443000018596649
1788107993129609700,9.976609619140625,0.23732499778270721,-0.2433750033378601,-0.2747249901294708
1788107993139707100,9.98670703125,0.2593249976634979,-0.25189998745918274,-0.195250004529953
1788107993149786600,9.99678662109375,0.2825624942779541,-0.281187504529953,-0.14272500574588776
1788107993159873800,10.006873779296875,0.29727500677108765,-0.3007124960422516,-0.12691250443458557
1788107993169959200,10.016959228515624,0.29961249232292175,-0.2983750104904175,-0.13901250064373016
1788107993180056800,10.027056884765624,0.2910875082015991,-0.27390000224113464,-0.17077499628067017
1788107993190137900,10.037137939453125,0.2765125036239624,-0.24818749725818634,-0.21119999885559082
1788107993200235300,10.0472353515625,0.24956250190734863,-0.22384999692440033,-0.2527250051498413
1788107993210320600,10.057320556640626,0.2153249979019165,-0.19085000455379486,-0.28929999470710754
1788107993220410600,10.06741064453125,0.1775124967098236,-0.15908749401569366,-0.3077250123023987
1788107993230497500,10.07749755859375,0.13722500205039978,-0.1297999918460846,-0.30153748393058777
1788107993240589600,10.087589599609375,0.09927500039339066,-0.09913749992847443,-0.26606249809265137
1788107993250677000,10.097677001953125,0.08098749816417694,-0.06503749638795853,-0.1989624947309494
1788107993260773600,10.107773681640625,0.07851249724626541,-0.04179999977350235,-0.11591249704360962
1788107993270857200,10.117857177734376,0.082225002348423,-0.028324998915195465,-0.01691249944269657
1788107993280953300,10.127953369140625,0.0882750004529953,-0.013612499460577965,0.08937499672174454
1788107993291047700,10.138047607421875,0.08951249718666077,-0.016087500378489494,0.1956624984741211
1788107993301139200,10.14813916015625,0.09569999575614929,-0.04179999977350235,0.27994999289512634
1788107993311238400,10.15823828125,0.10422500222921371,-0.08208750188350677,0.32999998331069946
1788107993321328400,10.168328369140625,0.10546249896287918,-0.10656250268220901,0.35942500829696655
1788107993331419400,10.17841943359375,0.10422500222921371,-0.13337500393390656,0.36918750405311584
1788107993341515800,10.188515869140625,0.0859375,-0.1480875015258789,0.36918750405311584
1788107993351607800,10.19860791015625,0.06517499685287476,-0.14079999923706055,0.3667125105857849
1788107993361695700,10.20869580078125,0.047987498342990875,-0.1321374922990799,0.3484250009059906
1788107993371792600,10.218792724609376,0.02722499892115593,-0.10532499849796295,0.328900009393692
1788107993381888500,10.228888427734375,0.016224998980760574,-0.08208750188350677,0.31790000200271606
1788107993391992300,10.238992431640625,0.01993750035762787,-0.06503749638795853,0.31171250343322754
1788107993402069800,10.24906982421875,0.028462499380111694,-0.06379999965429306,0.2994749844074249
1788107993412164400,10.259164306640624,0.050462499260902405,-0.10284999758005142,0.2763749957084656
1788107993422248700,10.269248779296875,0.06875000149011612,-0.18837499618530273,0.19318750500679016
1788107993432342300,10.27934228515625,0.05898749828338623,-0.22261250019073486,0.0845625028014183
1788107993442424300,10.28942431640625,0.035750001668930054,-0.22618749737739563,-0.03519999980926514
1788107993452579300,10.299579345703124,-0.007012499962002039,-0.1993750035762787,-0.14877499639987946
1788107993462669600,10.309669677734375,-0.05953750014305115,-0.13956250250339508,-0.26001250743865967
1788107993472754400,10.31975439453125,-0.1023000031709671,-0.06861250102519989,-0.35282498598098755
1788107993482841900,10.329841796875,-0.14011250436306,-0.023512499406933784,-0.43230000138282776
1788107993492944400,10.3399443359375,-0.17434999346733093,0.020487500354647636,-0.48606249690055847
1788107993503025700,10.350025634765625,-0.1975875049829483,0.02914999984204769,-0.5324000120162964
1788107993513113900,10.36011376953125,-0.21463750302791595,0.02667500078678131,-0.5654000043869019
1788107993523207400,10.37020751953125,-0.22316250205039978,0.020487500354647636,-0.582587480545044
1788107993533305900,10.380305908203125,-0.2256374955177307,0.01924999989569187,-0.5776374936103821
1788107993543393300,10.390393310546875,-0.23539999127388,0.02419999986886978,-0.5618249773979187
1788107993553518300,10.400518310546875,-0.2623499929904938,0.04496249929070473,-0.5226374864578247
1788107993563610000,10.410610107421874,-0.2891624867916107,0.0644875019788742,-0.4591124951839447
1788107993573707300,10.420707275390624,-0.30992498993873596,0.11824999749660492,-0.3797749876976013
1788107993583790300,10.430790283203125,-0.33192500472068787,0.19648750126361847,-0.267300009727478
1788107993593886500,10.440886474609375,-0.3404499888420105,0.258774995803833,-0.12072499841451645
1788107993603976400,10.4509765625,-0.33563750982284546,0.28806251287460327,0.06379999965429306
1788107993614060300,10.461060302734374,-0.3258749842643738,0.29534998536109924,0.2774749994277954
1788107993624152000,10.471152099609375,-0.30744999647140503,0.25382500886917114,0.491287499666214
1788107993634250000,10.48125,-0.283112496137619,0.15248750150203705,0.6905249953269958
1788107993644337200,10.491337158203125,-0.2586374878883362,0.05224999785423279,0.8456249833106995
1788107993654432800,10.501432861328125,-0.2391124963760376,-0.02956249937415123,0.9384375214576721
1788107993664515800,10.511515869140625,-0.2256374955177307,-0.11013749986886978,0.9629124999046326
1788107993674608000,10.521608154296874,-0.22192500531673431,-0.18837499618530273,0.9054374694824219
1788107993684698400,10.531698486328125,-0.2293500006198883,-0.22990000247955322,0.7796249985694885
1788107993694791200,10.541791259765626,-0.24034999310970306,-0.24584999680519104,0.5830000042915344
1788107993704887300,10.55188720703125,-0.26358750462532043,-0.22261250019073486,0.3484250009059906
1788107993714975200,10.561975341796876,-0.28187498450279236,-0.1480875015258789,0.11137499660253525
1788107993725068800,10.57206884765625,-0.2903999984264374,-0.07479999959468842,-0.07796250283718109
1788107993735152000,10.582152099609376,-0.2891624867916107,-0.01979999989271164,-0.20748749375343323
1788107993745253400,10.59225341796875,-0.2866874933242798,0.01924999989569187,-0.26606249809265137
1788107993755343400,10.60234326171875,-0.2806375026702881,0.03272499889135361,-0.27348750829696655
1788107993765439000,10.61243896484375,-0.2623499929904938,0.015675000846385956,-0.2367749959230423
1788107993775530500,10.622530517578125,-0.24034999310970306,-0.01979999989271164,-0.17572499811649323
1788107993785620700,10.632620849609374,-0.21216249465942383,-0.0625625029206276,-0.1097249984741211
1788107993795711200,10.642711181640625,-0.17311249673366547,-0.10779999941587448,-0.07067500054836273
1788107993805811000,10.65281103515625,-0.14258749783039093,-0.1443749964237213,-0.05719999969005585
1788107993815897300,10.6628974609375,-0.14863750338554382,-0.1956624984741211,-0.0424874983727932
1788107993825996800,10.672996826171875,-0.1755875051021576,-0.256850004196167,0.005087499972432852
1788107993836082000,10.68308203125,-0.20858749747276306,-0.3031874895095825,0.06737499684095383
1788107993846178300,10.69317822265625,-0.23663750290870667,-0.30937498807907104,0.11508750170469284
1788107993856271600,10.703271728515626,-0.2451625019311905,-0.2886124849319458,0.11508750170469284
1788107993866365700,10.71336572265625,-0.23787499964237213,-0.2591874897480011,0.052799999713897705
1788107993876452900,10.723452880859375,-0.22082500159740448,-0.23361249268054962,-0.05843750014901161
1788107993886551800,10.7335517578125,-0.20858749747276306,-0.23718750476837158,-0.20748749375343323
1788107993896645400,10.743645263671874,-0.21463750302791595,-0.22866250574588776,-0.3577750027179718
1788107993906738700,10.75373876953125,-0.22082500159740448,-0.19689999520778656,-0.5153499841690063
1788107993916817700,10.763817626953125,-0.20982499420642853,-0.14190000295639038,-0.6534000039100647
1788107993926914000,10.7739140625,-0.18535000085830688,-0.06984999775886536,-0.7414000034332275
1788107993937000000,10.784,-0.1658249944448471,0.025437500327825546,-0.7669749855995178
1788107993947089700,10.794089599609375,-0.1438249945640564,0.10848750174045563,-0.7449749708175659
1788107993957180200,10.80418017578125,-0.1120624989271164,0.15496249496936798,-0.6961625218391418
1788107993967278600,10.814278564453126,-0.0728750005364418,0.15729999542236328,-0.6276875138282776
1788107993977369600,10.82436962890625,-0.030249999836087227,0.08648750185966492,-0.5801125168800354
1788107993987465200,10.83446533203125,0.0016499999910593033,-0.04427500069141388,-0.5691124796867371
1788107993997561300,10.844561279296874,-0.007012499962002039,-0.18713749945163727,-0.5801125168800354
1788107994007656700,10.85465673828125,-0.0387750007212162,-0.2886124849319458,-0.5886374711990356
1788107994017751600,10.86475146484375,-0.0705375000834465,-0.3166624903678894,-0.5605875253677368
1788107994027850000,10.87485009765625,-0.09611249715089798,-0.3031874895095825,-0.4885374903678894
1788107994037942300,10.8849423828125,-0.10106249898672104,-0.27994999289512634,-0.39201250672340393
1788107994048035600,10.89503564453125,-0.08511249721050262,-0.272662490606308,-0.31130000948905945
1788107994058132700,10.9051328125,-0.06201250106096268,-0.2946625053882599,-0.29301249980926514
1788107994068228000,10.91522802734375,-0.04358749836683273,-0.3301374912261963,-0.32477501034736633
1788107994078326000,10.925325927734375,-0.0411125011742115,-0.3679499924182892,-0.4017750024795532
1788107994088419800,10.935419921875,-0.06435000151395798,-0.38747498393058777,-0.4945875108242035
1788107994098504200,10.945504150390626,-0.09982500225305557,-0.39723750948905945,-0.5715875029563904
1788107994108595700,10.955595703125,-0.13282500207424164,-0.38747498393058777,-0.6326375007629395
1788107994118690000,10.96568994140625,-0.17063750326633453,-0.36313748359680176,-0.7132124900817871
1788107994128777200,10.975777099609376,-0.25616249442100525,-0.3044250011444092,-0.8329749703407288
1788107994138865700,10.98586572265625,-0.18782499432563782,-0.14932499825954437,-0.9466875195503235
1788107994148958200,10.995958251953125,-0.16458749771118164,-0.035612501204013824,-1.040737509727478
1788107994159046100,11.006046142578125,-0.08758749812841415,0.07548750191926956,-1.115262508392334
1788107994169137000,11.016136962890625,-0.0008249999955296516,0.15496249496936798,-1.1433124542236328
1788107994179222500,11.026222412109375,0.07603749632835388,0.22824999690055847,-1.1262625455856323
1788107994189317600,11.036317626953124,0.1615625023841858,0.2428250014781952,-1.0760749578475952
1788107994199403500,11.046403564453126,0.2765125036239624,0.20377500355243683,-1.0175000429153442
1788107994209499000,11.056498779296875,0.3998500108718872,0.11343749612569809,-0.9612625241279602
1788107994219590000,11.06658984375,0.514662504196167,-0.01251249946653843,-0.8916875123977661
1788107994229683700,11.07668359375,0.5904250144958496,-0.17008750140666962,-0.8294000029563904
1788107994239768800,11.086768798828125,0.6307125091552734,-0.3227125108242035,-0.7877374887466431
1788107994249860900,11.09686083984375,0.6576625108718872,-0.45100000500679016,-0.7804499864578247
1788107994259941400,11.10694140625,0.6796625256538391,-0.5402374863624573,-0.8219749927520752
1788107994270037000,11.117037109375,0.6991875171661377,-0.5659499764442444,-0.9185000061988831
1788107994280120800,11.127120849609375,0.7077124714851379,-0.5011875033378601,-1.0419750213623047
1788107994290218500,11.137218505859375,0.7052375078201294,-0.39489999413490295,-1.16902494430542
1788107994300303600,11.1473037109375,0.694237470626831,-0.2666124999523163,-1.2740750312805176
1788107994310395000,11.157394775390625,0.6844750046730042,-0.13832500576972961,-1.3228875398635864
1788107994320480300,11.167480224609376,0.680899977684021,-0.03203750029206276,-1.2618374824523926
1788107994330581000,11.1775810546875,0.6771875023841858,0.030249999836087227,-1.0797874927520752
1788107994340675800,11.18767578125,0.6637125015258789,0.05843750014901161,-0.8049250245094299
1788107994350771500,11.197771484375,0.6381375193595886,0.06696250289678574,-0.48963749408721924
1788107994360856000,11.20785595703125,0.589187502861023,0.04124999791383743,-0.19648750126361847
1788107994370945300,11.2179453125,0.5183749794960022,-0.03203750029206276,0.05637500062584877
1788107994381041700,11.228041748046875,0.4328500032424927,-0.08332499861717224,0.2579500079154968
1788107994391136800,11.23813671875,0.3485625088214874,-0.08208750188350677,0.3801875114440918
1788107994401230600,11.248230712890624,0.28008750081062317,-0.008799999952316284,0.4254249930381775
1788107994411328000,11.258327880859374,0.23375000059604645,0.09267500042915344,0.44123750925064087
1788107994421420300,11.268420166015625,0.20198750495910645,0.19277499616146088,0.4754749834537506
1788107994431513000,11.27851318359375,0.1615625023841858,0.2770625054836273,0.5560500025749207
1788107994441604400,11.288604248046875,0.10298749804496765,0.322299987077713,0.6733375191688538
1788107994451702300,11.298702392578125,0.01993750035762787,0.34677499532699585,0.804099977016449
1788107994461793300,11.308793212890626,-0.0765874981880188,0.34306249022483826,0.9176750183105469
1788107994471884000,11.318884033203124,-0.15839999914169312,0.31501248478889465,0.9689624905586243
1788107994481972200,11.32897216796875,-0.2171124964952469,0.28558748960494995,0.9409124851226807
1788107994492056300,11.339056396484375,-0.2623499929904938,0.2563000023365021,0.8188124895095825
1788107994502149000,11.349149169921875,-0.3051125109195709,0.24901250004768372,0.6245250105857849
1788107994512238600,11.359238525390625,-0.33687499165534973,0.27953749895095825,0.3862375020980835
1788107994522325800,11.36932568359375,-0.3636874854564667,0.3235374987125397,0.1480875015258789
1788107994532422400,11.37942236328125,-0.3942124843597412,0.41263750195503235,-0.04619999974966049
1788107994542518000,11.38951806640625,-0.42473748326301575,0.5421624779701233,-0.18796250224113464
1788107994552609500,11.399609619140625,-0.4357374906539917,0.6997374892234802,-0.26977500319480896
1788107994562700800,11.40970068359375,-0.42844998836517334,0.8879749774932861,-0.26496249437332153
1788107994572792800,11.419792724609374,-0.4162124991416931,1.1005499362945557,-0.14767499268054962
1788107994582873300,11.429873291015625,-0.3942124843597412,1.2630749940872192,0.07590000331401825
1788107994592967000,11.439966796875,-0.3636874854564667,1.3166999816894531,0.3642374873161316
1788107994603064800,11.45006494140625,-0.33687499165534973,1.289887547492981,0.6562874913215637
1788107994613154300,11.460154296875,-0.3283500075340271,1.1896499395370483,0.9421499967575073
1788107994623247600,11.47024755859375,-0.3392125070095062,1.049262523651123,1.2194875478744507
1788107994633335300,11.480335205078125,-0.35144999623298645,0.8940249681472778,1.476062536239624
1788107994643425000,11.490425048828126,-0.34168750047683716,0.7279250025749207,1.687399983406067
1788107994653511000,11.500510986328125,-0.3063499927520752,0.5581125020980835,1.818162441253662
1788107994663603200,11.510603271484374,-0.25616249442100525,0.40053749084472656,1.8645000457763672
1788107994673692400,11.5206923828125,-0.20363749563694,0.30153748393058777,1.8352124691009521
1788107994683774200,11.530774169921875,-0.15963749587535858,0.25382500886917114,1.7326375246047974
1788107994693866500,11.540866455078126,-0.12058749794960022,0.267300009727478,1.5651625394821167
1788107994703950600,11.55095068359375,-0.08387500047683716,0.30524998903274536,1.3355374336242676
1788107994714041600,11.56104150390625,-0.04853750020265579,0.35653749108314514,1.0716749429702759
1788107994734227000,11.58122705078125,0.04427500069141388,0.4493499994277954,0.49623748660087585
1788107994744320500,11.591320556640625,0.0859375,0.5238749980926514,0.16885000467300415
1788107994754411000,11.601410888671875,0.12498749792575836,0.5898749828338623,-0.09515000134706497
1788107994764496100,11.61149609375,0.17379999160766602,0.6313999891281128,-0.2465374916791916
1788107994774590000,11.62158984375,0.2410375028848648,0.608162522315979,-0.2917749881744385
1788107994784690400,11.6316904296875,0.32284998893737793,0.5116375088691711,-0.26124998927116394
1788107994794774300,11.641774169921876,0.4096125066280365,0.38087499141693115,-0.19772499799728394
1788107994804860700,11.651860595703125,0.5024250149726868,0.2330625057220459,-0.11591249704360962
1788107994814954000,11.6619541015625,0.5904250144958496,0.1097249984741211,-0.040150001645088196
1788107994825042000,11.6720419921875,0.6674249768257141,0.04743750020861626,0.011137500405311584
1788107994835134000,11.682134033203125,0.7321875095367432,0.02419999986886978,0.04661250114440918
1788107994845228000,11.69222802734375,0.7797625064849854,-0.016087500378489494,0.06379999965429306
1788107994855318800,11.70231884765625,0.7957124710083008,-0.08084999769926071,0.05389999970793724
1788107994865409300,11.7124091796875,0.7895249724388123,-0.1321374922990799,0.013612499460577965
1788107994875498500,11.72249853515625,0.7602375149726868,-0.1578499972820282,-0.05843750014901161
1788107994885591800,11.732591796875,0.697950005531311,-0.13708749413490295,-0.1317249983549118
1788107994895681800,11.742681884765625,0.6221874952316284,-0.10037499666213989,-0.18067499995231628
1788107994905773300,11.752773193359374,0.5476624965667725,-0.06861250102519989,-0.19772499799728394
1788107994915862800,11.76286279296875,0.48042500019073486,-0.06737499684095383,-0.2087250053882599
1788107994925955000,11.772955078125,0.4230875074863434,-0.09913749992847443,-0.21601249277591705
1788107994936044300,11.783044189453125,0.36932501196861267,-0.15661250054836273,-0.2307250052690506
1788107994946143200,11.793143310546874,0.32284998893737793,-0.23237499594688416,-0.2563000023365021
1788107994956236300,11.803236328125,0.2923249900341034,-0.32394999265670776,-0.28806251287460327
1788107994966334500,11.81333447265625,0.2727999985218048,-0.4021874964237213,-0.32848748564720154
1788107994976423700,11.823423583984376,0.256850004196167,-0.41690000891685486,-0.39682498574256897
1788107994986513700,11.833513671875,0.24351249635219574,-0.3544749915599823,-0.4908750057220459
1788107994996605200,11.843605224609375,0.23375000059604645,-0.24818749725818634,-0.599637508392334
1788107995006704600,11.85370458984375,0.2287999987602234,-0.13461250066757202,-0.7022125124931335
1788107995016791800,11.863791748046875,0.23251250386238098,-0.07232499867677689,-0.7889750003814697
1788107995026887700,11.8738876953125,0.2410375028848648,-0.06132499873638153,-0.8342124819755554
1788107995036987100,11.883987060546875,0.25575000047683716,-0.09556250274181366,-0.8305000066757202
1788107995047078100,11.894078125,0.27403751015663147,-0.1859000027179718,-0.7841625213623047
1788107995057167600,11.904167724609374,0.28984999656677246,-0.29961249232292175,-0.7084000110626221
1788107995067264300,11.91426416015625,0.304562509059906,-0.43271249532699585,-0.6424000263214111
1788107995077350000,11.924349853515626,0.3240875005722046,-0.5304750204086304,-0.6045874953269958
1788107995087448300,11.9344482421875,0.33880001306533813,-0.5757125020027161,-0.6351125240325928
1788107995097533700,11.94453369140625,0.3497999906539917,-0.5744749903678894,-0.7108749747276306
1788107995107627800,11.954627685546875,0.3741374909877777,-0.5830000042915344,-0.8379250168800354
1788107995117713000,11.964712890625,0.41690000891685486,-0.6575250029563904,-1.0553125143051147
1788107995127804700,11.9748046875,0.41084998846054077,-0.7222874760627747,-1.3486000299453735
1788107995137896200,11.984896240234375,0.3485625088214874,-0.7515749931335449,-1.644225001335144
1788107995147988500,11.994988525390625,0.2630375027656555,-0.7882875204086304,-1.867799997329712
1788107995158079500,12.00507958984375,0.1335124969482422,-0.8053374886512756,-1.9630874395370483
1788107995168176600,12.0151767578125,0.03698749840259552,-1.0228625535964966,-1.859274983406067
1788107995178268200,12.02526806640625,0.08703749626874924,-1.4895374774932861,-1.6381750106811523
1788107995188367000,12.0353671875,0.23127499222755432,-1.882925033569336,-1.5024625062942505
1788107995198455000,12.045455078125,0.3082749843597412,-1.9830249547958374,-1.5636500120162964
1788107995208539400,12.055539306640625,0.23127499222755432,-1.7656375169754028,-1.8213249444961548
1788107995218633000,12.065633056640625,0.03217500075697899,-1.2867250442504883,-2.186662435531616
1788107995228726800,12.075726806640626,-0.16706250607967377,-0.5780500173568726,-2.5360500812530518
1788107995238812700,12.085812744140625,-0.2611125111579895,0.27582499384880066,-2.7901499271392822
1788107995248909000,12.095908935546875,-0.2391124963760376,1.0430749654769897,-2.7645750045776367
1788107995258989600,12.105989501953125,-0.09735000133514404,1.5379375219345093,-2.3907124996185303
1788107995269081900,12.116081787109374,0.08703749626874924,1.7846125364303589,-1.6772249937057495
1788107995279168000,12.12616796875,0.2593249976634979,1.7382749319076538,-0.7584499716758728
1788107995289261800,12.13626171875,0.35337498784065247,1.5037000179290771,0.2677125036716461
1788107995299350800,12.146350830078125,0.38279998302459717,1.1261249780654907,1.2462999820709229
1788107995309433600,12.15643359375,0.36684998869895935,0.6411625146865845,2.0172624588012695
1788107995319524400,12.1665244140625,0.3020874857902527,0.10848750174045563,2.4594624042510986
1788107995329621200,12.176621337890625,0.2227499932050705,-0.3521375060081482,2.5719375610351562
1788107995339713300,12.18671337890625,0.13722500205039978,-0.5255249738693237,2.419174909591675
1788107995349812500,12.1968125,0.06751249730587006,-0.3716624975204468,2.108837604522705
1788107995359900200,12.206900146484376,0.01251249946653843,-0.01484999991953373,1.7276874780654907
1788107995369996000,12.21699609375,-0.04977500066161156,0.37111249566078186,1.351349949836731
1788107995380088300,12.22708837890625,-0.10477499663829803,0.682687520980835,1.0289125442504883
1788107995390188800,12.237188720703125,-0.15358750522136688,0.9025499820709229,0.7918624877929688
1788107995400273700,12.247273681640625,-0.17806249856948853,1.0077375173568726,0.6465250253677368
1788107995410371600,12.25737158203125,-0.1975875049829483,1.0308375358581543,0.6147624850273132
1788107995420463000,12.267463134765626,-0.21216249465942383,0.9820249676704407,0.681862473487854
1788107995430552600,12.277552490234376,-0.2134000062942505,0.9062625169754028,0.8199124932289124
1788107995440645000,12.28764501953125,-0.19882500171661377,0.8024500012397766,0.9934374690055847
1788107995450747600,12.29774755859375,-0.17434999346733093,0.6484500169754028,1.135200023651123
1788107995460845300,12.30784521484375,-0.147537499666214,0.4945875108242035,1.202299952507019
1788107995470942000,12.31794189453125,-0.12553749978542328,0.3601124882698059,1.1815375089645386
1788107995481030700,12.32803076171875,-0.11329999566078186,0.21972499787807465,1.0631500482559204
1788107995491126500,12.33812646484375,-0.11329999566078186,0.10119999945163727,0.8443874716758728
1788107995501218000,12.348218017578125,-0.13887499272823334,0.04496249929070473,0.5622375011444092
1788107995511304400,12.358304443359375,-0.16335000097751617,0.027912499383091927,0.2457125037908554
1788107995521396500,12.368396484375,-0.1621125042438507,0.007149999961256981,-0.07067500054836273
1788107995531493000,12.3784931640625,-0.14011250436306,-0.055275000631809235,-0.3955875039100647
1788107995541571600,12.388571533203125,-0.09377499669790268,-0.16032500565052032,-0.7169250249862671
1788107995551667700,12.398667724609375,-0.020349999889731407,-0.2250874936580658,-1.0443124771118164
1788107995561759200,12.40875927734375,0.038224998861551285,-0.24461250007152557,-1.3510749340057373
1788107995571857000,12.41885693359375,0.08098749816417694,-0.25189998745918274,-1.597749948501587
1788107995581943000,12.428943115234375,0.10422500222921371,-0.25189998745918274,-1.7565624713897705
1788107995592035000,12.43903515625,0.07246249914169312,-0.21889999508857727,-1.8177499771118164
1788107995602122200,12.449122314453126,0.002749999985098839,-0.13832500576972961,-1.8005625009536743
1788107995612214300,12.45921435546875,-0.08758749812841415,-0.035612501204013824,-1.73580002784729
1788107995622321200,12.469321044921875,-0.16335000097751617,0.04743750020861626,-1.6259374618530273
1788107995632413700,12.47941357421875,-0.2171124964952469,0.06696250289678574,-1.456125020980835
1788107995642497500,12.48949755859375,-0.24639999866485596,0.03396249935030937,-1.2263624668121338
1788107995652588300,12.49958837890625,-0.2611125111579895,-0.03203750029206276,-0.9624999761581421
1788107995662676700,12.5096767578125,-0.28187498450279236,-0.11137499660253525,-0.7279250025749207
1788107995672769500,12.51976953125,-0.3221625089645386,-0.15537500381469727,-0.5691124796867371
1788107995682858500,12.5298583984375,-0.3686375021934509,-0.15537500381469727,-0.4542999863624573
1788107995692953600,12.53995361328125,-0.41497498750686646,-0.10161250084638596,-0.36258751153945923
1788107995703042800,12.550042724609375,-0.4394499957561493,-0.002612499985843897,-0.30277499556541443
