time,seconds_elapsed,z,y,x
1788164995102543000,0.209543212890625,2.2193360328674316,-0.49742600321769714,-1.9687420129776
1788164995112626700,0.219626708984375,2.9340078830718994,-0.860276997089386,-1.030019998550415
1788164995122712800,0.229712890625,3.48565411567688,-0.9983329772949219,-0.3080970048904419
1788164995142891000,0.24989111328125,3.860692024230957,-1.099692940711975,-0.2888140082359314
1788164995152982300,0.259982177734375,3.282742977142334,-0.9057719707489014,-0.46856799721717834
1788164995173154800,0.28015478515625,2.3000218868255615,-0.4197089970111847,-0.4755130112171173
1788164995183240700,0.29024072265625,2.231933116912842,-0.2634519934654236,-0.43385401368141174
1788164995213534200,0.3205341796875,-1.7069170475006104,-0.18008700013160706,0.8740010261535645
1788164995253895400,0.3608955078125,1.1435120105743408,-0.5172359943389893,-0.2089720070362091
1788164995263985400,0.3709853515625,0.9583140015602112,0.18125399947166443,-0.8566660284996033
1788164995274072000,0.381072021484375,0.5958399772644043,0.8007689714431763,-1.1561130285263062
1788164995284160500,0.391160400390625,0.34703201055526733,0.6222479939460754,-1.4316920042037964
1788164995304347400,0.411347412109375,0.35085800290107727,-0.04941200092434883,-0.43065398931503296
1788164995314457300,0.421457275390625,0.6180220246315002,-0.19184300303459167,0.0052280002273619175
1788164995324558000,0.43155810546875,0.4385949969291687,-0.16526399552822113,0.29635900259017944
1788164995334703900,0.441703857421875,0.12326599657535553,-0.30214598774909973,0.41898098587989807
1788164995344799700,0.4517998046875,-0.010719000361859798,-0.3602159917354584,0.17787300050258636
1788164995354891000,0.46189111328125,-0.17368899285793304,-0.4403440058231354,-0.07325799763202667
1788164995364986600,0.471986572265625,0.88189297914505,0.06901499629020691,-0.7295669913291931
1788164995375070200,0.4820703125,1.1814930438995361,0.5888280272483826,-1.0362449884414673
1788164995385164000,0.4921640625,0.847985029220581,0.4875209927558899,-0.4811689853668213
1788164995395262200,0.50226220703125,0.21122799813747406,0.011862000450491905,0.2660300135612488
1788164995405348400,0.512348388671875,-0.5768799781799316,-0.4305320084095001,0.9425370097160339
1788164995415455500,0.52245556640625,-0.8073350191116333,-0.7091699838638306,1.2437520027160645
1788164995425556500,0.532556396484375,-0.2753469944000244,-0.6119340062141418,0.7014889717102051
1788164995435647000,0.54264697265625,0.45052799582481384,-0.024236999452114105,0.12384399771690369
1788164995445732400,0.552732421875,0.9652860164642334,0.33834001421928406,-0.4684399962425232
1788164995455825000,0.562824951171875,1.0928150415420532,0.16499899327754974,-0.48250800371170044
1788164995465923600,0.572923583984375,1.1207499504089355,-0.04543000087141991,-0.18351499736309052
1788164995476013300,0.583013427734375,0.874426007270813,-0.06909199804067612,0.3205280005931854
1788164995486110000,0.59310986328125,0.3045800030231476,-0.05334800109267235,0.7753469944000244
1788164995496196400,0.6031962890625,0.0669659972190857,0.19456100463867188,0.6817229986190796
1788164995506294300,0.613294189453125,0.187732994556427,0.484017014503479,0.22736899554729462
1788164995516396300,0.623396240234375,0.3172619938850403,0.2683030068874359,-0.07162699848413467
1788164995536578000,0.643578125,-0.11589699983596802,0.2851580083370209,0.2824220061302185
1788164995546716700,0.653716552734375,0.0006179999909363687,0.26242300868034363,0.9323030114173889
1788164995556799700,0.6637998046875,0.2909240126609802,0.11758600175380707,0.8984000086784363
1788164995566900500,0.673900390625,0.21922700107097626,0.011633999645709991,0.8727430105209351
1788164995576987000,0.68398681640625,0.08922100067138672,-0.03428899869322777,0.8755379915237427
1788164995587076000,0.694076171875,0.02455800026655197,-0.06716600060462952,0.7994359731674194
1788164995597171200,0.704171142578125,-0.04304200038313866,0.07031600177288055,0.6533700227737427
1788164995607266800,0.714266845703125,0.5407710075378418,0.14989100396633148,0.5034530162811279
1788164995617364700,0.72436474609375,0.8222960233688354,-0.1653439998626709,0.43132299184799194
1788164995637543400,0.74454345703125,0.4668860137462616,-0.5795990228652954,0.30605098605155945
1788164995647638300,0.75463818359375,0.1898840069770813,-0.48076701164245605,0.20027099549770355
1788164995657723100,0.76472314453125,0.18427300453186035,-0.241784006357193,-0.07531700283288956
1788164995667818500,0.774818603515625,0.021750999614596367,-0.06596899777650833,-0.3298490047454834
1788164995677908700,0.78490869140625,-0.31894001364707947,-0.050464000552892685,-0.20860500633716583
1788164995687999500,0.79499951171875,-0.7299950122833252,-0.26905500888824463,-0.00788000039756298
1788164995698088200,0.805088134765625,-1.0909509658813477,-0.49849599599838257,0.15552100539207458
1788164995708182500,0.8151826171875,-1.4331530332565308,-0.7174410223960876,0.15732699632644653
1788164995718299600,0.825299560546875,-1.495911955833435,-0.8229339718818665,-0.1583849936723709
1788164995728396800,0.835396728515625,-1.4223569631576538,-0.6409519910812378,-0.5565500259399414
1788164995738486000,0.845486083984375,-1.4906909465789795,-0.4098599851131439,-0.5764729976654053
1788164995748581400,0.855581298828125,-1.5945789813995361,-0.4648450016975403,-0.42688098549842834
1788164995758670600,0.865670654296875,-1.6929960250854492,-0.7623980045318604,-0.20222599804401398
1788164995768766200,0.87576611328125,-1.705502986907959,-1.1051579713821411,0.02478799968957901
1788164995778864600,0.88586474609375,-1.7889189720153809,-1.377748966217041,0.2287680059671402
1788164995788956700,0.895956787109375,-2.106419086456299,-1.5231519937515259,0.03386500105261803
1788164995799051300,0.90605126953125,-2.1302850246429443,-1.3020720481872559,-0.4374909996986389
1788164995809145600,0.9161455078125,-2.261122941970825,-1.0299229621887207,-1.0833380222320557
1788164995819232000,0.92623193359375,-2.1655099391937256,-2.2175190448760986,-3.9554240703582764
1788164995829325000,0.936324951171875,-2.146135091781616,-2.1024200916290283,-3.3183040618896484
1788164995839407400,0.946407470703125,-2.066601037979126,-1.9844770431518555,-1.3564529418945312
1788164995849495800,0.956495849609375,-2.6900930404663086,-2.2646749019622803,-1.1258970499038696
1788164995869681200,0.97668115234375,-4.5173420906066895,-2.0521349906921387,-1.5325640439987183
1788164995879769300,0.986769287109375,-4.438013076782227,-2.2588870525360107,-2.4950110912323
1788164995899951900,1.006951904296875,-3.0633130073547363,-2.987971067428589,-4.454683780670166
1788164995920138500,1.027138427734375,-0.1931149959564209,-2.679663896560669,-5.32305908203125
1788164995930229500,1.0372294921875,-0.4423210024833679,-2.7699060440063477,-3.4177420139312744
1788164995940325000,1.0473251953125,-1.7219669818878174,-3.6516730785369873,-1.7067689895629883
1788164995950412000,1.057412109375,-2.317444086074829,-4.486979007720947,-0.3446219861507416
1788164995960497000,1.067496826171875,-2.5669538974761963,-4.344509124755859,0.916733980178833
1788164995970585300,1.07758544921875,-2.5327749252319336,-4.361215114593506,1.9527889490127563
1788164995980676000,1.087676025390625,-2.5136489868164062,-4.593063831329346,2.2124719619750977
1788164995990761000,1.097760986328125,-1.7746050357818604,-4.802877902984619,1.9044959545135498
1788164996000860000,1.10785986328125,-0.6458600163459778,-5.254158973693848,1.3769270181655884
1788164996010952000,1.117951904296875,0.5994110107421875,-5.363798141479492,1.6709779500961304
1788164996021036000,1.1280361328125,1.5228090286254883,-5.302655220031738,2.2736449241638184
1788164996031124200,1.138124267578125,2.883310079574585,-5.049468994140625,2.3691539764404297
1788164996041216300,1.14821630859375,3.921109914779663,-4.610138893127441,2.351646900177002
1788164996051316000,1.15831591796875,4.173973083496094,-4.14463996887207,1.8732839822769165
1788164996061405200,1.1684052734375,3.6916980743408203,-3.217859983444214,0.5613120198249817
1788164996071502600,1.178502685546875,4.045298099517822,-1.5308279991149902,-1.1474579572677612
1788164996081590500,1.188590576171875,4.800137996673584,-0.013368000276386738,-2.7846059799194336
1788164996101763300,1.208763427734375,6.079775810241699,2.356126070022583,-5.09626579284668
1788164996111851300,1.218851318359375,5.7521820068359375,3.0801610946655273,-5.184989929199219
1788164996121941000,1.22894091796875,5.5716657638549805,3.162951946258545,-4.513228893280029
1788164996132031200,1.23903125,5.4981818199157715,3.557651996612549,-3.6105968952178955
1788164996142120200,1.2491201171875,5.424470901489258,3.990854024887085,-3.9035050868988037
1788164996152212000,1.2592119140625,5.421899795532227,4.870235919952393,-3.9506990909576416
1788164996162295600,1.269295654296875,4.254136085510254,5.3046488761901855,-4.770782947540283
1788164996172380400,1.27938037109375,3.0045700073242188,5.3112969398498535,-5.336521148681641
1788164996182476500,1.2894765625,1.2636699676513672,5.524877071380615,-5.059213161468506
1788164996192567800,1.29956787109375,-0.4050849974155426,5.857443809509277,-4.4870100021362305
1788164996202659600,1.30965966796875,-1.4410539865493774,5.695754051208496,-3.9163479804992676
1788164996212745000,1.319744873046875,-2.081886053085327,5.507993221282959,-4.293239116668701
1788164996222863400,1.32986328125,-2.319814920425415,5.309757232666016,-5.067653179168701
1788164996232955000,1.339954833984375,-2.394162893295288,5.010992050170898,-5.779394149780273
1788164996243043300,1.350043212890625,-2.980578899383545,4.825835227966309,-5.608500957489014
1788164996253133600,1.360133544921875,-6.5147857666015625,4.396783828735352,-4.254856109619141
1788164996263223000,1.37022314453125,-5.350204944610596,4.149392127990723,-2.949230909347534
1788164996273308000,1.380307861328125,-7.390493869781494,3.891108989715576,-1.2523000240325928
1788164996283398000,1.39039794921875,-9.566665649414062,3.119131088256836,0.22869999706745148
1788164996303585000,1.4105849609375,-7.891994953155518,2.712939977645874,-0.42996901273727417
1788164996313690600,1.420690673828125,-6.340188980102539,1.9535599946975708,-1.132256031036377
1788164996323810600,1.430810546875,-4.642836093902588,0.9901120066642761,-0.6343140006065369
1788164996333900800,1.44090087890625,-3.6383628845214844,0.007116999942809343,0.519461989402771
1788164996343991600,1.450991455078125,-2.4213030338287354,-0.12132599949836731,1.8116650581359863
1788164996354076700,1.46107666015625,-2.0307419300079346,-0.3303230106830597,2.3105759620666504
1788164996384362200,1.4913623046875,-0.8422819972038269,-1.1244210004806519,1.0475889444351196
1788164996394458600,1.501458740234375,-0.048211999237537384,-1.3521020412445068,1.4154020547866821
1788164996404560000,1.511559814453125,-1.5727089643478394,-0.8887490034103394,2.2559499740600586
1788164996414657000,1.521656982421875,-1.778872013092041,1.467121958732605,4.904280185699463
1788164996424757200,1.53175732421875,-1.092283010482788,3.597075939178467,2.2027599811553955
1788164996434856200,1.541856201171875,0.9721590280532837,1.4151149988174438,-1.0866279602050781
1788164996444953300,1.551953369140625,1.4504810571670532,0.8180050253868103,-1.4774260520935059
1788164996455042300,1.562042236328125,1.408432960510254,2.425386905670166,-1.0948280096054077
1788164996465130200,1.572130126953125,0.1556829959154129,3.425015926361084,-0.2871679961681366
1788164996485318700,1.592318603515625,0.7567880153656006,0.15516400337219238,0.44782599806785583
1788164996495409000,1.602408935546875,2.2242190837860107,-0.8189569711685181,-0.07517600059509277
1788164996505505300,1.61250537109375,1.842123031616211,-0.326433002948761,0.019605999812483788
1788164996515601400,1.622601318359375,0.5457559823989868,-0.12804700434207916,-0.07529599964618683
1788164996525700000,1.6327001953125,0.11524400115013123,0.03159499913454056,-0.9350500106811523
1788164996535786200,1.6427861328125,-0.5692070126533508,0.3643780052661896,-1.3067270517349243
1788164996545876200,1.652876220703125,-0.9344890117645264,0.8111780285835266,-3.379462957382202
1788164996555976200,1.66297607421875,-0.16353300213813782,-0.10560499876737595,-3.3133270740509033
1788164996566073000,1.673072998046875,0.16943800449371338,-0.1811559945344925,-1.0232750177383423
1788164996576162300,1.683162353515625,-0.9646900296211243,-1.6931120157241821,0.8120440244674683
1788164996586259200,1.69325927734375,-0.8291839957237244,-2.4325509071350098,1.1724109649658203
1788164996606438000,1.71343798828125,0.9753270149230957,-2.6934590339660645,-0.01159099955111742
1788164996616523500,1.7235234375,1.1423380374908447,-3.310157060623169,-0.22387099266052246
1788164996626608000,1.733608154296875,0.49963200092315674,-3.4511120319366455,0.2508369982242584
1788164996636698000,1.743697998046875,0.045458998531103134,-2.7424890995025635,-0.2843469977378845
1788164996646790000,1.753789794921875,-0.33014100790023804,-2.1722829341888428,-0.6568179726600647
1788164996656868900,1.763868896484375,-0.9741259813308716,-1.414376974105835,-1.0263880491256714
1788164996666957300,1.773957275390625,0.0021279999054968357,-1.0931999683380127,-1.2138049602508545
1788164996677046300,1.78404638671875,1.1982990503311157,-1.4615169763565063,-0.8640890121459961
1788164996687141000,1.79414111328125,0.4140790104866028,-2.6161770820617676,-1.227977991104126
1788164996697227300,1.804227294921875,3.8877310752868652,-2.2296369075775146,-1.0120340585708618
1788164996707317200,1.814317138671875,1.4871129989624023,-3.0411510467529297,0.0864190012216568
1788164996717400600,1.824400634765625,0.1588660031557083,-1.5768630504608154,-2.258146047592163
1788164996727499800,1.834499755859375,-2.4264988899230957,-0.9188429713249207,-2.427496910095215
1788164996737586700,1.844586669921875,-3.4887380599975586,-0.2917500138282776,-1.3045680522918701
1788164996747682800,1.854682861328125,-1.6639480590820312,-0.7464020252227783,-0.604839026927948
1788164996757770000,1.86477001953125,1.226554036140442,-2.2629950046539307,-1.546658992767334
1788164996767857400,1.874857421875,0.16933199763298035,-1.2542740106582642,-1.3551130294799805
1788164996777943800,1.88494384765625,0.307543009519577,0.24932800233364105,-1.1456860303878784
1788164996788033300,1.895033203125,0.09348399937152863,1.3794150352478027,-0.07142499834299088
1788164996798120400,1.905120361328125,-1.0608079433441162,1.830847978591919,0.11050499975681305
1788164996808216800,1.915216796875,-2.946039915084839,2.152432918548584,0.5228829979896545
1788164996818310400,1.925310302734375,-4.857219219207764,2.642590045928955,0.622052013874054
1788164996838503400,1.94550341796875,-1.999364972114563,1.8825050592422485,0.6768100261688232
1788164996848610300,1.9556103515625,-2.3369998931884766,0.7925130128860474,0.7215080261230469
1788164996858703600,1.96570361328125,-0.933413028717041,2.3508551120758057,1.8664089441299438
1788164996868801500,1.975801513671875,-1.3968019485473633,2.2760610580444336,0.9570909738540649
1788164996878887200,1.98588720703125,-0.9038709998130798,1.966115951538086,-0.18287500739097595
1788164996888984800,1.99598486328125,-0.7310799956321716,0.8963969945907593,-0.539650022983551
1788164996899124000,2.0061240234375,-0.5707070231437683,0.6796209812164307,-0.47146499156951904
1788164996909221400,2.016221435546875,-0.04566499963402748,1.4064459800720215,-0.6320430040359497
1788164996919314700,2.026314697265625,0.8648070096969604,0.9972659945487976,-1.540681004524231
1788164996929409800,2.036409912109375,0.8698740005493164,0.7973399758338928,-1.6189279556274414
1788164996939492000,2.0464921875,-0.32440701127052307,0.17949700355529785,-0.9894180297851562
1788164996949589500,2.056589599609375,-0.984906017780304,-0.40584099292755127,-0.3558250069618225
1788164996959680300,2.06668017578125,-0.8474149703979492,-0.29782599210739136,-0.2697640061378479
1788164996969772800,2.076772705078125,-0.8903419971466064,-1.2237650156021118,-0.07434900104999542
1788164996979851500,2.0868515625,-1.3954390287399292,-0.21499599516391754,0.9100260138511658
1788164996989957000,2.09695703125,-1.0480430126190186,0.3785479962825775,0.4063419997692108
1788164997000041500,2.10704150390625,-0.841513991355896,0.36961400508880615,0.09654200077056885
1788164997010135800,2.1171357421875,-0.26203998923301697,0.7075430154800415,0.17252600193023682
1788164997020225800,2.127225830078125,0.1570039987564087,0.7145860195159912,-0.5043849945068359
1788164997030323700,2.13732373046875,-0.2168560028076172,-0.4042209982872009,-1.1773420572280884
1788164997040413000,2.147412841796875,1.10691499710083,0.15266700088977814,-0.1769469976425171
1788164997050501000,2.157501220703125,1.992238998413086,0.7615519762039185,0.05356400087475777
1788164997070685200,2.177685302734375,0.7968810200691223,0.37291499972343445,0.10065899789333344
1788164997080772000,2.187772216796875,-0.5496919751167297,-0.10127300024032593,0.4213849902153015
1788164997090860500,2.197860595703125,-2.632783889770508,-0.5520430207252502,0.23729899525642395
1788164997100953600,2.20795361328125,0.803849995136261,-0.13576799631118774,0.6889950037002563
1788164997111047200,2.218047119140625,1.2319350242614746,1.34158194065094,0.5860270261764526
1788164997121140700,2.228140625,1.374951958656311,2.6966559886932373,0.4682930111885071
1788164997131237400,2.2382373046875,0.7905259728431702,1.7801259756088257,-0.727944016456604
1788164997141323000,2.248322998046875,-1.0757689476013184,-0.4225409924983978,-2.358386993408203
1788164997151414300,2.258414306640625,-1.1236939430236816,1.2905869483947754,-2.1405229568481445
1788164997161500200,2.268500244140625,-0.6997979879379272,-0.8453130125999451,-0.5018860101699829
1788164997171591700,2.278591796875,0.3467690050601959,-0.7840499877929688,1.3167400360107422
1788164997181677300,2.28867724609375,-0.5264400243759155,0.5381829738616943,2.755009889602661
1788164997191763200,2.29876318359375,-2.0225958824157715,0.10989300161600113,6.398906230926514
1788164997201851400,2.308851318359375,-3.7059121131896973,-1.717484951019287,5.150137901306152
1788164997211943000,2.31894287109375,-4.912262916564941,-0.782492995262146,2.994452953338623
1788164997222035500,2.329035400390625,-3.252439022064209,-0.8359159827232361,-1.3063050508499146
1788164997232126700,2.339126708984375,-1.013159990310669,0.29140400886535645,-3.777209997177124
1788164997242219000,2.349218994140625,0.5451840162277222,1.88823401927948,0.012237999588251114
1788164997252313300,2.359313232421875,3.30224609375,-2.507678985595703,-6.207730770111084
1788164997262405400,2.3694052734375,2.0762529373168945,-3.8365859985351562,-2.3628718852996826
1788164997272496400,2.379496337890625,-0.512444019317627,-2.03582501411438,1.1102830171585083
1788164997282601500,2.3896015625,-1.0254679918289185,-1.5585249662399292,8.931662559509277
1788164997292694500,2.399694580078125,2.668426036834717,-1.6245429515838623,1.810829997062683
1788164997302792400,2.40979248046875,3.9682750701904297,-2.5934760570526123,-3.323909044265747
1788164997312882000,2.4198818359375,1.3340950012207031,-1.2431249618530273,-2.3366379737854004
1788164997322981000,2.429981201171875,0.1792690008878708,0.4808430075645447,-1.5084789991378784
1788164997333075500,2.440075439453125,4.0371928215026855,0.5777360200881958,1.9069119691848755
1788164997343174000,2.450173828125,12.71185302734375,1.3071759939193726,0.6885190010070801
1788164997353262000,2.460261962890625,8.293557167053223,2.0648720264434814,-4.19506311416626
1788164997373451300,2.480451171875,-4.18797492980957,1.3949719667434692,-4.8286638259887695
1788164997383552300,2.49055224609375,-5.842201232910156,0.7319560050964355,-2.9764668941497803
1788164997393638700,2.500638671875,-4.886885166168213,-0.5328540205955505,-3.9499199390411377
1788164997403736800,2.51073681640625,-2.776638984680176,-1.5164419412612915,-5.767772197723389
1788164997413824500,2.520824462890625,-0.40250301361083984,-0.9947789907455444,-5.430375099182129
1788164997423924200,2.53092431640625,0.5159140229225159,-4.453979969024658,-2.718311071395874
1788164997434017000,2.54101708984375,2.180006980895996,-4.869256019592285,-0.9774230122566223
1788164997444112600,2.551112548828125,4.152355194091797,-3.9678869247436523,0.7879419922828674
1788164997454195500,2.561195556640625,2.136962890625,-1.5703710317611694,2.6272149085998535
1788164997464292000,2.5712919921875,-3.084027051925659,0.1058799996972084,4.418805122375488
1788164997474377000,2.581376953125,-5.540715217590332,0.08368299901485443,4.872264862060547
1788164997484472800,2.591472900390625,-3.8135828971862793,-1.1949399709701538,2.702111005783081
1788164997494561800,2.601561767578125,-0.7308740019798279,-1.4940290451049805,0.5401949882507324
1788164997504664800,2.611664794921875,2.027388095855713,-1.686519980430603,0.6552850008010864
1788164997514759000,2.621759033203125,2.4468839168548584,-1.9467250108718872,0.8747069835662842
1788164997524861200,2.631861083984375,1.4767550230026245,-1.606740951538086,1.0165599584579468
1788164997534957800,2.641957763671875,0.0498879998922348,-0.9324430227279663,0.6388339996337891
1788164997545053200,2.65205322265625,-0.38216298818588257,-1.134145975112915,1.032876968383789
1788164997555145500,2.6621455078125,-0.8866479992866516,-0.8026509881019592,1.2798930406570435
1788164997565246700,2.672246826171875,-0.7544490098953247,-1.92536199092865,1.3686389923095703
1788164997575335000,2.6823349609375,-1.267840027809143,-2.41375994682312,2.8020899295806885
1788164997585444400,2.6924443359375,-2.3732550144195557,-1.1862469911575317,5.087032794952393
1788164997595534000,2.7025341796875,-2.97714900970459,0.09507499635219574,6.054166793823242
1788164997615718400,2.722718505859375,2.04256010055542,-0.9575409889221191,4.040770053863525
1788164997625818600,2.732818603515625,3.4022159576416016,2.702064037322998,-3.6445119380950928
1788164997635908900,2.742908935546875,4.548478126525879,3.5421550273895264,-5.048183917999268
1788164997646003000,2.7530029296875,2.984833002090454,5.041979789733887,-6.339680194854736
1788164997656095700,2.763095703125,0.064069002866745,6.46074104309082,-8.308855056762695
1788164997666187500,2.7731875,-2.2640089988708496,8.745676040649414,-10.231130599975586
1788164997676279300,2.783279296875,-3.2723960876464844,8.489023208618164,-6.6456098556518555
1788164997686365400,2.793365478515625,-3.120620012283325,6.123033046722412,-0.8435080051422119
1788164997696452900,2.803452880859375,-2.476238965988159,3.984282970428467,0.9809340238571167
1788164997706542300,2.813542236328125,-1.4221689701080322,3.0847020149230957,0.4495620131492615
1788164997716639500,2.823639404296875,-0.7716720104217529,5.514190196990967,1.7855260372161865
1788164997726724900,2.833724853515625,3.6081368923187256,4.585780143737793,3.1999669075012207
1788164997736808700,2.84380859375,0.13751700520515442,3.6167850494384766,3.3471899032592773
1788164997746901200,2.8539013671875,-4.499692916870117,2.621561050415039,-0.683791995048523
1788164997756987000,2.86398681640625,-2.232866048812866,0.35264700651168823,-2.211491107940674
1788164997767074800,2.87407470703125,-0.887266993522644,0.8996599912643433,-1.1928019523620605
1788164997787255600,2.894255615234375,2.8132989406585693,-3.466118097305298,-2.187761068344116
1788164997797337300,2.90433740234375,3.669579029083252,-3.7509970664978027,-3.7328948974609375
1788164997827633700,2.934633544921875,-4.061069965362549,-17.661319732666016,1.6515560150146484
1788164997837719300,2.94471923828125,-8.933237075805664,-10.87353515625,0.010869000107049942
1788164997857897500,2.9648974609375,-1.0660099983215332,2.879370927810669,-3.118817090988159
1788164997878078200,2.985078125,0.12442199885845184,4.704556941986084,-0.7378230094909668
1788164997918452500,3.025452392578125,1.8525029420852661,-3.3559648990631104,4.052642822265625
1788164997928553500,3.035553466796875,1.2854479551315308,-5.75603723526001,5.7726287841796875
1788164997958850300,3.065850341796875,1.9024399518966675,-2.651362895965576,-0.8339560031890869
1788164997968946000,3.07594580078125,-0.11816000193357468,-2.1261210441589355,-1.815742015838623
1788164997989137000,3.096136962890625,-1.7431260347366333,-1.2286620140075684,-1.9099220037460327
1788164997999223300,3.106223388671875,-1.3610130548477173,1.042294979095459,-1.218629002571106
1788164998009321000,3.116321044921875,-0.069582998752594,2.5671589374542236,-1.5162899494171143
1788164998039603000,3.14660302734375,0.441567987203598,0.25144898891448975,0.30038899183273315
1788164998069869600,3.17686962890625,-1.7341610193252563,1.170585036277771,-5.282736778259277
1788164998150616800,3.257616943359375,-0.40258899331092834,-3.93149995803833,1.4116870164871216
1788164998160771300,3.267771240234375,-2.5720698833465576,-8.41875171661377,10.994576454162598
1788164998170864000,3.277864013671875,6.952269077301025,-2.580674886703491,10.279060363769531
1788164998180942800,3.28794287109375,3.011383056640625,-2.104111909866333,8.197772979736328
1788164998191031800,3.29803173828125,-2.3856101036071777,0.31696200370788574,-1.004945993423462
1788164998201122600,3.30812255859375,-3.409682035446167,-0.6777219772338867,-5.200841903686523
1788164998241488000,3.34848779296875,5.395330905914307,-3.3747780323028564,8.574335098266602
1788164998281853000,3.38885302734375,-0.5715109705924988,-2.968533992767334,7.8686041831970215
1788164998312130300,3.41913037109375,-4.093636989593506,-2.2266509532928467,4.685122013092041
1788164998322222800,3.429222900390625,-4.166600227355957,-0.775825023651123,2.2082788944244385
1788164998332321800,3.43932177734375,-1.5077099800109863,-4.151360988616943,4.327494144439697
1788164998342421200,3.449421142578125,1.3674269914627075,-4.829250812530518,2.3560099601745605
1788164998362603800,3.469603759765625,3.0664830207824707,-1.54756498336792,-4.96827507019043
1788164998453447200,3.560447265625,-0.40411901473999023,-2.9247660636901855,1.3629610538482666
1788164998463542000,3.5705419921875,-1.7355220317840576,-3.242556095123291,-0.48419299721717834
1788164998483728000,3.590727783203125,-3.460874080657959,-0.8742709755897522,-1.8451440334320068
1788164998544281300,3.65128125,1.1671099662780762,-2.4160211086273193,-0.32448598742485046
1788164998574562600,3.6815625,1.3177920579910278,1.2185829877853394,3.4721009731292725
1788164998604841000,3.711841064453125,-1.6144189834594727,3.0192160606384277,-0.24958300590515137
1788164998635111700,3.742111572265625,-0.8862590193748474,-0.345550000667572,-3.0332798957824707
1788164998665400000,3.772400146484375,-0.13958799839019775,-0.44333499670028687,1.2837879657745361
1788164998685587500,3.79258740234375,-0.1975100040435791,-1.5314749479293823,1.0866429805755615
1788164998695677700,3.802677734375,-0.5069239735603333,-1.4956120252609253,0.4931420087814331
1788164998705766700,3.8127666015625,-0.4258120059967041,-1.6007130146026611,0.1712310016155243
1788164998715856100,3.822856201171875,-0.21702800691127777,-1.6091920137405396,-0.5413749814033508
1788164998725962800,3.832962646484375,0.3942529857158661,0.3657110035419464,-1.9752140045166016
1788164998746151700,3.853151611328125,0.18991999328136444,1.3742259740829468,-1.0116089582443237
1788164998826854000,3.93385400390625,-0.1090250015258789,-0.6179140210151672,-0.8425459861755371
1788164998836939300,3.943939208984375,1.3423550128936768,-1.3601750135421753,0.022546999156475067
1788164998857116200,3.9641162109375,-0.6489629745483398,2.618278980255127,3.3600211143493652
1788164998947918600,4.054918701171875,-0.1370449960231781,1.5574220418930054,-0.13786399364471436
1788164998998396200,4.105396240234375,-4.172913074493408,-0.4083159863948822,-4.461799144744873
1788164999018603500,4.125603515625,1.156944990158081,2.9639298915863037,3.050153970718384
1788164999028695800,4.13569580078125,2.5011401176452637,-0.4171940088272095,1.8678679466247559
1788164999048876500,4.15587646484375,-0.8701930046081543,-3.5865209102630615,-1.6844550371170044
1788164999069059000,4.17605908203125,-0.5928000211715698,-2.702286958694458,1.5568289756774902
1788164999089250600,4.19625048828125,-0.3377169966697693,1.9396790266036987,0.20325499773025513
1788164999119526400,4.2265263671875,1.0637539625167847,0.036006998270750046,0.541638970375061
1788164999129623300,4.236623291015625,0.19893400371074677,-0.0901160016655922,0.43554800748825073
1788164999149801200,4.25680126953125,-0.7065849900245667,-0.5060960054397583,0.44862499833106995
1788164999169979000,4.276978759765625,0.40531501173973083,3.32236909866333,-0.2621670067310333
1788164999180069600,4.287069580078125,-1.7148499488830566,1.2403780221939087,0.6522200107574463
1788164999190159600,4.29715966796875,-1.582129955291748,-0.2936300039291382,0.0694580003619194
1788164999220472300,4.327472412109375,1.5409409999847412,-1.6575920581817627,-0.4724699854850769
1788164999260831700,4.367831787109375,0.48162999749183655,-2.739422082901001,-3.907599925994873
1788164999291100400,4.398100341796875,-0.18373599648475647,-2.262829065322876,-5.7058939933776855
1788164999301192700,4.408192626953125,0.8777580261230469,-0.28328099846839905,-3.39290189743042
1788164999311312400,4.4183125,3.095168113708496,0.8077679872512817,1.2737350463867188
1788164999351688200,4.458688232421875,-2.3529889583587646,-2.1366260051727295,6.166194915771484
1788164999361776000,4.468776123046875,-1.4076420068740845,0.6070860028266907,5.641323089599609
1788164999371863600,4.478863525390625,-0.7182660102844238,8.068239212036133,7.559985160827637
1788164999381947400,4.488947509765625,-0.24829800426959991,4.8929290771484375,0.22899000346660614
1788164999392039000,4.499038818359375,0.40623798966407776,-1.9990990161895752,-4.117537975311279
1788164999412225800,4.519225830078125,-3.4030580520629883,6.012639045715332,5.140157222747803
1788164999422317800,4.52931787109375,2.1342790126800537,3.6086061000823975,2.3820950984954834
1788164999432411100,4.5394111328125,6.522716999053955,2.091017007827759,3.667957067489624
1788164999462688800,4.569688720703125,-4.185213088989258,-3.2379679679870605,-1.8301409482955933
1788164999472779800,4.57977978515625,-0.8330780267715454,-3.3755710124969482,-0.2899340093135834
1788164999482875400,4.58987548828125,-0.7179329991340637,-1.6393029689788818,-1.1501539945602417
1788164999513148200,4.620148193359375,-0.3075700104236603,0.2830739915370941,2.127815008163452
1788164999533326000,4.640326171875,-1.513403058052063,-1.2245919704437256,-0.46783900260925293
1788164999543423200,4.65042333984375,0.9114779829978943,-2.3981049060821533,-1.7471660375595093
1788164999553520600,4.660520751953125,2.1099750995635986,-5.123716831207275,-0.26614800095558167
1788164999573700400,4.680700439453125,2.0729620456695557,-1.8306939601898193,-0.880158007144928
1788164999583799600,4.690799560546875,0.43995600938796997,-2.2654929161071777,0.46806299686431885
1788164999593890600,4.700890625,-2.213884115219116,-3.780942916870117,0.7593179941177368
1788164999603986700,4.710986572265625,-5.679948806762695,-7.318451881408691,-0.8331350088119507
1788164999614078200,4.721078125,0.37376999855041504,-7.897206783294678,-1.54863703250885
1788164999624175000,4.731175048828125,-2.3338449001312256,-1.7216039896011353,3.7017509937286377
1788164999634265000,4.74126513671875,0.1361290067434311,0.9715020060539246,4.087650775909424
1788164999644357600,4.751357666015625,1.8608829975128174,3.402827024459839,3.872036933898926
1788164999664549000,4.771549072265625,1.877532958984375,3.993227005004883,1.5235979557037354
1788164999674638600,4.781638671875,1.5088560581207275,3.9580140113830566,0.004643999971449375
1788164999684739800,4.79173974609375,2.1058080196380615,2.769366979598999,-0.7573670148849487
1788164999694829600,4.80182958984375,2.6611509323120117,5.531449794769287,-2.037203073501587
1788164999704929300,4.81192919921875,2.848949909210205,3.0521628856658936,-2.2027499675750732
1788164999725112000,4.832112060546875,-0.5081850290298462,0.6952919960021973,-3.077238082885742
1788164999735197400,4.842197509765625,-2.906416893005371,-2.3714659214019775,-1.6709740161895752
1788164999755378000,4.8623779296875,-2.046052932739258,-3.3860299587249756,-1.0684629678726196
1788164999775570700,4.88257080078125,-0.9779090285301208,-1.0250849723815918,-1.3062219619750977
1788164999785664000,4.8926640625,-0.9668220281600952,0.6723859906196594,0.2945390045642853
1788164999795755500,4.902755615234375,-1.4627629518508911,0.951790988445282,1.3806910514831543
1788164999815950800,4.922950927734375,0.5409680008888245,1.1652660369873047,0.46916699409484863
1788164999826035500,4.933035400390625,1.2212369441986084,-0.013535999692976475,0.9381470084190369
1788164999846225400,4.953225341796875,0.9776639938354492,-0.7031019926071167,0.6832900047302246
1788164999856306700,4.963306640625,0.11498799920082092,-0.37479498982429504,-0.41429901123046875
1788164999866394000,4.97339404296875,0.08427499979734421,-1.1640119552612305,-0.9709399938583374
1788164999876483600,4.983483642578125,-0.07469599694013596,-1.2036659717559814,-1.3774739503860474
1788164999886575900,4.993575927734375,0.6188859939575195,-1.1351439952850342,-0.8057439923286438
1788164999896653300,5.0036533203125,-0.0650859996676445,-1.3882629871368408,-0.6638069748878479
1788164999906739000,5.013739013671875,-0.9266539812088013,-1.4685989618301392,-0.6462169885635376
1788164999916820500,5.023820556640625,-0.4597960114479065,-2.670480966567993,-0.6347209811210632
1788164999926908400,5.033908447265625,-0.4864090085029602,-3.3385300636291504,0.05583000183105469
1788164999936993000,5.043992919921875,0.3333530128002167,-3.9160799980163574,2.3357648849487305
1788164999947080700,5.054080810546875,1.1653170585632324,-1.6332839727401733,2.727428913116455
1788164999957172500,5.06417236328125,0.7464699745178223,2.1404459476470947,0.8710820078849792
1788164999977343200,5.08434326171875,-1.2999639511108398,1.7568340301513672,-0.47866401076316833
1788164999987431200,5.09443115234375,-0.7102519869804382,-3.1087779998779297,3.1617910861968994
1788164999997519600,5.10451953125,-0.2073040008544922,-3.9527170658111572,5.678627967834473
1788165000007611100,5.114611083984375,0.28804999589920044,-1.6297520399093628,4.268819808959961
1788165000027788800,5.134788818359375,-0.5916990041732788,1.604356050491333,0.7062749862670898
1788165000037873200,5.144873046875,-0.8032519817352295,-0.22555699944496155,0.6245390176773071
1788165000047970300,5.15497021484375,-1.1552339792251587,-1.7912620306015015,0.23065699636936188
1788165000058057700,5.1650576171875,-2.2470290660858154,0.9588329792022705,-2.3450798988342285
1788165000068149000,5.17514892578125,-3.049470901489258,2.212563991546631,-3.3692469596862793
1788165000078236200,5.185236083984375,-2.571120023727417,2.2614850997924805,-2.5322399139404297
1788165000088334300,5.195334228515625,-1.2274550199508667,-0.6864389777183533,0.19298799335956573
1788165000098427000,5.205427001953125,0.5903580188751221,-2.1348938941955566,1.4290059804916382
1788165000108526800,5.21552685546875,1.788025975227356,-0.8140829801559448,-0.6485459804534912
1788165000118618600,5.22561865234375,1.968822956085205,0.6647769808769226,-2.4743120670318604
1788165000128713700,5.235713623046875,2.0184450149536133,3.33099102973938,-4.060871124267578
1788165000158990000,5.265989990234375,1.1888500452041626,0.24828100204467773,-1.7486900091171265
1788165000169088000,5.276087890625,3.825934886932373,-0.23994000256061554,-2.3154280185699463
1788165000189270800,5.296270751953125,3.6311700344085693,3.738471031188965,-4.15108585357666
1788165000199359700,5.30635986328125,2.85261607170105,3.270339012145996,-2.483560085296631
1788165000209453800,5.316453857421875,1.9801570177078247,3.0670080184936523,-1.5064810514450073
1788165000219545300,5.32654541015625,0.8342540264129639,2.6752219200134277,-1.4394899606704712
1788165000229650000,5.33664990234375,-0.13558200001716614,2.458517074584961,-1.343858003616333
1788165000239740700,5.34674072265625,-0.09166300296783447,0.6632649898529053,-0.8957070112228394
1788165000249825300,5.3568251953125,0.11603400111198425,-0.4145680069923401,-1.1056770086288452
1788165000259926000,5.366926025390625,-0.862417995929718,-0.07586999982595444,-1.3892220258712769
1788165000270014500,5.377014404296875,-2.8904330730438232,0.12755799293518066,-0.03263799846172333
1788165000280119000,5.387119140625,-4.905302047729492,-3.8158650398254395,3.1606719493865967
1788165000290201600,5.39720166015625,-4.116313934326172,-6.52990198135376,3.2569050788879395
1788165000300295000,5.407294921875,-3.291879892349243,-7.046177864074707,0.8939359784126282
1788165000310391600,5.4173916015625,-2.244441032409668,-7.054017066955566,-1.2304500341415405
1788165000320482000,5.42748193359375,-0.8224639892578125,-6.560054779052734,-1.8162000179290771
1788165000330572500,5.437572509765625,-0.0215659998357296,-4.784876823425293,-0.3093720078468323
1788165000391138300,5.49813818359375,2.2799060344696045,-0.4223119914531708,4.114276885986328
1788165000401236000,5.508236083984375,1.1233210563659668,-1.557487964630127,6.724613189697266
1788165000421416200,5.528416259765625,-0.6523069739341736,-1.34574294090271,6.6166582107543945
1788165000461773000,5.56877294921875,5.906703948974609,-0.9010260105133057,1.3917779922485352
1788165000481955800,5.588955810546875,1.339115023612976,1.146267056465149,-0.39274799823760986
1788165000512239000,5.619239013671875,-1.7331780195236206,1.357537031173706,-4.6846208572387695
1788165000522323700,5.62932373046875,-2.4893178939819336,1.4373019933700562,-2.6618990898132324
1788165000532417000,5.6394169921875,-2.988042116165161,0.2959330081939697,-0.006477000191807747
1788165000542514200,5.64951416015625,-2.5510571002960205,-0.10308200120925903,0.8521029949188232
1788165000552606000,5.65960595703125,-0.8385229706764221,-0.8293489813804626,-0.2380719929933548
1788165000562696000,5.669696044921875,0.018850000575184822,-0.8709189891815186,-2.0058040618896484
1788165000572785200,5.67978515625,3.257662057876587,-1.4902830123901367,-4.389310836791992
1788165000582877700,5.689877685546875,5.728649139404297,-0.5915049910545349,-3.9758410453796387
1788165000592972000,5.699971923828125,6.7713799476623535,-0.04046599939465523,-1.5177429914474487
1788165000603068000,5.71006787109375,7.020867824554443,0.7590349912643433,-1.9251940250396729
1788165000613160700,5.72016064453125,6.867784023284912,-1.583156943321228,-1.084144949913025
1788165000623263200,5.73026318359375,4.871262073516846,-2.6252241134643555,-2.2337429523468018
1788165000693910300,5.80091015625,-2.1383180618286133,4.864384174346924,-5.401309013366699
1788165000714097700,5.82109765625,-13.105356216430664,1.2981150150299072,-10.253705024719238
1788165000724196900,5.83119677734375,-11.118735313415527,4.810523986816406,-8.962503433227539
1788165000734286000,5.8412861328125,-7.239224910736084,6.723611831665039,-6.900221824645996
1788165000744374800,5.851374755859375,-2.9190878868103027,5.429412841796875,-4.038937091827393
1788165000754468900,5.86146875,-1.9412219524383545,3.3701679706573486,-1.7789989709854126
1788165000764573200,5.8715732421875,-3.0733590126037598,3.3066999912261963,-1.3105100393295288
1788165000774669300,5.88166943359375,-3.370695114135742,3.496906042098999,-0.9749370217323303
1788165000784766000,5.891765869140625,-3.2920289039611816,3.0954110622406006,0.648481011390686
1788165000794866400,5.901866455078125,-1.1629749536514282,0.4430679976940155,3.346992015838623
1788165000815063000,5.92206298828125,2.7357399463653564,-2.045728921890259,5.312145233154297
1788165000825155600,5.932155517578125,0.4662030041217804,-2.886194944381714,3.820499897003174
1788165000835251500,5.94225146484375,-0.9548860192298889,-2.925468921661377,0.7943469882011414
1788165000845346600,5.9523466796875,-4.440180778503418,-1.6759459972381592,-2.996613025665283
1788165000855436800,5.962436767578125,-4.933848857879639,-1.95427405834198,-3.839181900024414
1788165000865535200,5.97253515625,-1.5689129829406738,-4.846458911895752,-2.5827291011810303
1788165000875627800,5.982627685546875,1.319923996925354,-4.602232933044434,-5.404843807220459
1788165000885719800,5.9927197265625,4.760655879974365,-4.380541801452637,-5.581930160522461
1788165000895809800,6.002809814453125,8.170907974243164,-3.753525972366333,-4.50668478012085
1788165000915991800,6.02299169921875,8.512043952941895,-0.28592801094055176,-1.4088040590286255
1788165000926090800,6.0330908203125,2.8645520210266113,-0.37130600214004517,1.115731954574585
1788165000936176400,6.04317626953125,-2.577152967453003,-2.2134950160980225,3.7971720695495605
1788165000946273500,6.0532734375,-5.062794208526611,-1.812911033630371,3.1932129859924316
1788165000956368000,6.063367919921875,-2.7277040481567383,-2.4332199096679688,3.1321280002593994
1788165000966460400,6.07346044921875,0.09877099841833115,-0.68790602684021,2.5937678813934326
1788165000976548400,6.08354833984375,2.4355170726776123,0.4422000050544739,2.1505351066589355
1788165000986640100,6.09364013671875,2.551414966583252,-0.08458200097084045,2.4244680404663086
1788165000996720400,6.103720458984375,0.108303003013134,-1.9403690099716187,2.797637939453125
1788165001006810400,6.113810302734375,-1.5330959558486938,-3.5132970809936523,2.848997116088867
1788165001016895500,6.1238955078125,-0.7795370221138,-2.2137598991394043,2.3856430053710938
1788165001026980000,6.13397998046875,0.3456209897994995,-4.232015132904053,3.750770092010498
1788165001037065700,6.144065673828125,2.810879945755005,-3.9556689262390137,4.569773197174072
1788165001047156200,6.15415625,3.77646803855896,-2.48281192779541,5.181912899017334
1788165001057238500,6.164238525390625,2.7806529998779297,0.05941599979996681,3.7237141132354736
1788165001067329800,6.174329833984375,0.36154699325561523,2.0103540420532227,0.8673959970474243
1788165001097591800,6.204591796875,-1.5909709930419922,-2.730415105819702,1.1751559972763062
1788165001107687400,6.2146875,-1.3802059888839722,-2.4465699195861816,1.2480649948120117
1788165001117768200,6.224768310546875,-0.6421599984169006,-1.5869139432907104,1.1800260543823242
1788165001127864300,6.2348642578125,0.43821001052856445,-0.4290649890899658,1.1207109689712524
1788165001148048100,6.255048095703125,3.1388840675354004,2.0620028972625732,1.023386001586914
1788165001158143200,6.265143310546875,3.652261972427368,2.5354599952697754,0.8920739889144897
1788165001168233000,6.27523291015625,2.6279349327087402,2.731049060821533,0.6164640188217163
1788165001178327600,6.28532763671875,1.6419730186462402,2.3434879779815674,0.2948650121688843
1788165001188417300,6.295417236328125,0.6805149912834167,1.5804979801177979,-0.15608499944210052
1788165001198514400,6.305514404296875,-2.139957904815674,2.078169107437134,-0.8333960175514221
1788165001208615200,6.315615234375,-3.638890027999878,0.9499059915542603,-0.8948389887809753
1788165001218708700,6.325708740234375,-3.4157419204711914,-0.35673999786376953,-1.4508509635925293
1788165001228805600,6.3358056640625,-1.4450839757919312,-0.8591690063476562,-1.7377640008926392
1788165001238896000,6.345896240234375,0.9007790088653564,-1.1662570238113403,-1.2417759895324707
1788165001248992300,6.3559921875,1.4636939764022827,-1.4493709802627563,-1.090651035308838
1788165001259084500,6.36608447265625,1.150048017501831,-1.1750329732894897,-1.2226810455322266
1788165001269180200,6.37618017578125,2.228080987930298,-1.7146999835968018,-1.0647419691085815
1788165001279268000,6.38626806640625,1.0767300128936768,-1.6743210554122925,-1.093951940536499
1788165001289360000,6.39635986328125,-2.0494799613952637,-1.183938980102539,-1.6298799514770508
1788165001299455000,6.406455078125,-3.1771199703216553,-0.13111799955368042,-1.5290629863739014
1788165001309552000,6.41655224609375,-1.8801649808883667,-0.03618000075221062,-0.23252399265766144
1788165001329741300,6.4367412109375,1.2131390571594238,-0.3975670039653778,0.9321370124816895
1788165001349910300,6.45691015625,0.6755049824714661,0.09617000073194504,0.9088580012321472
1788165001359992800,6.466992919921875,0.13474500179290771,0.18006600439548492,0.5901219844818115
1788165001370090000,6.477090087890625,-0.10165099799633026,0.5195459723472595,-0.012600000016391277
1788165001380181800,6.487181640625,0.6975229978561401,0.46892398595809937,0.08707399666309357
1788165001390273300,6.497273193359375,-0.13242100179195404,0.1208610013127327,0.03839699923992157
1788165001400359400,6.507359375,0.7213169932365417,2.95192289352417,-0.5418559908866882
1788165001410456600,6.51745654296875,1.8200180530548096,2.178849935531616,-2.827378034591675
1788165001420539400,6.527539306640625,0.5312020182609558,-0.661083996295929,-1.2612470388412476
1788165001430634000,6.537634033203125,-1.6036239862442017,-1.8417249917984009,-0.47362300753593445
1788165001440717000,6.547717041015625,-1.45284104347229,-2.5104401111602783,1.267611026763916
1788165001450804500,6.557804443359375,-2.514925003051758,-1.5099120140075684,0.9856989979743958
1788165001460894200,6.567894287109375,1.815943956375122,1.3324609994888306,0.084026999771595
1788165001470991000,6.5779912109375,0.7319160103797913,1.147178053855896,1.8335050344467163
1788165001491175200,6.598175048828125,-0.41324299573898315,-2.4491260051727295,1.6769709587097168
1788165001501259300,6.60825927734375,0.37936699390411377,-2.0943920612335205,0.30494898557662964
1788165001511370500,6.61837060546875,0.9319429993629456,-1.4679460525512695,-0.45234400033950806
1788165001531561500,6.6385615234375,-0.19067299365997314,-0.22691699862480164,-0.2890680134296417
1788165001541649200,6.648649169921875,0.11941900104284286,-0.6184409856796265,0.9125369787216187
1788165001561835000,6.6688349609375,-0.9658070206642151,-2.4448869228363037,-0.4353080093860626
1788165001571924700,6.6789248046875,-2.2309229373931885,0.5815219879150391,-1.1309579610824585
1788165001592107300,6.699107177734375,-0.21206100285053253,1.0401849746704102,0.09949400275945663
1788165001602196700,6.70919677734375,0.3611130118370056,0.23929299414157867,1.1446820497512817
1788165001612290600,6.71929052734375,0.6569039821624756,-0.11939399689435959,1.2336039543151855
1788165001622385700,6.7293857421875,1.1372109651565552,0.33346500992774963,0.8640069961547852
1788165001632480800,6.739480712890625,2.371000051498413,0.8803399801254272,0.1683029979467392
1788165001642581000,6.7495810546875,0.7806370258331299,0.36391299962997437,-0.12578199803829193
1788165001652672300,6.75967236328125,-0.13986100256443024,-0.22125999629497528,-0.21307499706745148
1788165001662765000,6.76976513671875,-0.16082000732421875,-0.4550740122795105,-0.23064100742340088
1788165001672856800,6.77985693359375,0.1630290001630783,-0.3568600118160248,0.13349300622940063
1788165001693045800,6.800045654296875,-0.7356929779052734,0.3535189926624298,-0.6229209899902344
1788165001703141600,6.8101416015625,0.08065800368785858,0.18893499672412872,-0.96247398853302
1788165001713232000,6.82023193359375,-0.19350400567054749,-0.4087100028991699,-0.8241369724273682
1788165001723321000,6.830321044921875,-0.6997730135917664,-0.9089229702949524,-0.627784013748169
1788165001733408500,6.840408447265625,3.6801071166992188,2.618056058883667,-6.6744771003723145
1788165001743509000,6.850509033203125,-2.236164093017578,-0.21700899302959442,3.6563351154327393
1788165001753605600,6.860605712890625,-6.622763156890869,-11.48495101928711,8.464051246643066
1788165001763696400,6.8706962890625,-0.4441710114479065,-1.7438069581985474,-1.2991230487823486
1788165001783880700,6.890880615234375,0.7082740068435669,3.1284589767456055,-2.0007309913635254
1788165001793971700,6.9009716796875,-1.1815359592437744,1.5890569686889648,-1.5530279874801636
1788165001804070700,6.911070556640625,-1.0732669830322266,0.6121699810028076,-0.6121079921722412
1788165001814163700,6.921163818359375,-0.6351850032806396,-0.11815600097179413,0.6836810111999512
1788165001824264200,6.93126416015625,-0.5569310188293457,-1.3973679542541504,1.1858240365982056
1788165001834349000,6.94134912109375,0.09325599670410156,-1.6537419557571411,1.3059940338134766
1788165001844444000,6.95144384765625,0.758400022983551,-2.014380931854248,0.9593639969825745
1788165001854540500,6.96154052734375,3.3349521160125732,-1.8376950025558472,1.682541012763977
1788165001864642800,6.971642822265625,1.378499984741211,-0.6361330151557922,0.45067599415779114
1788165001874729000,6.98172900390625,0.8725540041923523,0.23592300713062286,-0.21752899885177612
1788165001884831500,6.99183154296875,-0.11259700357913971,1.0579930543899536,-0.6612769961357117
1788165001894923000,7.001923095703125,-0.3423280119895935,1.44418203830719,-0.3765130043029785
1788165001905017000,7.01201708984375,-1.165266990661621,0.9993720054626465,0.9053320288658142
1788165001915096800,7.022096923828125,-0.6587849855422974,0.22437900304794312,1.261955976486206
1788165001925198600,7.032198486328125,-0.24375100433826447,0.7154039740562439,-0.20145699381828308
1788165001935288300,7.042288330078125,0.691474974155426,-1.3964190483093262,1.1198699474334717
1788165001945377500,7.05237744140625,0.884896993637085,-1.489848017692566,0.5947099924087524
1788165001955470800,7.062470947265625,-1.575698971748352,-0.9321159720420837,-0.89274001121521
1788165001965566700,7.072566650390625,-2.516479969024658,-1.6899349689483643,-0.7982029914855957
1788165001975659300,7.0826591796875,-0.1969120055437088,-2.9841148853302,-0.7598609924316406
1788165001985751300,7.092751220703125,0.7570940256118774,-1.3515000343322754,-0.3399600088596344
1788165001995845600,7.102845703125,0.8432360291481018,-0.460783988237381,0.1392119973897934
1788165002005942300,7.1129423828125,0.42986398935317993,0.4042400121688843,-0.05154699832201004
1788165002016031500,7.123031494140625,-0.504252016544342,0.448760986328125,0.24993300437927246
1788165002026125800,7.133125732421875,0.3300609886646271,1.1988179683685303,-0.3825179934501648
1788165002036219100,7.14321923828125,0.8542389869689941,1.2552649974822998,-0.10618600249290466
1788165002046309400,7.153309326171875,3.3164589405059814,0.4692929983139038,0.8422300219535828
1788165002056391000,7.163390869140625,2.4714388847351074,-0.9454730153083801,3.7190349102020264
1788165002066483000,7.17348291015625,-1.7357219457626343,-1.8109389543533325,5.420930862426758
1788165002076573400,7.183573486328125,-3.6422131061553955,1.1564979553222656,-1.230672001838684
1788165002096744700,7.20374462890625,-1.0617640018463135,-0.6726809740066528,0.014294000342488289
1788165002106834000,7.213833984375,-0.0637580007314682,-1.2906270027160645,-0.5096240043640137
1788165002116918300,7.223918212890625,0.5755460262298584,-1.1733920574188232,0.027600999921560287
1788165002127001300,7.23400146484375,1.6312650442123413,-0.5177500247955322,1.5144020318984985
1788165002137088000,7.244087890625,1.4799439907073975,0.04583999887108803,1.138340950012207
1788165002147172900,7.2541728515625,-0.7189840078353882,0.28661400079727173,0.4839499890804291
1788165002157259500,7.264259521484375,-1.0559779405593872,0.2672640085220337,-0.06617700308561325
1788165002167336200,7.274336181640625,1.7673419713974,0.6632919907569885,-0.6732069849967957
1788165002177418800,7.284418701171875,3.3409500122070312,0.6516810059547424,0.03275100141763687
1788165002187514000,7.29451416015625,1.9431289434432983,0.6861069798469543,-0.18574200570583344
1788165002197599700,7.304599853515625,0.5489150285720825,1.0210599899291992,-1.0495259761810303
1788165002207693300,7.314693359375,0.3256489932537079,1.4295459985733032,-2.0531489849090576
1788165002217783800,7.32478369140625,0.5280830264091492,0.9719319939613342,-1.8379329442977905
1788165002227877400,7.33487744140625,0.7706360220909119,0.11079400032758713,-1.5100129842758179
1788165002237951700,7.34495166015625,0.09852900356054306,-0.07926300168037415,-1.891213059425354
1788165002248057000,7.35505712890625,-0.3263629972934723,0.05209900066256523,-2.0330209732055664
1788165002258152400,7.36515234375,-1.2155810594558716,-0.17684899270534515,-1.9160399436950684
1788165002268243700,7.37524365234375,-1.7864359617233276,-0.5838459730148315,-1.5627429485321045
1788165002278335500,7.38533544921875,-2.2317678928375244,-1.2706780433654785,-0.12952400743961334
1788165002288426000,7.395426025390625,-1.5995980501174927,-1.1494100093841553,-0.4567910134792328
1788165002298519300,7.405519287109375,-0.3916670083999634,-1.081315040588379,0.14687100052833557
1788165002308610300,7.4156103515625,0.517274022102356,-0.787106990814209,0.032182998955249786
1788165002318710300,7.425710205078125,0.44046398997306824,-0.3717159926891327,0.02136800065636635
1788165002328801800,7.4358017578125,0.8310660123825073,0.2016270011663437,0.18463799357414246
1788165002338903300,7.4459033203125,6.167356014251709,1.3987070322036743,-2.0902090072631836
1788165002349000200,7.456000244140625,0.7910569906234741,0.01106099970638752,-0.6120240092277527
1788165002359098600,7.4660986328125,-2.882718086242676,-0.761572003364563,2.2452950477600098
1788165002369196300,7.4761962890625,-2.8285770416259766,0.3153899908065796,0.6968029737472534
1788165002379289900,7.486289794921875,-1.5849659442901611,0.11926499754190445,0.7387250065803528
1788165002389375200,7.496375244140625,-1.0915050506591797,-0.15937300026416779,1.5792700052261353
1788165002399470800,7.506470947265625,-0.2464209944009781,0.24304500222206116,1.597872018814087
1788165002409555700,7.5165556640625,-0.1674250066280365,0.12094099819660187,1.2051490545272827
1788165002419648000,7.52664794921875,1.272467017173767,-0.41355299949645996,1.756363034248352
1788165002429733000,7.536733154296875,1.725937008857727,-0.46125099062919617,1.0514999628067017
1788165002439822600,7.546822509765625,0.2812030017375946,0.400968998670578,0.2215539962053299
1788165002449908200,7.556908203125,-0.06763599812984467,-0.027790000662207603,-0.2247599959373474
1788165002460042200,7.567042236328125,0.11187200248241425,-0.06544099748134613,-0.2758229970932007
1788165002470129200,7.577129150390625,0.6132680177688599,-0.06618399918079376,-0.5693359971046448
1788165002480228400,7.587228271484375,0.7424349784851074,-0.5264710187911987,-0.7050489783287048
1788165002490312700,7.597312744140625,0.20461100339889526,-0.003982999827712774,-0.7593290209770203
1788165002500399600,7.607399658203125,-1.159999966621399,0.45437100529670715,-0.30388298630714417
1788165002510484500,7.617484375,-1.0271669626235962,-0.16274000704288483,0.6992959976196289
1788165002520577300,7.627577392578125,0.7616450190544128,-0.36181700229644775,0.030100999400019646
1788165002530667800,7.637667724609375,-0.382735013961792,-0.022050000727176666,-0.5544310212135315
1788165002540759300,7.64775927734375,-0.5201619863510132,-0.28741300106048584,-0.4712499976158142
1788165002550844400,7.657844482421875,-0.016958000138401985,-0.5509210228919983,-0.49605798721313477
1788165002560935400,7.667935302734375,-0.07823999971151352,-0.3062739968299866,-0.5164700150489807
1788165002571023000,7.678023193359375,0.08869899809360504,-0.2993839979171753,-0.42243900895118713
1788165002581127200,7.688127197265625,0.4273509979248047,0.03270899876952171,-0.3473620116710663
1788165002591220700,7.698220703125,0.5018889904022217,0.5114169716835022,-0.4685969948768616
1788165002601305600,7.7083056640625,0.4489299952983856,0.7864909768104553,-0.3152500092983246
1788165002611394000,7.71839404296875,0.8031269907951355,1.059048056602478,-0.5198829770088196
1788165002621485000,7.728485107421875,0.4926089942455292,1.1892509460449219,-0.6443520188331604
1788165002631580000,7.738579833984375,-0.24872499704360962,1.2362300157546997,-0.6236799955368042
1788165002641673500,7.748673583984375,-0.35566699504852295,-0.3025769889354706,-0.2962459921836853
1788165002651758600,7.758758544921875,-0.7118740081787109,-1.416774034500122,0.6610869765281677
1788165002661847300,7.768847412109375,-0.6824960112571716,-1.9013789892196655,0.6587730050086975
1788165002671945200,7.7789453125,-0.34345000982284546,-1.5502049922943115,-0.1041250005364418
1788165002682053000,7.78905322265625,0.162214994430542,-0.9488400220870972,-0.6842169761657715
1788165002692139800,7.799139892578125,0.14667099714279175,-0.6395509839057922,-0.485588014125824
1788165002702234600,7.809234619140625,0.47186899185180664,-0.131398007273674,0.014156999997794628
1788165002722420200,7.829420166015625,0.34529000520706177,-0.5468320250511169,-0.9263299703598022
1788165002732516400,7.839516357421875,-0.8533070087432861,-1.4940210580825806,-1.1187800168991089
1788165002742608400,7.8496083984375,-0.8259270191192627,-1.4717390537261963,-1.0991430282592773
1788165002752707300,7.859707275390625,-2.0343589782714844,-0.9120510220527649,-2.7440850734710693
1788165002762800400,7.86980029296875,-3.1995930671691895,-3.8568849563598633,-3.0004661083221436
1788165002772899800,7.87989990234375,-0.4268989861011505,-0.17862600088119507,7.765920162200928
1788165002782990600,7.889990478515625,-1.3439860343933105,4.429818153381348,7.439101219177246
1788165002793080000,7.900080078125,-0.21506500244140625,1.7018109560012817,3.589294910430908
1788165002803167200,7.910167236328125,0.6701499819755554,-0.1851010024547577,1.2763559818267822
1788165002813258500,7.920258544921875,0.5479350090026855,0.6466559767723083,-0.2536480128765106
1788165002823341800,7.930341796875,-0.08355700224637985,0.4298590123653412,-0.41047999262809753
1788165002833429000,7.940428955078125,-0.054343998432159424,0.03940200060606003,-0.20283499360084534
1788165002843522300,7.950522216796875,-0.6917039752006531,-0.073853999376297,1.3621000051498413
1788165002853611500,7.960611572265625,-1.1656179428100586,0.11160500347614288,1.6237410306930542
1788165002863701200,7.970701171875,-0.13375400006771088,0.3055819869041443,1.7009170055389404
1788165002883883500,7.990883544921875,0.423893004655838,0.8328729867935181,0.7985730171203613
1788165002893980000,8.00097998046875,-1.0117889642715454,-0.07391799986362457,-0.6107869744300842
1788165002904071700,8.01107177734375,-0.47613799571990967,-0.11576399952173233,-1.1926770210266113
1788165002914159900,8.021159912109376,0.23240900039672852,0.19912199676036835,-1.2664029598236084
1788165002924266000,8.031265869140626,-0.23765499889850616,1.0249830484390259,-0.44832101464271545
1788165002934355500,8.04135546875,0.01679299958050251,0.16704200208187103,0.09528400003910065
1788165002944442400,8.0514423828125,-0.7066590189933777,-0.22393399477005005,-0.3094500005245209
1788165002954543000,8.061543212890625,-1.237876057624817,-0.4717859923839569,-0.1292160004377365
1788165002964638200,8.07163818359375,-0.9429969787597656,-0.4838620126247406,-0.32805299758911133
1788165002974749400,8.08174951171875,-0.2943570017814636,0.12749600410461426,-0.32112300395965576
1788165002984842500,8.091842529296875,0.5254570245742798,0.9353449940681458,-0.5329059958457947
1788165002994945300,8.1019453125,0.4794059991836548,0.2084220051765442,-0.41022801399230957
1788165003005034500,8.112034423828124,0.26329100131988525,-0.4461979866027832,-1.0985430479049683
1788165003015133200,8.12213330078125,0.728393018245697,0.1508769989013672,-1.2242530584335327
1788165003025217300,8.13221728515625,0.2097730040550232,0.6113830208778381,-1.4087810516357422
1788165003035322600,8.142322509765625,-0.3637790083885193,0.07241500169038773,0.36058101058006287
1788165003045414000,8.152413818359374,-1.1468980312347412,0.2010509967803955,0.08437500149011612
1788165003055507700,8.1625078125,-0.13441400229930878,0.07130400091409683,0.18521100282669067
1788165003065598000,8.172597900390626,-0.4064989984035492,-0.2804960012435913,-0.6708499789237976
1788165003075693300,8.182693359375,-0.567192018032074,-0.8229870200157166,-0.7649610042572021
1788165003085784000,8.1927841796875,0.07150000333786011,0.2337220013141632,-0.48090100288391113
1788165003095884800,8.202884765625,0.2012690007686615,0.41382700204849243,0.31365200877189636
1788165003105976300,8.212976318359376,-0.3393329977989197,-0.44266000390052795,0.8551419973373413
1788165003116073700,8.22307373046875,-0.42932000756263733,-0.8113790154457092,0.6657209992408752
1788165003126170600,8.233170654296876,-0.46835100650787354,-0.5040209889411926,0.5040140151977539
1788165003136258600,8.243258544921876,0.27572500705718994,-0.11242400109767914,0.920166015625
1788165003146358000,8.25335791015625,0.7461919784545898,-0.21183699369430542,1.9290200471878052
1788165003156450300,8.2634501953125,0.08094999939203262,-0.5487020015716553,1.0603669881820679
1788165003166534700,8.27353466796875,-0.16474199295043945,-0.6360200047492981,-0.30410200357437134
1788165003176623400,8.283623291015624,0.17456300556659698,-0.7161570191383362,-1.532526969909668
1788165003186712800,8.293712890625,0.5770769715309143,-0.06567800045013428,-3.210926055908203
1788165003196797000,8.303796875,0.46435898542404175,-0.7357770204544067,1.4690229892730713
1788165003206892000,8.31389208984375,-0.31048399209976196,-0.31916099786758423,2.851116895675659
1788165003216985900,8.32398583984375,0.0037400000728666782,-0.655256986618042,1.3642810583114624
1788165003227072500,8.334072509765624,-0.37099799513816833,0.784080982208252,-0.7840759754180908
1788165003237163000,8.3441630859375,-0.6767849922180176,1.9522550106048584,-3.4114201068878174
1788165003247246800,8.354246826171876,1.1903059482574463,3.6673591136932373,-0.3764379918575287
1788165003257341200,8.364341064453125,1.7354919910430908,1.6473809480667114,4.203810214996338
1788165003267429000,8.37442919921875,-0.48291701078414917,-1.651837944984436,0.2660219967365265
1788165003277522400,8.3845224609375,-0.5319039821624756,-3.639369010925293,1.1719189882278442
1788165003287624400,8.39462451171875,0.12679900228977203,-0.1739490032196045,0.5935819745063782
1788165003297719800,8.4047197265625,-1.878872036933899,0.27647900581359863,2.2984530925750732
1788165003307799800,8.4147998046875,-2.2303380966186523,-0.3785339891910553,2.7859320640563965
1788165003317890000,8.42489013671875,-0.24450500309467316,0.15645599365234375,0.8798199892044067
1788165003327975700,8.4349755859375,-1.3014609813690186,1.8164479732513428,-1.409214973449707
1788165003338073600,8.445073486328125,0.8616679906845093,-0.04758400097489357,-2.2347710132598877
1788165003348153300,8.4551533203125,0.8566240072250366,-0.4069019854068756,-1.6137239933013916
1788165003358269700,8.465269775390626,0.5433300137519836,0.3559249937534332,-0.7432870268821716
1788165003368353500,8.475353515625,0.018818000331521034,-0.3357909917831421,-0.7396439909934998
1788165003378439200,8.485439208984374,-0.727258026599884,-1.2550950050354004,-0.5173749923706055
1788165003388525800,8.49552587890625,-0.8951600193977356,-0.7411270141601562,-0.3144429922103882
1788165003398626300,8.505626220703125,-0.2526009976863861,0.5026479959487915,-0.35727500915527344
1788165003408720000,8.515719970703126,0.10347600281238556,-2.359502077102661,-0.3216620087623596
1788165003418812700,8.525812744140625,-0.011912999674677849,-1.1595669984817505,-0.13252399861812592
1788165003428899300,8.5358994140625,0.011009999550879002,-0.10164699703454971,0.6285179853439331
1788165003438995700,8.54599560546875,0.04667999967932701,-0.07467599958181381,0.14482399821281433
1788165003449085000,8.5560849609375,-0.0028909998945891857,1.380260944366455,-0.042507998645305634
1788165003459172400,8.56617236328125,-0.27279898524284363,0.2801690101623535,1.1423360109329224
1788165003469266400,8.576266357421876,-0.31519800424575806,-0.06314700096845627,0.4022659957408905
1788165003479365000,8.586365234375,-1.0451619625091553,-0.5888280272483826,1.3106000423431396
1788165003489455600,8.59645556640625,-1.3464369773864746,-1.914268970489502,1.101928949356079
1788165003499552500,8.606552490234375,1.0747339725494385,1.623872995376587,-0.585657000541687
1788165003509639200,8.61663916015625,-0.5898000001907349,0.16450800001621246,1.1786079406738281
1788165003519733000,8.62673291015625,-0.33455100655555725,-0.6412370204925537,0.5144670009613037
1788165003529835500,8.63683544921875,-0.05879700183868408,0.018456000834703445,-0.9841499924659729
1788165003539926800,8.6469267578125,-0.003942000214010477,0.6731939911842346,-0.06741700321435928
1788165003550011100,8.65701123046875,-0.1593959927558899,-0.5533149838447571,-0.2091670036315918
1788165003560097500,8.66709765625,-0.1367190033197403,-3.5213730335235596,0.8218259811401367
1788165003570193400,8.677193359375,-0.6585249900817871,1.2936489582061768,0.11340499669313431
1788165003580282600,8.68728271484375,-0.2953850030899048,2.354020118713379,0.24042199552059174
1788165003590374000,8.697373779296875,-0.3269389867782593,1.4432669878005981,0.7772240042686462
1788165003600465200,8.707465087890625,-0.4976710081100464,1.7758879661560059,-0.07396800071001053
1788165003610551000,8.717551025390625,1.5280230045318604,4.816230773925781,-1.0597649812698364
1788165003620643800,8.727643798828124,0.4182029962539673,3.4929909706115723,0.8280820250511169
1788165003630735000,8.737735107421875,0.2832779884338379,1.2171460390090942,-0.774940013885498
1788165003640826600,8.74782666015625,0.23372599482536316,-0.48688700795173645,-0.37700799107551575
1788165003650914000,8.7579140625,0.12610100209712982,-0.22707200050354004,-1.375412940979004
1788165003661003800,8.768003662109376,0.47511500120162964,-2.0748519897460938,-0.8204110264778137
1788165003671100400,8.778100341796875,0.5413089990615845,-8.25860595703125,-1.4232139587402344
1788165003681183000,8.788182861328124,1.1620010137557983,-9.074745178222656,-0.9259039759635925
1788165003691287300,8.798287353515626,0.019864000380039215,-6.61348819732666,-0.6865190267562866
1788165003701381600,8.808381591796875,-1.0416630506515503,-3.577414035797119,0.4719719886779785
1788165003711472400,8.818472412109376,-1.9170910120010376,-0.6196479797363281,1.007478952407837
1788165003721567500,8.8285673828125,-0.41115400195121765,0.8583679795265198,1.8209140300750732
1788165003731662000,8.838662109375,-5.746591091156006,4.031289100646973,-1.8588440418243408
1788165003741751800,8.848751708984375,-12.402413368225098,-3.3857638835906982,-1.9796390533447266
1788165003751840000,8.858840087890625,-1.3459800481796265,-1.8237890005111694,0.6648330092430115
1788165003761931500,8.868931640625,2.9298009872436523,2.670098066329956,-0.4743559956550598
1788165003772028200,8.879028076171876,2.21396803855896,4.100285053253174,-3.044559955596924
1788165003782129400,8.88912939453125,3.2535910606384277,3.7179739475250244,-1.6304670572280884
1788165003792219400,8.899219482421875,4.88746976852417,4.041807174682617,1.1382390260696411
1788165003802309400,8.909309326171876,6.473686218261719,4.793875217437744,1.620162010192871
1788165003812402000,8.91940185546875,6.291528224945068,4.323941230773926,1.324357032775879
1788165003822494200,8.929494140625,4.541955947875977,2.9695229530334473,0.9186199903488159
1788165003832597800,8.93959765625,2.08837890625,1.5811899900436401,0.8957700133323669
1788165003842688300,8.949688232421876,-0.7669849991798401,0.570002019405365,0.7376499772071838
1788165003852776400,8.9597763671875,-2.8313939571380615,-0.7572100162506104,0.4457390010356903
1788165003862857700,8.969857666015624,-3.0543909072875977,-2.883125066757202,0.12806500494480133
1788165003872956000,8.979955810546874,-2.8175859451293945,-4.027519226074219,-0.4034059941768646
1788165003883049700,8.9900498046875,-0.8801569938659668,-3.9539830684661865,-1.1407419443130493
1788165003893165000,9.0001650390625,-1.2039860486984253,-3.3869779109954834,-1.2263250350952148
1788165003903256000,9.010256103515625,-1.308961033821106,-1.7994990348815918,-1.3891830444335938
1788165003913350000,9.020349853515626,-1.2698270082473755,-0.8586770296096802,-1.4429290294647217
1788165003923443200,9.030443115234375,-0.7595270276069641,-0.29482999444007874,-1.2453229427337646
1788165003933532400,9.040532470703125,-0.09643200039863586,0.0971670001745224,-0.8527650237083435
1788165003943623200,9.050623046875,0.5563669800758362,0.3901599943637848,-0.4523710012435913
1788165003953716000,9.060716064453125,0.8353649973869324,0.5799750089645386,-0.0739390030503273
1788165003963802600,9.070802734375,0.8745909929275513,0.6018739938735962,0.07442200183868408
1788165003973894400,9.080894287109375,0.6523799896240234,0.3866899907588959,0.06591899693012238
1788165003983986400,9.090986328125,0.34928199648857117,0.08915899693965912,-0.12405399978160858
1788165003994081300,9.101081298828126,0.23016299307346344,-0.20534099638462067,-0.39915600419044495
1788165004004167000,9.1111669921875,0.09476599842309952,-0.4237399995326996,-0.6016460061073303
1788165004014262000,9.121261962890625,-0.07788500189781189,-0.4983760118484497,-0.5114930272102356
1788165004024347000,9.131346923828126,-0.2720299959182739,-0.40885600447654724,-0.3580940067768097
1788165004034446000,9.141446044921874,-0.36381301283836365,-0.21768300235271454,-0.23968400061130524
1788165004044546800,9.151546875,-0.3655099868774414,0.002696000039577484,-0.16632799804210663
1788165004054643700,9.161643798828125,-0.30540600419044495,0.256058007478714,-0.14262999594211578
1788165004064744200,9.171744140625,-0.08419100195169449,0.4056839942932129,-0.03724399954080582
1788165004074834700,9.181834716796875,0.03746499866247177,0.41790199279785156,0.0901539996266365
1788165004084932000,9.19193212890625,0.14150500297546387,0.3095180094242096,0.2766689956188202
1788165004095028500,9.202028564453125,0.17672200500965118,0.16054199635982513,0.4052619934082031
1788165004105123000,9.212123046875,0.20358699560165405,0.0034050000831484795,0.3328849971294403
1788165004115219200,9.22221923828125,0.16014400124549866,-0.1392039954662323,0.2544899880886078
1788165004125318000,9.23231787109375,0.18886999785900116,-0.19441300630569458,0.16087499260902405
1788165004135413000,9.2424130859375,0.3346239924430847,-0.23168699443340302,0.12826700508594513
1788165004145503200,9.252503173828124,0.4228779971599579,-0.25937899947166443,0.08115900307893753
1788165004155598300,9.262598388671876,0.48569101095199585,-0.19263699650764465,0.0014900000533089042
1788165004165687800,9.272687744140624,0.3246670067310333,-0.1238579973578453,-0.07123599946498871
1788165004175778800,9.28277880859375,0.0037499999161809683,-0.05855700001120567,-0.16426600515842438
1788165004185875200,9.292875244140625,-0.2549319863319397,-0.05994600057601929,-0.1952420026063919
1788165004195980800,9.302980712890625,-0.27837398648262024,-0.05947599932551384,-0.31294599175453186
1788165004206079200,9.313079345703125,-0.10924799740314484,-0.12387099862098694,-0.212800994515419
1788165004216171800,9.323171875,-0.04162900149822235,-0.15925900638103485,-0.09107200056314468
1788165004226264600,9.3332646484375,0.05763399973511696,-0.13656200468540192,0.03129100054502487
1788165004236346600,9.3433466796875,0.026342999190092087,-0.08889099955558777,0.21319900453090668
1788165004246436000,9.35343603515625,-0.06351800262928009,-0.05169399827718735,0.25459998846054077
1788165004256525800,9.36352587890625,-0.15123200416564941,-0.07305999845266342,0.25760799646377563
1788165004266620200,9.3736201171875,-0.04114599898457527,-0.08437900245189667,0.2697100043296814
1788165004276700000,9.383699951171875,0.17009000480175018,-0.08344999700784683,0.3311440050601959
1788165004286783200,9.393783203125,0.19906899333000183,-0.09637899696826935,0.3768779933452606
1788165004296871400,9.403871337890624,0.19411100447177887,-0.09821700304746628,0.4118089973926544
1788165004306964200,9.413964111328125,0.09300599992275238,-0.09199099987745285,0.38745999336242676
1788165004317046500,9.424046630859374,-0.07093100249767303,-0.09258999675512314,0.19815300405025482
1788165004327135700,9.4341357421875,-0.20135599374771118,-0.13176199793815613,0.010091000236570835
1788165004337220000,9.44422021484375,-0.1655919998884201,-0.1456110030412674,-0.1655620038509369
1788165004347310600,9.454310546875,-0.05858499929308891,-0.09799899905920029,-0.2318660020828247
1788165004357393700,9.4643935546875,0.0256779994815588,-0.024157000705599785,-0.18528300523757935
1788165004367497200,9.474497314453124,0.1031079962849617,0.062362998723983765,0.010545999743044376
1788165004377590300,9.48459033203125,0.12525500357151031,0.125777006149292,0.22134800255298615
1788165004387680500,9.494680419921876,0.014499999582767487,0.16906499862670898,0.25904199481010437
1788165004397774800,9.50477490234375,-0.019822999835014343,0.16020800173282623,0.27120599150657654
1788165004407906300,9.51490625,0.0962579995393753,0.14994800090789795,0.2169329971075058
1788165004418004500,9.52500439453125,0.25449100136756897,0.13060499727725983,0.13454799354076385
1788165004428105000,9.53510498046875,0.21805399656295776,0.15775999426841736,0.005464999936521053
1788165004438206000,9.5452060546875,0.15908899903297424,0.1623930037021637,-0.0494920015335083
1788165004448295400,9.55529541015625,0.05015299841761589,0.12524999678134918,-0.0345270000398159
1788165004458386400,9.565386474609374,-0.10654400289058685,0.136135995388031,-0.10616199672222137
1788165004468476700,9.5754765625,-0.1990939974784851,0.11493299901485443,-0.19527600705623627
1788165004478572800,9.58557275390625,-0.24915100634098053,0.24669699370861053,-0.20327800512313843
1788165004488663600,9.59566357421875,-0.13015100359916687,0.20754599571228027,-0.321274995803833
1788165004498760200,9.60576025390625,-0.03399699926376343,0.11900900304317474,-0.3326219916343689
1788165004508854300,9.615854248046874,0.05793499946594238,0.10413700342178345,-0.2603830099105835
1788165004518945500,9.625945556640625,-0.012504000216722488,0.06544200330972672,-0.1348849982023239
1788165004529036800,9.636036865234376,-0.13628099858760834,0.054207999259233475,-0.09411700069904327
1788165004539131000,9.646130859375,-0.1750430017709732,0.006105999927967787,-0.08514899760484695
1788165004559317800,9.66631787109375,0.059112999588251114,-0.020416000857949257,-0.05730399861931801
1788165004569403600,9.676403564453125,0.2156659960746765,0.007369999773800373,-0.054117001593112946
1788165004579501000,9.6865009765625,0.4314349889755249,-0.005297999829053879,0.02418600022792816
1788165004589599500,9.696599609375,0.3080829977989197,-0.03855999931693077,0.018915999680757523
1788165004599694600,9.706694580078125,-0.015995999798178673,-0.07226800173521042,-0.11577499657869339
1788165004609785300,9.716785400390625,-0.3738270103931427,-0.24136799573898315,-0.2633360028266907
1788165004619872800,9.726872802734375,-0.6187019944190979,-0.38453999161720276,-0.4592350125312805
1788165004629964300,9.73696435546875,-0.4019489884376526,-0.44625699520111084,-0.4685949981212616
1788165004640057900,9.747057861328125,0.1156890019774437,-0.4545289874076843,-0.5343869924545288
1788165004650153500,9.757153564453125,0.5622259974479675,-0.3856930136680603,-0.25084400177001953
1788165004660253400,9.76725341796875,0.40759098529815674,-0.2440200001001358,0.07381299883127213
1788165004670347800,9.77734765625,-0.127020001411438,-0.0885159969329834,0.05699300020933151
1788165004680443000,9.78744287109375,-0.35509398579597473,-0.09578300267457962,0.009335000067949295
1788165004690538000,9.7975380859375,-0.2821339964866638,-0.16276200115680695,0.024808000773191452
1788165004700643600,9.8076435546875,0.1046919971704483,-0.16061300039291382,0.020841000601649284
1788165004710738200,9.81773828125,0.5302649736404419,-0.16842199862003326,-0.03223099932074547
1788165004720841000,9.827841064453125,0.5171669721603394,-0.15752899646759033,0.08869899809360504
1788165004730934800,9.837934814453124,-0.050999000668525696,-0.10053999722003937,0.07621400058269501
1788165004741078500,9.84807861328125,-0.3919000029563904,-0.0678270012140274,-0.10694199800491333
1788165004751171000,9.858171142578126,-0.4370270073413849,-0.14419999718666077,-0.04401800036430359
1788165004761259800,9.868259765625,-0.36910098791122437,-0.1164340004324913,-0.048048000782728195
1788165004771345000,9.878344970703125,-0.04663199931383133,-0.17069600522518158,-0.10508699715137482
1788165004781434400,9.888434326171875,0.1417970061302185,-0.19546900689601898,0.1853650063276291
1788165004791526400,9.8985263671875,-0.001841000048443675,-0.022196000441908836,0.1860869973897934
1788165004801614800,9.90861474609375,0.1089560016989708,0.10198400169610977,0.3375749886035919
1788165004811711500,9.91871142578125,0.053238000720739365,0.2221899926662445,0.29039299488067627
1788165004821811000,9.92881103515625,0.027907999232411385,0.24531899392604828,0.31974899768829346
1788165004831904500,9.938904541015624,-0.07004799693822861,0.23828600347042084,0.35891100764274597
1788165004842004500,9.94900439453125,-0.03344999998807907,0.24170400202274323,0.1667100042104721
1788165004852106200,9.959106201171876,0.20759600400924683,0.07678599655628204,0.2434220016002655
1788165004862209500,9.96920947265625,0.27063098549842834,-0.06488200277090073,0.10493099689483643
1788165004872308500,9.97930859375,0.016036000102758408,-0.06475800275802612,-0.012868000194430351
1788165004882410000,9.989409912109375,-0.09290699660778046,-0.04125799983739853,-0.25117701292037964
1788165004892509400,9.999509521484375,-0.2850959897041321,-0.14880800247192383,-0.22567600011825562
1788165004902606300,10.0096064453125,-0.3665190041065216,-0.12191800028085709,-0.22211900353431702
1788165004912702700,10.01970263671875,-0.13852399587631226,-0.06535299867391586,-0.24770000576972961
1788165004922797300,10.02979736328125,-0.2431900054216385,0.024684999138116837,-0.11616499722003937
1788165004932895700,10.039895751953125,-0.4947589933872223,0.27506598830223083,-0.17521600425243378
1788165004942993400,10.049993408203125,-0.41318899393081665,0.469404011964798,-0.3774079978466034
1788165004953083000,10.060082763671875,-0.534017026424408,0.6580129861831665,-0.4380210041999817
1788165004963176000,10.070176025390625,-0.5448039770126343,0.887669026851654,-0.5713279843330383
1788165004973272600,10.0802724609375,0.029388999566435814,1.1441320180892944,-0.87015700340271
1788165004983363000,10.090363037109375,0.07078199833631516,1.374508023262024,-0.9960839748382568
1788165004993462300,10.100462158203126,-0.30232900381088257,1.4281729459762573,-0.9567520022392273
1788165005003561200,10.110561279296874,-0.1813340038061142,1.5815670490264893,-1.0941619873046875
1788165005013648100,10.120648193359376,-0.21198199689388275,1.64279305934906,-1.2766849994659424
1788165005023742700,10.13074267578125,-0.7713720202445984,1.3703620433807373,-1.2576179504394531
1788165005033834000,10.140833984375,-0.6795219779014587,1.2128260135650635,-1.380519986152649
1788165005043935500,10.150935546875,-0.3691909909248352,1.0793319940567017,-1.603492021560669
1788165005054022400,10.1610224609375,-0.4610069990158081,0.8276339769363403,-1.7534430027008057
1788165005064120600,10.17112060546875,-0.09495600312948227,0.6842290163040161,-1.8042620420455933
1788165005074214100,10.181214111328124,0.3606399893760681,0.6697670221328735,-1.8851850032806396
1788165005084308500,10.19130859375,0.06421100348234177,0.5880529880523682,-1.6032589673995972
1788165005094398200,10.201398193359376,0.0046350001357495785,0.760558009147644,-1.470173954963684
1788165005104494600,10.21149462890625,0.13641899824142456,0.98158198595047,-1.4104770421981812
1788165005114585000,10.221585205078124,-0.3902910053730011,1.1295469999313354,-1.564365029335022
1788165005124685300,10.231685302734375,-0.770563006401062,1.2739059925079346,-2.08604097366333
1788165005134783000,10.241782958984375,-0.9519760012626648,1.2763350009918213,-3.0024828910827637
1788165005144879600,10.251879638671875,-1.4575740098953247,0.9631170034408569,-3.890652894973755
1788165005154962400,10.26196240234375,-1.0454909801483154,0.6321309804916382,-4.310011863708496
1788165005165058800,10.272058837890626,0.06567499786615372,0.255172997713089,-4.216411113739014
1788165005175151900,10.28215185546875,0.464819997549057,-0.2954989969730377,-3.751478910446167
1788165005185247500,10.29224755859375,0.23061999678611755,-0.7867820262908936,-2.734369993209839
1788165005195336400,10.30233642578125,-0.42383500933647156,-0.9010930061340332,-2.081223964691162
1788165005205436700,10.312436767578125,-1.077502965927124,-0.7829279899597168,-1.2175920009613037
1788165005215526000,10.32252587890625,-0.666146993637085,-0.5638419985771179,0.9548159837722778
1788165005225618000,10.332617919921875,0.08752500265836716,-0.2102919965982437,2.4733641147613525
1788165005235709700,10.342709716796875,0.40915200114250183,0.40334099531173706,2.623012065887451
1788165005245812500,10.3528125,0.2364950031042099,1.1235049962997437,2.3000481128692627
1788165005255899000,10.36289892578125,0.22668500244617462,1.7038179636001587,1.6302870512008667
1788165005265998300,10.372998291015625,0.13948899507522583,2.0126359462738037,0.9453529715538025
1788165005276093700,10.38309375,-0.19083699584007263,2.0599820613861084,-0.2801629900932312
1788165005286193200,10.393193115234375,-0.17260399460792542,1.4572030305862427,-0.9222829937934875
1788165005296276500,10.4032763671875,-0.4613269865512848,0.6943399906158447,-1.1269479990005493
1788165005306362600,10.413362548828125,-1.0669859647750854,0.11432000249624252,-1.342965006828308
1788165005316450300,10.4234501953125,-0.9045249819755554,-0.5554389953613281,-0.7949960231781006
1788165005326538000,10.4335380859375,-0.9517660140991211,-0.8606470227241516,-0.9201920032501221
1788165005336623900,10.443623779296875,-0.989799976348877,-0.6565350294113159,-1.797927975654602
1788165005346713000,10.453713134765625,-0.8402010202407837,-0.5788130164146423,-2.410907030105591
1788165005356792600,10.46379248046875,-0.9807469844818115,-0.3826099932193756,-2.701508045196533
1788165005366877400,10.47387744140625,-1.0025559663772583,-0.020047999918460846,-2.3616929054260254
1788165005376968700,10.48396875,-0.3495050072669983,0.19978800415992737,-1.307405948638916
1788165005387064600,10.494064697265625,-0.38555800914764404,0.6170030236244202,-0.44859999418258667
1788165005397147600,10.504147705078125,-0.8516650199890137,1.2703180313110352,-0.29721999168395996
1788165005407238000,10.51423779296875,-0.2762509882450104,1.3852629661560059,-0.17740100622177124
1788165005417324000,10.524323974609375,0.18813399970531464,1.274183988571167,-0.017813000828027725
1788165005427409400,10.534409423828125,-0.22103099524974823,1.3800400495529175,0.04855300113558769
1788165005437498000,10.544498046875,-0.2518239915370941,1.32048499584198,0.03135000169277191
1788165005447594000,10.554593994140625,0.0019549999851733446,1.208238959312439,0.19159799814224243
1788165005457680600,10.5646806640625,0.09033200144767761,1.0334190130233765,0.0959549993276596
1788165005467766300,10.574766357421876,0.11494799703359604,0.6786730289459229,0.27955299615859985
1788165005477852000,10.584851806640625,0.09844200313091278,0.6680819988250732,0.38986000418663025
1788165005487950800,10.594950927734375,0.1784520000219345,0.793865978717804,0.10111799836158752
1788165005498031400,10.60503125,0.42160698771476746,0.7352219820022583,-0.21560199558734894
1788165005508132000,10.615132080078125,0.3632909953594208,0.9455699920654297,-0.6400889754295349
1788165005518225700,10.6252255859375,0.19057899713516235,1.018568992614746,-0.23471799492835999
1788165005528320500,10.635320556640625,0.21926499903202057,0.9611759781837463,0.4103949964046478
1788165005538407000,10.645406982421875,0.1383499950170517,1.096524953842163,0.6339809894561768
1788165005548513800,10.655513671875,0.2872309982776642,1.1755529642105103,0.89683997631073
1788165005558609000,10.66560888671875,0.6623640060424805,1.1050859689712524,0.7022219896316528
1788165005568705000,10.675705078125,0.7237529754638672,1.121798038482666,0.5185989737510681
1788165005578792400,10.68579248046875,0.6539850234985352,0.8761460185050964,0.650629997253418
1788165005588883000,10.695883056640625,0.6491039991378784,0.5834130048751831,0.8254010081291199
1788165005598971100,10.70597119140625,0.4970659911632538,0.5029709935188293,0.8534740209579468
1788165005609073000,10.716072998046876,0.7547690272331238,0.3349969983100891,0.9999780058860779
1788165005619174700,10.726174560546875,1.1335170269012451,0.26051199436187744,0.9259920120239258
1788165005629271600,10.736271484375,1.0340700149536133,0.41951999068260193,0.6319220066070557
1788165005639366400,10.746366455078125,1.3496489524841309,0.38439399003982544,0.7357040047645569
1788165005649454600,10.75645458984375,0.8944470286369324,0.5235999822616577,0.46152499318122864
1788165005659550000,10.766550048828124,0.21133600175380707,0.7943249940872192,0.1197429969906807
1788165005669647000,10.776647216796874,0.5227339863777161,0.43374601006507874,0.31480100750923157
1788165005679734300,10.786734375,0.045871999114751816,0.44237199425697327,0.025616999715566635
1788165005689829600,10.79682958984375,0.06787800043821335,0.5871970057487488,-0.0074629997834563255
1788165005699921200,10.806921142578124,0.3537079989910126,0.4621109962463379,0.06411000341176987
1788165005710018600,10.8170185546875,0.7005320191383362,0.4571090042591095,-0.006858000066131353
1788165005720104700,10.827104736328126,0.9324889779090881,0.6105999946594238,0.01233499962836504
1788165005730197000,10.837197021484375,1.151494026184082,0.39054998755455017,0.5277270078659058
1788165005740293600,10.847293701171875,1.0512700080871582,0.2094080001115799,1.0916539430618286
1788165005750382800,10.8573828125,0.9283009767532349,0.41043999791145325,1.067294955253601
1788165005760473600,10.8674736328125,1.0991979837417603,0.29792100191116333,1.3152430057525635
1788165005770562800,10.877562744140626,1.3567639589309692,0.313959002494812,1.3627179861068726
1788165005780648000,10.88764794921875,1.5434110164642334,0.49015098810195923,0.967631995677948
1788165005790778600,10.897778564453125,1.9193730354309082,0.5973489880561829,0.5676829814910889
1788165005800870400,10.907870361328126,1.9638279676437378,0.7254109978675842,0.3686540126800537
1788165005810963200,10.917963134765625,1.6004489660263062,0.912090003490448,-0.20784400403499603
1788165005821052200,10.92805224609375,1.3726439476013184,0.9946900010108948,-0.4974929988384247
1788165005831154000,10.93815380859375,1.0562629699707031,1.0111110210418701,-1.0750900506973267
1788165005841241000,10.948240966796876,0.8031520247459412,1.1438859701156616,-1.9471319913864136
1788165005851318000,10.958318115234375,0.6086649894714355,1.2246229648590088,-3.0498170852661133
1788165005861408800,10.96840869140625,0.25265800952911377,1.2250510454177856,-3.8263208866119385
1788165005871502600,10.978502685546875,-0.7114189863204956,1.0277639627456665,-4.369114875793457
1788165005881586200,10.988586181640626,-2.0768749713897705,0.6725590229034424,-4.2413787841796875
1788165005891675000,10.9986748046875,-3.2158870697021484,0.4359700083732605,-3.849358081817627
1788165005901760300,11.00876025390625,-3.5605061054229736,0.02033199928700924,-3.0089879035949707
1788165005911844900,11.018844970703125,-2.8415520191192627,-0.36977699398994446,-1.7289990186691284
1788165005921930000,11.028929931640626,-1.3338969945907593,-0.5406140089035034,-0.6925100088119507
1788165005932023600,11.0390234375,0.22902199625968933,-0.6955180168151855,0.1787630021572113
1788165005942122200,11.049122314453125,1.3536150455474854,-0.843513011932373,1.1570580005645752
1788165005952219400,11.059219482421875,1.830348014831543,-0.8930670022964478,1.7746809720993042
1788165005962310700,11.069310546875,1.7088340520858765,-0.9365959763526917,2.2747819423675537
1788165005972404200,11.079404296875,1.3191109895706177,-0.8460630178451538,2.506885051727295
1788165005982488800,11.08948876953125,0.7882829904556274,-0.6984519958496094,2.1044371128082275
1788165005992592000,11.099591796875,0.7381700277328491,-0.8130859732627869,1.7386360168457031
1788165006002685200,11.109685302734375,0.8097320199012756,-0.7115669846534729,1.6198339462280273
1788165006012769300,11.119769287109374,0.5842030048370361,-0.31224098801612854,1.058205008506775
1788165006022860800,11.12986083984375,0.2858330011367798,-0.1220410019159317,0.3645220100879669
1788165006032952800,11.139952880859376,-0.5050889849662781,0.048413001000881195,-0.5007619857788086
1788165006043048400,11.15004833984375,-1.6405889987945557,0.027955999597907066,-2.455638885498047
1788165006053139000,11.160138916015624,-2.500464916229248,0.12613099813461304,-4.5663251876831055
1788165006063234000,11.170234130859376,-2.672358989715576,-0.04844599962234497,-4.624539852142334
1788165006073317400,11.1803173828125,-3.164659023284912,-0.4239580035209656,-2.067898988723755
1788165006083404800,11.19040478515625,-2.451603889465332,-0.5414599776268005,0.02536199986934662
1788165006093494500,11.20049462890625,-1.306954026222229,-0.031376998871564865,1.113345980644226
1788165006103589000,11.210589111328124,0.30986499786376953,0.03688500076532364,0.7591519951820374
1788165006113675500,11.220675537109376,1.6093369722366333,-0.26327699422836304,-0.2346230000257492
1788165006123776000,11.23077587890625,1.563485026359558,-0.590254008769989,-1.489042043685913
1788165006133867000,11.240866943359375,1.0673489570617676,-1.0027480125427246,-3.2902770042419434
1788165006143963400,11.25096337890625,0.007104000076651573,-1.3310290575027466,-3.125948905944824
1788165006154058800,11.261058837890625,-1.1121339797973633,-0.9592800140380859,-2.1548829078674316
1788165006164167000,11.2711669921875,-1.2839089632034302,-0.6106110215187073,-1.8732010126113892
1788165006174259000,11.281259033203124,-0.32737499475479126,-0.027166999876499176,-1.618360996246338
1788165006184347100,11.29134716796875,0.7960540056228638,0.6211709976196289,-0.7487679719924927
1788165006194446000,11.301446044921875,1.3234000205993652,0.4037100076675415,0.17200200259685516
1788165006204551200,11.31155126953125,1.1139249801635742,-0.13436299562454224,0.7062000036239624
1788165006214632400,11.321632568359375,-0.004145000129938126,-0.451898992061615,0.869284987449646
1788165006224738600,11.331738525390625,-1.2960790395736694,-0.7065659761428833,0.5237910151481628
1788165006234830600,11.34183056640625,-1.3890269994735718,-0.5265870094299316,-0.18378399312496185
1788165006244930300,11.351930419921874,-0.8085139989852905,-0.0970190018415451,-0.6966350078582764
1788165006255020000,11.36202001953125,0.12031400203704834,0.1629990041255951,-0.737542986869812
1788165006265118200,11.3721181640625,0.9444389939308167,0.5755329728126526,-0.697737991809845
1788165006275206700,11.38220654296875,1.3905080556869507,1.121878981590271,-0.41647300124168396
1788165006285300700,11.39230078125,1.6325290203094482,1.6145319938659668,0.08539900183677673
1788165006295385300,11.40238525390625,1.9882010221481323,2.1707699298858643,0.38507699966430664
1788165006305480400,11.41248046875,2.0330119132995605,2.6062169075012207,0.40699198842048645
1788165006315569400,11.4225693359375,1.7445780038833618,2.739309072494507,0.2406339943408966
1788165006325672400,11.43267236328125,1.505012035369873,2.4755799770355225,0.19297699630260468
1788165006335766800,11.442766845703124,0.9368770122528076,2.1211299896240234,0.08568999916315079
1788165006345862400,11.4528623046875,0.4781219959259033,1.4767990112304688,-0.11971700191497803
1788165006355951600,11.46295166015625,0.3284739851951599,0.7167980074882507,-0.19888900220394135
1788165006366043100,11.473043212890625,-0.3318679928779602,0.18757399916648865,-0.6028599739074707
1788165006376134400,11.483134521484375,-0.529308021068573,-0.41727301478385925,-0.6657580137252808
1788165006396308500,11.50330859375,0.31474998593330383,-0.8539249897003174,-0.014751000329852104
1788165006406403300,11.5134033203125,0.8017590045928955,-0.8139700293540955,0.556958019733429
1788165006426574000,11.533573974609375,0.6152960062026978,-0.32372498512268066,1.420083999633789
1788165006436659200,11.5436591796875,0.20882000029087067,-0.1470939964056015,1.1156129837036133
1788165006446747000,11.553746826171874,-0.3444629907608032,0.0818760022521019,0.7138379812240601
1788165006456829700,11.56382958984375,-0.8127080202102661,0.21618600189685822,0.4304710030555725
1788165006466914600,11.57391455078125,-0.5034070014953613,0.029670000076293945,0.31794899702072144
1788165006487094300,11.59409423828125,0.047749001532793045,0.4657529890537262,-0.09586899727582932
1788165006507272200,11.614272216796875,0.3636690080165863,0.47875699400901794,-0.5839380025863647
1788165006517354200,11.624354248046876,-0.07804899662733078,0.294607013463974,-0.6772090196609497
1788165006527449600,11.63444970703125,-0.11215399950742722,-0.13214099407196045,-0.5349550247192383
1788165006537536300,11.644536376953125,-0.13620400428771973,-0.28727099299430847,-0.44308900833129883
1788165006547626800,11.654626708984376,-0.07320600003004074,-0.2652589976787567,-0.8512799739837646
1788165006557708800,11.664708740234374,-0.141525000333786,-0.12908999621868134,-0.9497870206832886
1788165006567805200,11.67480517578125,-0.6029649972915649,0.17275699973106384,-1.1575469970703125
1788165006577892900,11.684892822265626,-1.3426690101623535,0.343982994556427,-1.8068710565567017
1788165006598071600,11.705071533203125,-2.0467989444732666,0.028043000027537346,-2.1183340549468994
1788165006608178000,11.715177978515625,-1.6145950555801392,-0.2607170045375824,-1.786903977394104
1788165006618265300,11.725265380859375,-0.9451190233230591,-0.5064700245857239,-1.1367650032043457
1788165006628349400,11.735349365234375,-0.5470049977302551,-0.39066100120544434,-0.7341070175170898
1788165006638445800,11.74544580078125,-0.07898999750614166,-0.4641120135784149,-0.4400010108947754
1788165006648546600,11.755546630859374,0.09812600165605545,-0.5476210117340088,-0.077504001557827
1788165006658641200,11.76564111328125,0.0650859996676445,-0.4826430082321167,0.1239669993519783
1788165006668731100,11.775731201171874,-0.12196599692106247,-0.3362880051136017,0.16095200181007385
1788165006678828800,11.785828857421874,-0.14891399443149567,-0.3734099864959717,0.8131380081176758
1788165006688924400,11.79592431640625,-0.46881699562072754,-0.06855200231075287,1.1193950176239014
1788165006699020800,11.806020751953126,-0.2876049876213074,-0.06885900348424911,1.2837640047073364
1788165006709121500,11.81612158203125,-0.3730979859828949,-0.18606899678707123,1.3297300338745117
1788165006719210500,11.82621044921875,-0.6581379771232605,0.022818999364972115,0.8083400130271912
1788165006729303600,11.836303466796876,-0.758542001247406,-0.1303430050611496,0.2698490023612976
1788165006739390000,11.846389892578125,-0.7647939920425415,-0.38377299904823303,0.27166101336479187
1788165006749483300,11.856483154296875,-0.4766550064086914,-0.20504499971866608,-0.11714500188827515
1788165006759572700,11.86657275390625,-0.12355700135231018,-0.014301000162959099,-0.20481300354003906
1788165006769655300,11.8766552734375,0.0994110032916069,0.12428200244903564,0.11661899834871292
1788165006779753000,11.8867529296875,0.2869110107421875,0.2615320086479187,0.09038099646568298
1788165006789840100,11.896840087890626,0.2114029973745346,0.15851500630378723,0.12471099942922592
1788165006799935500,11.906935546875,-0.13142099976539612,0.039386000484228134,0.39302998781204224
1788165006810021400,11.917021484375,-0.36414799094200134,0.14455899596214294,0.08079499751329422
1788165006820118500,11.927118408203125,-0.5345810055732727,0.13569800555706024,-0.13658300042152405
1788165006830207000,11.93720703125,-0.5815399885177612,0.3323189914226532,-0.32644200325012207
1788165006840334600,11.94733447265625,-0.5478439927101135,0.4870220124721527,-0.5435450077056885
1788165006850428700,11.9574287109375,-0.1941480040550232,0.10102900117635727,-0.3023749887943268
1788165006860512000,11.967511962890624,0.10942000150680542,-0.3763599991798401,0.06378500163555145
1788165006870611200,11.977611083984375,0.2669680118560791,-0.8722410202026367,0.5462309718132019
1788165006880695300,11.9876953125,0.29700300097465515,-1.3283360004425049,1.25266695022583
1788165006890789400,11.997789306640625,0.08387400209903717,-1.213070034980774,1.6667460203170776
1788165006900878600,12.007878662109375,0.11756599694490433,-0.6605589985847473,1.3413430452346802
1788165006910964700,12.01796484375,0.14449499547481537,0.0483740009367466,0.6531280279159546
1788165006921059300,12.028059326171874,-0.015660999342799187,0.8119879961013794,-0.23486599326133728
1788165006931153200,12.038153076171875,-0.2783859968185425,1.42890202999115,-1.2742810249328613
1788165006941279500,12.048279541015624,-0.5965240001678467,1.5647499561309814,-1.9454599618911743
1788165006951356200,12.058356201171875,-0.8905460238456726,1.2020729780197144,-1.9522299766540527
1788165006961448700,12.06844873046875,-0.5540609955787659,0.40878599882125854,-1.3429980278015137
1788165006971539500,12.07853955078125,0.0817049965262413,-0.3007650077342987,-0.5994129776954651
1788165006981627400,12.08862744140625,0.5486599802970886,-0.5586770176887512,-0.21574600040912628
1788165006991718700,12.09871875,0.6584870219230652,-0.5625140070915222,-0.034690000116825104
1788165007001806300,12.108806396484376,0.41050899028778076,-0.5728539824485779,0.22738799452781677
1788165007011904500,12.118904541015626,-0.3453890085220337,-0.5264790058135986,0.18479299545288086
1788165007021994000,12.128993896484374,-0.8370789885520935,-0.47699499130249023,-0.06159299984574318
1788165007032093700,12.13909375,-0.8412600159645081,-0.3018440008163452,-0.2723430097103119
1788165007042182700,12.1491826171875,-0.40474700927734375,-0.041437000036239624,-0.6840440034866333
1788165007052279300,12.159279296875,0.5131660103797913,0.1271660029888153,-0.59996098279953
1788165007062375200,12.169375244140625,1.533007025718689,0.21139100193977356,-0.19919300079345703
1788165007082571800,12.18957177734375,2.136301040649414,0.25606200098991394,0.795628011226654
1788165007092658200,12.199658203125,1.5560009479522705,0.3421880006790161,1.4167399406433105
1788165007102757400,12.20975732421875,0.440095990896225,0.27920299768447876,1.4170149564743042
1788165007112853200,12.219853271484375,-1.0348060131072998,-0.0320889987051487,1.2529480457305908
1788165007122967000,12.229967041015625,-2.271399974822998,-0.275611013174057,0.37638598680496216
1788165007133065700,12.240065673828125,-2.705501079559326,-0.44797301292419434,-0.9467390179634094
1788165007143164200,12.2501640625,-2.40220308303833,-0.45569199323654175,-2.115186929702759
1788165007153256000,12.260255859375,-1.4214489459991455,-0.39161500334739685,-2.589755058288574
1788165007163338500,12.27033837890625,-0.6117179989814758,-0.5676090121269226,-2.2466928958892822
1788165007173432600,12.2804326171875,-0.01954600028693676,-0.9550819993019104,-1.2852740287780762
1788165007183521500,12.290521484375,0.42232799530029297,-1.357714056968689,-0.43124499917030334
1788165007193614000,12.300614013671876,0.5837560296058655,-1.5410829782485962,0.7754319906234741
1788165007203708000,12.3107080078125,0.12927499413490295,-1.1625030040740967,1.2411659955978394
1788165007213798700,12.320798583984375,-0.6874949932098389,-0.328357994556427,0.9563249945640564
1788165007223887000,12.33088720703125,-1.1579159498214722,0.31625500321388245,0.3488619923591614
1788165007233977000,12.34097705078125,-1.5293420553207397,0.6896790266036987,-0.7192400097846985
1788165007244076300,12.351076171875,-1.2821719646453857,0.7008489966392517,-1.5355639457702637
1788165007254165200,12.361165283203125,-0.35207200050354004,0.4446670114994049,-1.503674030303955
1788165007264270000,12.37127001953125,0.08831799775362015,0.2645539939403534,-1.2094800472259521
1788165007274356500,12.3813564453125,0.2674489915370941,0.012900999747216702,-0.65168297290802
1788165007284459000,12.391458984375,0.280239999294281,-0.1466200053691864,-0.054506998509168625
1788165007294556000,12.401555908203125,-0.14041300117969513,-0.17868800461292267,0.030652999877929688
1788165007304641500,12.4116416015625,-0.8549590110778809,-0.19164200127124786,-0.0594789981842041
1788165007314745000,12.4217451171875,-1.2582379579544067,-0.22492900490760803,-0.13283200562000275
1788165007324837400,12.43183740234375,-1.3804490566253662,-0.3205519914627075,-0.1756410002708435
1788165007334934000,12.44193408203125,-0.9839209914207458,-0.5955910086631775,0.014677999541163445
1788165007345029600,12.452029541015625,-0.34936800599098206,-0.807873010635376,0.2701750099658966
1788165007355131100,12.462131103515626,0.32029300928115845,-0.909292995929718,0.8154429793357849
1788165007365218800,12.47221875,0.220319002866745,-0.7509059906005859,1.1339590549468994
1788165007375322000,12.482322021484375,-0.8584089875221252,-0.2568559944629669,0.8029999732971191
1788165007385407500,12.492407470703125,-2.002901077270508,0.04262100160121918,0.4868600070476532
1788165007395499300,12.502499267578125,-2.0514230728149414,0.106222003698349,-0.06192599982023239
1788165007405590300,12.51259033203125,-1.3488390445709229,0.2157679945230484,-0.8215199708938599
1788165007415686100,12.52268603515625,-0.28735798597335815,0.12575900554656982,-0.5908229947090149
1788165007425774800,12.53277490234375,-0.06704200059175491,0.21854500472545624,-0.21406300365924835
1788165007435873800,12.542873779296874,-0.1716350018978119,0.08813700079917908,0.39156898856163025
1788165007445974500,12.552974609375,-0.7201200127601624,-0.25431299209594727,0.982017993927002
1788165007456062200,12.563062255859375,-0.9867830276489258,-0.5395219922065735,0.8813139796257019
1788165007466158800,12.573158935546875,-0.27264299988746643,-0.7129889726638794,0.5137360095977783
1788165007476246500,12.58324658203125,0.6992809772491455,-0.320235013961792,0.13492000102996826
1788165007496418800,12.603418701171876,1.7612780332565308,0.6971439719200134,0.5205540060997009
1788165007506511600,12.61351171875,1.0692839622497559,0.8506550192832947,1.001297950744629
1788165007516595500,12.623595458984376,0.5168579816818237,0.39964398741722107,1.3031970262527466
1788165007526683100,12.63368310546875,0.5675730109214783,-0.4262329936027527,1.7609790563583374
1788165007536762400,12.643762451171876,0.5501899719238281,-0.8364909887313843,1.4290239810943604
1788165007546855000,12.65385498046875,0.12577900290489197,-0.725417971611023,0.6630330085754395
1788165007556938800,12.663938720703126,-0.6093149781227112,-0.12561899423599243,-0.2801690101623535
1788165007567038200,12.6740380859375,-1.8756970167160034,0.37350600957870483,-1.5209269523620605
1788165007577122000,12.6841220703125,-2.649535894393921,0.4448089897632599,-2.0810680389404297
1788165007587216400,12.69421630859375,-1.712494969367981,0.10926000028848648,-1.9709279537200928
1788165007597299200,12.70429931640625,-0.26973798871040344,-0.5448269844055176,-1.564560055732727
1788165007607384800,12.714384765625,1.055446982383728,-0.666720986366272,-0.8317279815673828
1788165007617472500,12.724472412109375,1.378607988357544,-0.08070799708366394,-0.32110100984573364
1788165007627569200,12.734569091796875,0.5770649909973145,0.43459901213645935,0.16330599784851074
1788165007637649200,12.744649169921875,-0.16383400559425354,0.7194929718971252,0.4168510138988495
1788165007647742200,12.7547421875,-0.4541949927806854,0.7353489995002747,0.0020099999383091927
1788165007657824500,12.764824462890624,-0.2818399965763092,0.8786020278930664,-0.5872920155525208
1788165007667922200,12.774922119140625,0.03206200152635574,1.0615290403366089,-0.8829609751701355
1788165007677996800,12.784996826171875,0.2163030058145523,0.8683930039405823,-0.7958459854125977
1788165007688095500,12.795095458984376,0.10177099704742432,0.25145700573921204,-0.0757019966840744
1788165007698188800,12.805188720703125,-0.20078399777412415,-0.5636240243911743,0.5852940082550049
1788165007708280800,12.81528076171875,-0.1662749946117401,-1.3770860433578491,0.904682993888855
1788165007718369500,12.82536962890625,0.07197999954223633,-1.640360951423645,0.8646500110626221
1788165007728466000,12.8354658203125,0.8198530077934265,-1.22747802734375,0.6713989973068237
1788165007738557000,12.845556884765625,1.1092519760131836,-0.5768799781799316,0.8427479863166809
1788165007748656600,12.85565673828125,1.0661200284957886,0.02162499912083149,0.9263949990272522
1788165007758747400,12.865747314453126,0.36121299862861633,0.26086199283599854,0.8871030211448669
1788165007768846800,12.875846923828124,-0.10575299710035324,0.037057001143693924,0.6794350147247314
1788165007778934500,12.8859345703125,-0.49331000447273254,-0.12923799455165863,0.14566799998283386
1788165007789030400,12.896030517578126,-0.6275860071182251,-0.23779800534248352,-0.2130499929189682
1788165007799125000,12.906125,-0.22424599528312683,-0.10478200018405914,-0.4457710087299347
1788165007809217800,12.9162177734375,0.17940199375152588,0.2851580083370209,-0.9808509945869446
1788165007819307300,12.926307373046875,0.06316199898719788,0.6750040054321289,-1.0013870000839233
1788165007829388500,12.936388427734375,-0.15993399918079376,1.0152820348739624,-0.9200729727745056
1788165007839485200,12.946485107421875,-0.3075590133666992,0.9580860137939453,-0.4617919921875
1788165007849571600,12.956571533203125,0.1653899997472763,0.5296339988708496,0.3931039869785309
1788165007859662800,12.966662841796875,1.1351330280303955,0.007872999645769596,0.8832939863204956
1788165007869754000,12.976754150390626,1.5386489629745483,-0.5128639936447144,0.8776540160179138
1788165007879848400,12.986848388671875,1.3602499961853027,-0.5738170146942139,0.5297799706459045
1788165007889970200,12.99697021484375,0.6322299838066101,-0.33706900477409363,-0.21700799465179443
1788165007900062500,13.0070625,-0.6180809736251831,-0.19142499566078186,-0.5278930068016052
1788165007910153200,13.0171533203125,-2.1712749004364014,-0.13201500475406647,-0.8131120204925537
1788165007920244500,13.027244384765625,-2.8926730155944824,-0.7023119926452637,-0.9719200134277344
1788165007930348300,13.037348388671875,-1.6914589405059814,-1.5213350057601929,-0.43013298511505127
1788165007940434200,13.04743408203125,0.36633598804473877,-2.090527057647705,0.2455260008573532
1788165007950528300,13.0575283203125,2.4056010246276855,-2.061352014541626,1.066228985786438
1788165007960607200,13.067607177734375,3.3319509029388428,-1.289415955543518,1.4898769855499268
1788165007970697500,13.077697509765626,2.5520730018615723,-0.26887398958206177,1.4609390497207642
1788165007980787500,13.087787353515624,0.8214539885520935,0.5920169949531555,1.3659069538116455
1788165007990876700,13.097876708984375,-0.7925609946250916,1.0981249809265137,0.7140359878540039
1788165008000966100,13.107966064453125,-1.738497018814087,0.8275409936904907,-0.06298399716615677
1788165008011056400,13.118056396484375,-1.6996519565582275,0.24719500541687012,-0.7221670150756836
1788165008021150200,13.128150146484375,-1.2270530462265015,-0.2781440019607544,-1.5774650573730469
1788165008031241500,13.138241455078125,-0.5931439995765686,-0.6605820059776306,-1.7832560539245605
1788165008041325600,13.14832568359375,-0.13478399813175201,-0.8094859719276428,-1.3709379434585571
1788165008051418600,13.158418701171875,-0.11417999863624573,-0.9348899722099304,-0.6617050170898438
1788165008061507800,13.1685078125,-0.3627519905567169,-1.1339850425720215,0.05872900038957596
1788165008071601000,13.178600830078125,-0.4749929904937744,-1.4498709440231323,0.4752959907054901
1788165008081694500,13.188694580078124,-0.5268139839172363,-1.7862299680709839,0.8624140024185181
1788165008091782000,13.198781982421876,-0.4135949909687042,-1.7344540357589722,0.866657018661499
1788165008101866200,13.2088662109375,-1.399580955505371,-0.8392840027809143,-0.1670749932527542
1788165008111959300,13.218959228515626,-2.3147459030151367,-0.18562300503253937,-0.7481359839439392
1788165008122055200,13.22905517578125,-2.13037109375,-0.017413999885320663,-1.213657021522522
1788165008132143900,13.239143798828126,-1.3988239765167236,-0.17773200571537018,-1.0826489925384521
1788165008142239200,13.2492392578125,0.0037670000456273556,-0.32921600341796875,-0.2485640048980713
1788165008152327200,13.2593271484375,1.4655309915542603,-0.19512900710105896,0.3900890052318573
1788165008162418400,13.26941845703125,2.598923921585083,-0.03390299901366234,1.314210057258606
1788165008172505300,13.27950537109375,3.062403917312622,0.22649000585079193,2.185681104660034
1788165008182597000,13.28959716796875,3.1057889461517334,0.35875898599624634,2.7212259769439697
1788165008192702500,13.299702392578125,2.3531479835510254,0.4226740002632141,2.8471500873565674
1788165008202801700,13.3098017578125,0.36368799209594727,0.6028029918670654,2.133681058883667
1788165008212899800,13.31989990234375,-1.9817850589752197,0.8257189989089966,0.9842720031738281
1788165008222988500,13.329988525390625,-4.1802978515625,1.1905299425125122,-0.6954010128974915
1788165008233068300,13.340068359375,-5.101599216461182,1.5586810111999512,-3.1242129802703857
1788165008243158000,13.350157958984376,-4.547292232513428,1.5958119630813599,-4.947338104248047
1788165008253255200,13.360255126953126,-2.8451220989227295,1.2407740354537964,-5.150169849395752
1788165008263339500,13.370339599609375,-1.3483489751815796,0.5724949836730957,-4.164228916168213
1788165008273430000,13.380429931640625,0.2869499921798706,0.18665599822998047,-2.6538538932800293
1788165008283526100,13.390526123046875,1.9488569498062134,0.09181299805641174,-1.3226439952850342
1788165008293622300,13.400622314453125,3.1134378910064697,0.11799799650907516,0.07833400368690491
1788165008303708700,13.410708740234375,3.3631210327148438,0.3332839906215668,1.0956649780273438
1788165008313804800,13.4208046875,2.4035658836364746,0.5299239754676819,1.6403169631958008
1788165008323896600,13.430896484375,0.3487670123577118,0.46590399742126465,1.5652079582214355
1788165008333993200,13.4409931640625,-1.2554969787597656,-0.13588500022888184,0.9772610068321228
1788165008344088800,13.4510888671875,-2.097433090209961,-0.8960729837417603,0.2603369951248169
1788165008354183000,13.461182861328124,-1.0802600383758545,-1.280940055847168,-0.23860900104045868
1788165008364273400,13.4712734375,0.7109619975090027,-1.364338994026184,0.07088100165128708
1788165008374361000,13.481361083984375,1.640131950378418,-1.2433810234069824,0.8090019822120667
1788165008384453000,13.491453125,2.420928955078125,-1.1186039447784424,1.6162749528884888
1788165008394545200,13.501545166015624,2.699204921722412,-1.0773760080337524,2.2126259803771973
1788165008404642800,13.511642822265625,1.798048973083496,-0.6565260291099548,2.049398899078369
1788165008414737700,13.521737548828124,0.769897997379303,0.059307001531124115,1.3081899881362915
1788165008424841700,13.531841796875,-0.5534740090370178,0.8005120158195496,0.3910120129585266
1788165008434940000,13.54193994140625,-1.961434006690979,1.631991982460022,-1.1103869676589966
1788165008445038300,13.552038330078124,-3.3089230060577393,2.1150500774383545,-2.723115921020508
1788165008455137500,13.562137451171875,-3.50787091255188,1.7657049894332886,-3.691020965576172
1788165008475340000,13.582340087890625,0.15507900714874268,-0.2710219919681549,-2.34798002243042
1788165008485435100,13.59243505859375,2.2559640407562256,-0.942575991153717,-0.7898510098457336
1788165008495529200,13.602529296875,3.321805000305176,-1.1997779607772827,0.48568999767303467
1788165008505617700,13.61261767578125,2.5389950275421143,-1.247452974319458,1.9204579591751099
1788165008515712800,13.622712646484375,0.5851430296897888,-1.0063879489898682,2.252163887023926
1788165008535895300,13.642895263671875,-2.940068006515503,-0.8951529860496521,0.1613589972257614
1788165008545984800,13.65298486328125,-2.8804900646209717,-0.7464560270309448,-1.123623013496399
1788165008566167800,13.673167724609375,0.08904799818992615,-0.8569120168685913,-0.5292310118675232
1788165008576254200,13.683254150390624,0.30022498965263367,-0.8619459867477417,0.06673000007867813
1788165008586338800,13.6933388671875,0.7438740134239197,-0.9272300004959106,0.8030440211296082
1788165008596433400,13.703433349609375,0.9203889966011047,-0.7728480100631714,1.0221320390701294
1788165008606523000,13.71352294921875,1.6564650535583496,-0.7082750201225281,1.6260919570922852
1788165008616609800,13.72360986328125,1.6553319692611694,-0.08480200171470642,1.384964942932129
1788165008626692400,13.7336923828125,0.6214990019798279,0.9445229768753052,0.37981799244880676
1788165008636783000,13.743783203125,-0.9686890244483948,1.5767619609832764,-0.4565559923648834
1788165008646864400,13.753864501953124,-2.7053399085998535,1.767956018447876,-1.4423190355300903
1788165008667037700,13.77403759765625,-1.616927981376648,0.09872499853372574,-1.4654539823532104
1788165008677122300,13.784122314453125,0.1854960024356842,-0.6982679963111877,-1.2524750232696533
1788165008687207200,13.794207275390624,1.7721019983291626,-1.0748909711837769,-0.710349977016449
1788165008697296100,13.804296142578124,2.368009090423584,-0.6572409868240356,-0.3572539985179901
1788165008707380500,13.81438037109375,1.452180027961731,0.2706480026245117,-0.25477299094200134
1788165008717468700,13.82446875,-0.7392110228538513,1.1189910173416138,-0.3319779932498932
1788165008727558100,13.83455810546875,-2.723939895629883,1.4040809869766235,-1.376451015472412
1788165008737646600,13.844646484375,-2.6981871128082275,0.8189049959182739,-1.7250070571899414
1788165008747722000,13.854721923828125,-0.5426179766654968,-0.041005998849868774,-1.6910619735717773
1788165008767892700,13.874892822265625,2.2114169597625732,-0.9658600091934204,-0.5139279961585999
1788165008777988600,13.884988525390625,1.2787840366363525,-0.5076929926872253,-0.04157299920916557
1788165008788078000,13.895078125,-0.4208790063858032,-0.275395005941391,0.5908420085906982
1788165008798175200,13.90517529296875,-1.770354986190796,-0.3301810026168823,0.5980280041694641
1788165008808266800,13.915266845703124,-2.4174489974975586,-0.6688200235366821,0.2545720040798187
1788165008818362400,13.9253623046875,-1.610414981842041,-0.8698679804801941,-0.18160699307918549
1788165008828444400,13.9354443359375,-0.6266630291938782,-0.6668930053710938,-0.7085469961166382
1788165008838544100,13.945544189453125,-0.2242860049009323,-0.4224950075149536,-0.8334280252456665
1788165008848628000,13.9556279296875,0.6497910022735596,-0.5709660053253174,-0.3102700114250183
1788165008858724400,13.965724365234376,0.9120650291442871,-0.675275981426239,0.3434180021286011
1788165008868819500,13.9758193359375,0.8996660113334656,-0.7405319809913635,0.9389969706535339
1788165008878914600,13.98591455078125,0.985647976398468,-0.9153990149497986,1.5390180349349976
1788165008889007000,13.996007080078124,0.8030800223350525,-1.062520980834961,2.0463290214538574
1788165008899097600,14.00609765625,1.1079150438308716,-1.2029880285263062,2.3700149059295654
1788165008909187300,14.016187255859375,1.3046749830245972,-0.943231999874115,2.1915879249572754
1788165008919285000,14.026284912109375,0.3158999979496002,-0.3171580135822296,1.5121279954910278
1788165008929377800,14.036377685546874,-0.322378009557724,0.13615000247955322,0.8532519936561584
1788165008939465700,14.0464658203125,-1.123682975769043,0.13104000687599182,0.6611909866333008
1788165008949550600,14.056550537109375,-1.3027570247650146,-0.12951600551605225,0.3639270067214966
1788165008959638800,14.066638671875,-0.7779889702796936,-0.7548699975013733,0.22666700184345245
1788165008969727200,14.076727294921875,0.1407579928636551,-1.5872199535369873,0.5951160192489624
1788165008979816400,14.08681640625,0.8240699768066406,-2.1288719177246094,0.7349339723587036
1788165008989909000,14.096908935546875,1.134024977684021,-2.220616102218628,1.0160939693450928
1788165008999997400,14.10699755859375,-0.02076300047338009,-1.616711974143982,0.9790269732475281
1788165009010089700,14.11708984375,-1.5307669639587402,-0.7593569755554199,0.5359920263290405
1788165009020178400,14.127178466796876,-2.6648659706115723,-0.26542800664901733,-0.055959999561309814
1788165009030262000,14.137261962890625,-2.310360908508301,-0.31570199131965637,-0.3615280091762543
1788165009040352800,14.147352783203125,-0.7152360081672668,-0.38394901156425476,-0.3526110053062439
1788165009050442800,14.15744287109375,1.097933053970337,-0.8063430190086365,0.2184319943189621
1788165009070624000,14.1776240234375,1.899135947227478,-1.6153919696807861,1.4578709602355957
1788165009080713200,14.187713134765625,0.7905539870262146,-1.864382028579712,1.6682950258255005
1788165009090801700,14.1978017578125,-0.25513899326324463,-2.0124599933624268,1.6323829889297485
1788165009100896500,14.207896484375,-1.7633119821548462,-2.2287049293518066,1.3489789962768555
1788165009110983700,14.217983642578124,-3.137794017791748,-2.373897075653076,0.659509003162384
1788165009121074700,14.22807470703125,-3.787705898284912,-2.258047103881836,-0.22360500693321228
1788165009131167700,14.238167724609376,-2.730576992034912,-2.2443649768829346,-0.6732019782066345
1788165009141261600,14.248261474609375,-0.595212996006012,-2.386730909347534,-0.5675430297851562
1788165009151348500,14.258348388671875,1.0047420263290405,-2.505117893218994,0.19518199563026428
1788165009161439700,14.268439697265626,2.114715099334717,-2.4945499897003174,1.191565990447998
1788165009171530200,14.2785302734375,2.3596038818359375,-2.325356960296631,2.062127113342285
1788165009181623000,14.288623046875,0.9773579835891724,-1.8069690465927124,2.633044958114624
1788165009191711700,14.298711669921875,-0.733709990978241,-1.0409899950027466,2.635374069213867
1788165009201804500,14.308804443359374,-1.0206340551376343,-0.8442850112915039,2.523529052734375
1788165009211887000,14.31888720703125,-1.3118460178375244,-0.7609580159187317,1.790490984916687
1788165009221974800,14.328974853515625,-0.8604909777641296,-0.33410799503326416,1.0100020170211792
1788165009232065300,14.339065185546875,-0.8288769721984863,0.2516610026359558,0.2831510007381439
1788165009242162700,14.34916259765625,-0.9299889802932739,0.7101010084152222,-0.37654000520706177
1788165009252255200,14.359255126953125,-0.6319440007209778,0.4789409935474396,-0.7571840286254883
1788165009262347800,14.36934765625,-0.14483299851417542,0.24033699929714203,-1.1595239639282227
1788165009272437000,14.37943701171875,1.071274995803833,-0.47145700454711914,-0.8970569968223572
1788165009282533600,14.38953369140625,1.5337189435958862,-1.055068016052246,-0.8128269910812378
1788165009292622000,14.3996220703125,0.9776729941368103,-1.5089939832687378,-0.4607189893722534
1788165009302709000,14.409708984375,-0.3058139979839325,-1.5553009510040283,-0.14698000252246857
1788165009312807700,14.4198076171875,-2.1426310539245605,-1.2780970335006714,-0.5611019730567932
1788165009322896600,14.429896728515626,-2.9805710315704346,-1.4645960330963135,-0.847495973110199
1788165009332983000,14.439983154296876,-2.1495890617370605,-2.149617910385132,-0.9614329934120178
1788165009343075300,14.450075439453125,-0.6571639776229858,-2.825313091278076,-0.6123660206794739
1788165009353165000,14.4601650390625,0.5200819969177246,-3.0656299591064453,-0.04429500177502632
1788165009363257300,14.47025732421875,0.6973609924316406,-2.9672958850860596,0.784400999546051
1788165009373343500,14.480343505859375,0.31498900055885315,-2.6744399070739746,1.5787960290908813
1788165009383444000,14.49044384765625,-0.10751599818468094,-2.2745249271392822,1.832497000694275
1788165009393544400,14.50054443359375,-0.1128000020980835,-2.1185810565948486,1.9945759773254395
1788165009403628500,14.510628662109376,0.09699799865484238,-2.1490390300750732,2.1174700260162354
1788165009413718000,14.520718017578124,0.23043300211429596,-2.1565709114074707,2.294593095779419
1788165009423803400,14.530803466796876,0.7517750263214111,-2.0401670932769775,2.380600929260254
1788165009433894700,14.540894775390624,1.0598440170288086,-1.7175220251083374,2.248183012008667
1788165009443986000,14.55098583984375,1.4694479703903198,-1.6011680364608765,2.065023899078369
1788165009454082000,14.56108203125,1.3589880466461182,-1.54094398021698,1.8900970220565796
1788165009464173000,14.571173095703125,0.8640390038490295,-1.4595309495925903,1.7110929489135742
1788165009474266600,14.5812666015625,0.1793060004711151,-1.3132569789886475,1.3035329580307007
1788165009484349700,14.591349609375,-0.9186800122261047,-1.2400610446929932,0.7574260234832764
1788165009504532500,14.611532470703125,-2.356297016143799,-1.1303980350494385,-0.7368969917297363
1788165009514626800,14.621626708984374,-2.297722101211548,-1.3125959634780884,-1.4591610431671143
1788165009524712200,14.631712158203126,-2.133781909942627,-1.5183769464492798,-1.935148000717163
1788165009534813400,14.6418134765625,-1.848410964012146,-1.7421989440917969,-2.2200710773468018
1788165009544897000,14.65189697265625,-0.7813469767570496,-2.177706003189087,-1.6097270250320435
1788165009555000800,14.662000732421875,0.06252200156450272,-2.316812038421631,-0.9966260194778442
