time,seconds_elapsed,z,y,x
1788164995098499300,0.205499267578125,-0.2241249978542328,1.822837471961975,-3.028024911880493
1788164995108595000,0.215594970703125,-0.13488750159740448,1.4929749965667725,-2.684687376022339
1788164995118676500,0.225676513671875,-0.07136250287294388,1.0385375022888184,-2.279062509536743
1788164995148949000,0.255948974609375,0.1106875017285347,0.14794999361038208,-0.596887469291687
1788164995159033300,0.266033447265625,0.23897500336170197,-0.1050499975681305,-0.016499999910593033
1788164995179208700,0.286208740234375,0.4856500029563904,-0.5777750015258789,1.1233749389648438
1788164995189298000,0.2962978515625,0.6188874840736389,-0.5692499876022339,1.6901500225067139
1788164995219589400,0.32658935546875,1.2016124725341797,1.9046499729156494,1.969962477684021
1788164995249863700,0.35686376953125,0.3830749988555908,2.168649911880493,1.6230499744415283
1788164995259948800,0.36694873046875,0.2915000021457672,1.8705500364303589,1.5680500268936157
1788164995270037000,0.377037109375,0.342787504196167,1.6200250387191772,1.4654749631881714
1788164995280124400,0.38712451171875,0.4723125100135803,1.5357375144958496,1.3347125053405762
1788164995290223000,0.39722314453125,0.6591749787330627,1.543025016784668,1.1941875219345093
1788164995300311800,0.407311767578125,0.8412249684333801,1.547974944114685,1.108662486076355
1788164995310421800,0.417421875,0.9512249827384949,1.5125000476837158,1.0646624565124512
1788164995320517600,0.427517578125,0.9817500114440918,1.4246374368667603,1.0621875524520874
1788164995330616600,0.437616455078125,0.946274995803833,1.3989249467849731,1.1026124954223633
1788164995340763000,0.447762939453125,0.8742250204086304,1.4453999996185303,1.1416624784469604
1788164995350859800,0.45785986328125,0.815512478351593,1.5112625360488892,1.1611875295639038
1788164995360949200,0.46794921875,0.780174970626831,1.5320249795913696,1.146612524986267
1788164995371043000,0.47804296875,0.8449375033378601,1.3281124830245972,1.0903749465942383
1788164995381127400,0.48812744140625,0.97308748960495,1.119112491607666,1.029325008392334
1788164995391218400,0.498218505859375,1.046512484550476,0.9945374727249146,0.9865624904632568
1788164995401311200,0.508311279296875,1.0440374612808228,0.9602999687194824,0.9266124963760376
1788164995411424000,0.518424072265625,0.9817500114440918,1.0030624866485596,0.8375124931335449
1788164995421520100,0.52852001953125,0.8815125226974487,1.0958750247955322,0.7653250098228455
1788164995431615500,0.538615478515625,0.8179875016212463,1.1704000234603882,0.7555624842643738
1788164995441702700,0.54870263671875,0.802174985408783,1.110587477684021,0.8080874681472778
1788164995451788300,0.558788330078125,0.8314625024795532,0.9872499704360962,0.8472750186920166
1788164995461883600,0.568883544921875,0.8754624724388123,0.8014875054359436,0.8313249945640564
1788164995471977200,0.578977294921875,0.8815125226974487,0.5631999969482422,0.7617499828338623
1788164995482069800,0.58906982421875,0.8229374885559082,0.32010000944137573,0.6749874949455261
1788164995492159200,0.5991591796875,0.7324625253677368,0.11852499842643738,0.557699978351593
1788164995502250000,0.60925,0.6872249841690063,-0.035337500274181366,0.4244624972343445
1788164995512363800,0.61936376953125,0.6872249841690063,-0.1331000030040741,0.34636250138282776
1788164995522448100,0.6294482421875,0.679937481880188,-0.18314999341964722,0.31817498803138733
1788164995532542000,0.6395419921875,0.683650016784668,-0.1905750036239624,0.2864125072956085
1788164995542677000,0.649677001953125,0.679937481880188,-0.13062499463558197,0.2303124964237213
1788164995552761000,0.659760986328125,0.6518874764442444,-0.057337500154972076,0.2083124965429306
1788164995562859000,0.66985888671875,0.6176499724388123,-0.006049999967217445,0.22783750295639038
1788164995572947200,0.679947265625,0.5711749792098999,0.06847500056028366,0.255887508392334
1788164995583037400,0.690037353515625,0.5174124836921692,0.17104999721050262,0.28283751010894775
1788164995593130000,0.7001298828125,0.46860000491142273,0.25905001163482666,0.30483749508857727
1788164995603225600,0.7102255859375,0.43312498927116394,0.3348124921321869,0.31459999084472656
1788164995613324500,0.720324462890625,0.4111250042915344,0.33605000376701355,0.3536500036716461
1788164995623414300,0.730414306640625,0.37207499146461487,0.31652501225471497,0.4269374907016754
1788164995633503200,0.740503173828125,0.3232625126838684,0.2798124849796295,0.4856500029563904
1788164995643597000,0.75059716796875,0.2755500078201294,0.2578125,0.5209875106811523
1788164995653686300,0.760686279296875,0.24873749911785126,0.2798124849796295,0.5405125021934509
1788164995663779800,0.77077978515625,0.24131250381469727,0.2993375062942505,0.5687000155448914
1788164995673867300,0.7808671875,0.26083749532699585,0.2870999872684479,0.5724124908447266
1788164995683961000,0.790961181640625,0.2670249938964844,0.24557499587535858,0.522225022315979
1788164995704142600,0.811142578125,0.19373749196529388,0.09652499854564667,0.3218874931335449
1788164995714259500,0.821259521484375,0.13378749787807465,0.0952875018119812,0.2180749922990799
1788164995724355600,0.83135546875,0.09968750178813934,0.15028749406337738,0.14354999363422394
1788164995734447400,0.841447265625,0.09721250087022781,0.18081249296665192,0.09226249903440475
1788164995744541400,0.85154150390625,0.10573749989271164,0.17971250414848328,0.0030249999836087227
1788164995754631200,0.861631103515625,0.08992499858140945,0.16128750145435333,-0.12031249701976776
1788164995764725800,0.871725830078125,0.04468749836087227,0.1247124969959259,-0.2498375028371811
1788164995774824400,0.881824462890625,-0.038362499326467514,0.10518749803304672,-0.3683624863624573
1788164995784916200,0.891916259765625,-0.1568875014781952,0.10999999940395355,-0.45883750915527344
1788164995795010800,0.9020107421875,-0.2644124925136566,0.19304999709129333,-0.544362485408783
1788164995805111000,0.912111083984375,-0.3438875079154968,0.2773374915122986,-0.6199874877929688
1788164995815192600,0.922192626953125,-0.31693750619888306,0.26633748412132263,-0.7422249913215637
1788164995825284900,0.932284912109375,-0.11659999936819077,0.17847499251365662,-0.9022749662399292
1788164995835369000,0.942368896484375,-0.08607500046491623,0.037950001657009125,-1.1246124505996704
1788164995845455400,0.952455322265625,-0.3254624903202057,-0.1013374999165535,-1.3164249658584595
1788164995855545600,0.962545654296875,-0.5894625186920166,-0.06710000336170197,-1.4434750080108643
1788164995865640700,0.972640625,-0.7788000106811523,0.2761000096797943,-1.5130499601364136
1788164995875733000,0.98273291015625,-0.8753250241279602,0.9310125112533569,-1.4911874532699585
1788164995885820700,0.992820556640625,-0.9241374731063843,1.6359750032424927,-1.3848999738693237
1788164995906008000,1.013008056640625,-1.0048500299453735,2.853950023651123,-1.0000375509262085
1788164995926188800,1.033188720703125,-0.7543249726295471,4.069587707519531,-0.21683749556541443
1788164995936283100,1.043283203125,-0.6247999668121338,4.517974853515625,0.3854124844074249
1788164995946376700,1.053376708984375,-0.6345624923706055,5.359749794006348,0.9083250164985657
1788164995956457500,1.06345751953125,-0.8251374959945679,6.161099910736084,1.3567124605178833
1788164995966546400,1.07354638671875,-1.0829499959945679,6.801300048828125,1.7219125032424927
1788164995976637400,1.083637451171875,-1.4055249691009521,7.319262504577637,1.9834375381469727
1788164995986721800,1.0937216796875,-1.7621999979019165,7.76036262512207,2.171537399291992
1788164995996820200,1.1038203125,-2.068962574005127,7.999750137329102,2.3120625019073486
1788164996006912500,1.11391259765625,-2.3413500785827637,8.101224899291992,2.4476375579833984
1788164996016996000,1.12399609375,-2.6137375831604004,8.041412353515625,2.5686373710632324
1788164996027083300,1.134083251953125,-2.9435999393463135,7.853175163269043,2.65663743019104
1788164996037176300,1.14417626953125,-3.2821249961853027,7.4085001945495605,2.7359750270843506
1788164996047274800,1.154274658203125,-3.5777499675750732,6.647437572479248,2.7579751014709473
1788164996057368300,1.164368408203125,-3.8440873622894287,5.760425090789795,2.655400037765503
1788164996067462100,1.174462158203125,-4.029712677001953,5.022462368011475,2.4586374759674072
1788164996077551000,1.184551025390625,-4.073712348937988,4.332212448120117,2.2338249683380127
1788164996087645200,1.194645263671875,-3.9551875591278076,3.6700124740600586,2.038437604904175
1788164996097727200,1.204727294921875,-3.696274995803833,3.1055750846862793,1.9492000341415405
1788164996107816200,1.214816162109375,-3.335749864578247,2.657325029373169,1.9406750202178955
1788164996117905000,1.22490478515625,-2.958312511444092,2.361562490463257,1.969962477684021
1788164996127994400,1.234994384765625,-2.67368745803833,2.0684125423431396,2.0176749229431152
1788164996138081300,1.245081298828125,-2.517212390899658,1.7483124732971191,2.0640125274658203
1788164996148175400,1.25517529296875,-2.3755874633789062,1.3842124938964844,2.1337249279022217
1788164996158259700,1.265259765625,-2.2508749961853027,1.0861124992370605,2.318112373352051
1788164996168348700,1.2753486328125,-2.031012535095215,0.9297749996185303,2.541687488555908
1788164996178435600,1.285435546875,-1.7426749467849731,0.8687250018119812,2.7482125759124756
1788164996188535300,1.295535400390625,-1.4592875242233276,0.91753751039505,2.876499891281128
1788164996198623500,1.30562353515625,-1.2234749794006348,1.0067750215530396,2.902212381362915
1788164996208711400,1.31571142578125,-1.0707124471664429,1.0665874481201172,2.8667373657226562
1788164996218825000,1.325824951171875,-0.9363750219345093,1.0507750511169434,2.786025047302246
1788164996228921000,1.335921142578125,-0.7189875245094299,0.9688249826431274,2.7164499759674072
1788164996239008800,1.3460087890625,-0.41964998841285706,0.9029625058174133,2.67368745803833
1788164996249101800,1.356101806640625,-0.09336250275373459,0.8930624723434448,2.6259748935699463
1788164996259186400,1.3661865234375,0.1447875052690506,0.9640125036239624,2.303537368774414
1788164996269276000,1.37627587890625,0.2670249938964844,0.8149625062942505,2.0189125537872314
1788164996279361300,1.386361328125,0.2377374917268753,0.4105750024318695,1.3860000371932983
1788164996309655300,1.4166552734375,-0.05431250110268593,-0.3909125030040741,-0.561412513256073
1788164996323810600,1.430810546875,0.12044999748468399,-0.2246749997138977,-0.736175000667572
1788164996333900800,1.44090087890625,0.2437874972820282,-0.07576250284910202,-0.6737499833106995
1788164996343991600,1.450991455078125,0.2670249938964844,0.08923749625682831,-0.5211250185966492
1788164996354076700,1.46107666015625,0.1985500007867813,0.19923749566078186,-0.3207874894142151
1788164996364174300,1.47117431640625,0.08868750184774399,0.3713875114917755,-0.19126249849796295
1788164996384362200,1.4913623046875,-0.028599999845027924,0.5583875179290771,0.14231249690055847
1788164996394458600,1.501458740234375,-0.13859999179840088,0.4203374981880188,0.284074991941452
1788164996404560000,1.511559814453125,-0.31693750619888306,0.4545750021934509,0.22659999132156372
1788164996414657000,1.521656982421875,-0.7495124936103821,0.5376250147819519,0.11302500218153
1788164996424757200,1.53175732421875,-0.9021375179290771,0.7049624919891357,-0.009212499484419823
1788164996434856200,1.541856201171875,-0.7017999887466431,0.5511000156402588,-0.0006874999962747097
1788164996444953300,1.551953369140625,-0.4147000014781952,0.32752498984336853,0.10807500034570694
1788164996455042300,1.562042236328125,-0.2180749922990799,0.38128748536109924,0.284074991941452
1788164996465130200,1.572130126953125,-0.06159999966621399,0.6316750049591064,0.31088748574256897
1788164996475220700,1.582220703125,0.0042624999769032,0.7049624919891357,0.3499374985694885
1788164996485318700,1.592318603515625,0.0031624999828636646,0.6671500205993652,0.3316499888896942
1788164996495409000,1.602408935546875,-0.02983750030398369,0.4801499843597412,0.3438875079154968
1788164996505505300,1.61250537109375,-0.08112499862909317,0.17476250231266022,0.3488374948501587
1788164996515601400,1.622601318359375,-0.15331250429153442,0.002474999986588955,0.255887508392334
1788164996525700000,1.6327001953125,-0.17531250417232513,-0.11728750169277191,0.12402500212192535
1788164996535786200,1.6427861328125,-0.1471250057220459,-0.17215000092983246,-0.05926249921321869
1788164996545876200,1.652876220703125,0.1522125005722046,-0.007287499960511923,-0.16307500004768372
1788164996555976200,1.66297607421875,0.44288748502731323,0.2798124849796295,-0.19249999523162842
1788164996566073000,1.673072998046875,0.6749874949455261,0.22481249272823334,-0.08002500236034393
1788164996576162300,1.683162353515625,0.7312250137329102,0.1942874938249588,-0.08002500236034393
1788164996586259200,1.69325927734375,0.7264124751091003,0.31776249408721924,-0.17173749208450317
1788164996606438000,1.71343798828125,0.7594124674797058,0.08428750187158585,-0.2437874972820282
1788164996616523500,1.7235234375,0.7874624729156494,-0.1868624985218048,-0.22659999132156372
1788164996626608000,1.733608154296875,0.7006999850273132,-0.5044875144958496,-0.29878750443458557
1788164996636698000,1.743697998046875,0.6749874949455261,-0.8380625247955322,-0.4171749949455261
1788164996646790000,1.753789794921875,0.6652249693870544,-1.198449969291687,-0.557699978351593
1788164996656868900,1.763868896484375,0.6481750011444092,-1.660312533378601,-0.819225013256073
1788164996666957300,1.773957275390625,0.6994624733924866,-2.2368500232696533,-0.9987999796867371
1788164996677046300,1.78404638671875,0.6616500020027161,-2.9930999279022217,-1.142899990081787
1788164996687141000,1.79414111328125,0.4600749909877777,-4.239262580871582,-1.4031875133514404
1788164996697227300,1.804227294921875,0.37812501192092896,-5.473187446594238,-1.432474970817566
1788164996707317200,1.814317138671875,0.2780250012874603,-5.645474910736084,-1.2199000120162964
1788164996717400600,1.824400634765625,0.34031251072883606,-5.467137336730957,-0.7679374814033508
1788164996727499800,1.834499755859375,0.43188750743865967,-4.97475004196167,-0.30236250162124634
1788164996737586700,1.844586669921875,0.38554999232292175,-4.33097505569458,0.14231249690055847
1788164996747682800,1.854682861328125,0.2560249865055084,-4.262499809265137,0.30607500672340393
1788164996757770000,1.86477001953125,0.2340250015258789,-5.092037677764893,0.3511750102043152
1788164996767857400,1.874857421875,0.16197499632835388,-5.553899765014648,0.2180749922990799
1788164996777943800,1.88494384765625,0.05073750019073486,-5.589237689971924,0.18507499992847443
1788164996788033300,1.895033203125,-0.0873124971985817,-5.331425189971924,0.30717501044273376
1788164996808216800,1.915216796875,-0.22536249458789825,-4.340737342834473,0.44165000319480896
1788164996818310400,1.925310302734375,-0.1373624950647354,-3.5074875354766846,0.2876499891281128
1788164996838503400,1.94550341796875,0.05321250110864639,-2.5251874923706055,0.2180749922990799
1788164996858703600,1.96570361328125,0.15702499449253082,-1.805649995803833,0.03478749841451645
1788164996868801500,1.975801513671875,0.04592499881982803,-1.4207874536514282,0.05431250110268593
1788164996878887200,1.98588720703125,0.031212499365210533,-1.1593999862670898,0.06283749639987946
1788164996888984800,1.99598486328125,0.012924999929964542,-1.0554499626159668,0.058024998754262924
1788164996899124000,2.0061240234375,-0.07136250287294388,-1.2265000343322754,-0.07397499680519104
1788164996909221400,2.016221435546875,-0.09831249713897705,-1.2497375011444092,-0.18878750503063202
1788164996919314700,2.026314697265625,-0.06655000150203705,-1.0396374464035034,-0.1387374997138977
1788164996929409800,2.036409912109375,-0.011549999937415123,-0.8746374845504761,0.012787500396370888
1788164996939492000,2.0464921875,-0.018837500363588333,-0.7598249912261963,0.09226249903440475
1788164996949589500,2.056589599609375,-0.10436250269412994,-0.6230124831199646,0.11783749610185623
1788164996959680300,2.06668017578125,-0.038362499326467514,-0.39214998483657837,0.2180749922990799
1788164996969772800,2.076772705078125,0.08373750001192093,0.1527625024318695,0.47946250438690186
1788164996979851500,2.0868515625,0.09473749995231628,0.7062000036239624,0.6505125164985657
1788164996989957000,2.09695703125,0.12526249885559082,1.131350040435791,0.7030375003814697
1788164997000041500,2.10704150390625,0.14973749220371246,1.4819749593734741,0.6908000111579895
1788164997010135800,2.1171357421875,0.13144999742507935,1.7617875337600708,0.6126999855041504
1788164997020225800,2.127225830078125,0.1289750039577484,2.0268874168395996,0.4954124987125397
1788164997030323700,2.13732373046875,0.11302500218153,2.2052249908447266,0.284074991941452
1788164997040413000,2.147412841796875,0.060499999672174454,2.250462532043457,0.11055000126361847
1788164997050501000,2.157501220703125,0.016499999910593033,2.136887550354004,0.016499999910593033
1788164997070685200,2.177685302734375,-0.12759999930858612,2.4483249187469482,0.06778749823570251
1788164997080772000,2.187772216796875,-0.10559999942779541,2.7061374187469482,0.028737500309944153
1788164997090860500,2.197860595703125,-0.20212499797344208,3.2815749645233154,-0.24131250381469727
1788164997100953600,2.20795361328125,-0.34264999628067017,3.522199869155884,-0.41964998841285706
1788164997111047200,2.218047119140625,-0.3988874852657318,4.123350143432617,-0.22550000250339508
1788164997121140700,2.228140625,-0.46117499470710754,4.895412445068359,0.19731250405311584
1788164997131237400,2.2382373046875,-0.4977499842643738,5.3279876708984375,0.3926999866962433
1788164997141323000,2.248322998046875,-0.46598750352859497,5.330325126647949,0.23154999315738678
1788164997151414300,2.258414306640625,-0.48069998621940613,5.269275188446045,-0.007974999956786633
1788164997161500200,2.268500244140625,-0.780037522315979,4.623024940490723,-0.2400749921798706
1788164997171591700,2.278591796875,-0.933899998664856,3.859487533569336,-0.5198875069618225
1788164997181677300,2.28867724609375,-0.7605124711990356,3.3488125801086426,-0.8375124931335449
1788164997191763200,2.29876318359375,-1.0036125183105469,3.4453375339508057,-1.008562445640564
1788164997201851400,2.308851318359375,-1.5020500421524048,3.793487548828125,-1.1698499917984009
1788164997211943000,2.31894287109375,-1.8026249408721924,4.341975212097168,-1.4459500312805176
1788164997222035500,2.329035400390625,-1.6438125371932983,4.704837322235107,-1.6230499744415283
1788164997232126700,2.339126708984375,-1.2149499654769897,5.048174858093262,-1.558287501335144
1788164997242219000,2.349218994140625,-0.977899968624115,5.577137470245361,-1.274899959564209
1788164997252313300,2.359313232421875,-0.2461249977350235,5.116512298583984,-0.963325023651123
1788164997262405400,2.3694052734375,-0.14588749408721924,4.565549850463867,-0.8815125226974487
1788164997272496400,2.379496337890625,-0.24365000426769257,4.392162322998047,-1.10756254196167
1788164997282601500,2.3896015625,-1.0366125106811523,4.416500091552734,-1.3934249877929688
1788164997292694500,2.399694580078125,-1.362762451171875,4.015824794769287,-1.503287434577942
1788164997302792400,2.40979248046875,-1.0146124362945557,3.2033374309539795,-1.388474941253662
1788164997312882000,2.4198818359375,-0.8888000249862671,3.200862407684326,-1.2981375455856323
1788164997322981000,2.429981201171875,-0.9486125111579895,3.560149908065796,-1.3396625518798828
1788164997333075500,2.440075439453125,-1.3077625036239624,2.9932374954223633,-1.3139499425888062
1788164997343174000,2.450173828125,-1.6266249418258667,0.4875749945640564,-0.9805124998092651
1788164997353262000,2.460261962890625,-1.4055249691009521,-1.7701749801635742,-0.4501749873161316
1788164997363356400,2.4703564453125,-0.911899983882904,-2.117224931716919,-0.11055000126361847
1788164997373451300,2.480451171875,-0.557699978351593,-1.206974983215332,-0.116737499833107
1788164997383552300,2.49055224609375,-0.4904625117778778,-0.6144874691963196,-0.31212499737739563
1788164997393638700,2.500638671875,-0.3511750102043152,-0.29438748955726624,-0.5431249737739563
1788164997403736800,2.51073681640625,-0.01759999990463257,0.1527625024318695,-0.7006999850273132
1788164997413824500,2.520824462890625,0.1667875051498413,0.6793875098228455,-0.613937497138977
1788164997423924200,2.53092431640625,-0.1471250057220459,1.4355000257492065,-0.3133625090122223
1788164997434017000,2.54101708984375,-0.593037486076355,1.8325999975204468,0.053075000643730164
1788164997444112600,2.551112548828125,-0.6529874801635742,1.2326874732971191,0.6114624738693237
1788164997454195500,2.561195556640625,-0.4769875109195709,0.4545750021934509,1.0988999605178833
1788164997464292000,2.5712919921875,-0.48922500014305115,0.08318749815225601,1.0268499851226807
1788164997474377000,2.581376953125,-0.7640874981880188,-0.05486249923706055,0.5417500138282776
1788164997484472800,2.591472900390625,-1.104949951171875,-0.08786249905824661,0.23759999871253967
1788164997494561800,2.601561767578125,-1.262524962425232,-0.09033749997615814,0.16554999351501465
1788164997504664800,2.611664794921875,-1.3457125425338745,-0.2381500005722046,0.20583750307559967
1788164997514759000,2.621759033203125,-1.2869999408721924,-0.5424374938011169,0.18383750319480896
1788164997524861200,2.631861083984375,-1.2552374601364136,-0.8465874791145325,-0.045787498354911804
1788164997534957800,2.641957763671875,-1.3151874542236328,-1.120212435722351,-0.40012499690055847
1788164997545053200,2.65205322265625,-1.4910500049591064,-1.3292125463485718,-0.6224625110626221
1788164997555145500,2.6621455078125,-1.6425750255584717,-1.3267375230789185,-0.6334624886512756
1788164997565246700,2.672246826171875,-1.7353874444961548,-1.364549994468689,-0.4538874924182892
1788164997575335000,2.6823349609375,-1.695099949836731,-1.3535499572753906,-0.14602500200271606
1788164997585444400,2.6924443359375,-1.9027249813079834,-0.6914874911308289,0.09459999948740005
1788164997595534000,2.7025341796875,-2.374350070953369,0.1467124968767166,0.14231249690055847
1788164997615718400,2.722718505859375,-3.8233249187469482,-0.329862505197525,-0.34154999256134033
1788164997625818600,2.732818603515625,-3.902662515640259,-0.5644375085830688,-0.4478375017642975
1788164997635908900,2.742908935546875,-3.6265625953674316,-0.6962999701499939,-0.303600013256073
1788164997646003000,2.7530029296875,-2.9827873706817627,-0.47519999742507935,-0.11921250075101852
1788164997656095700,2.763095703125,-2.0713000297546387,-0.10628750175237656,-0.0775500014424324
1788164997666187500,2.7731875,-0.8643249869346619,-0.030524998903274536,-0.19126249849796295
1788164997676279300,2.783279296875,-0.10807500034570694,-0.2063875049352646,-0.4661250114440918
1788164997686365400,2.793365478515625,-0.2303124964237213,-0.32120001316070557,-0.8094624876976013
1788164997696452900,2.803452880859375,-0.5112249851226807,-0.2993375062942505,-1.0403250455856323
1788164997706542300,2.813542236328125,-0.37564998865127563,0.10752499848604202,-1.130662441253662
1788164997716639500,2.823639404296875,0.3806000053882599,1.3524500131607056,-1.0940874814987183
1788164997726724900,2.833724853515625,0.7532249689102173,1.4416874647140503,-0.14973749220371246
1788164997736808700,2.84380859375,0.414837509393692,1.1325875520706177,0.2363625019788742
1788164997746901200,2.8539013671875,0.33412501215934753,0.7330124974250793,-0.16431249678134918
1788164997756987000,2.86398681640625,0.5308874845504761,0.5473874807357788,-0.31088748574256897
1788164997767074800,2.87407470703125,0.6126999855041504,0.8197749853134155,-0.22659999132156372
1788164997787255600,2.894255615234375,0.5076500177383423,0.18700000643730164,-0.478362500667572
1788164997797337300,2.90433740234375,0.6261749863624573,0.1882375031709671,-0.49293750524520874
1788164997807437000,2.91443701171875,1.1063250303268433,0.2125750035047531,0.018837500363588333
1788164997827633700,2.934633544921875,0.1313125044107437,0.4386250078678131,1.0231374502182007
1788164997837719300,2.94471923828125,-0.4819374978542328,1.7336000204086304,0.6126999855041504
1788164997857897500,2.9648974609375,0.24860000610351562,1.5406874418258667,0.8998000025749207
1788164997878078200,2.985078125,0.9267500042915344,1.1448249816894531,1.4250500202178955
1788164997918452500,3.025452392578125,0.4380750060081482,2.829474925994873,0.6114624738693237
1788164997928553500,3.035553466796875,-0.22288750112056732,2.49961256980896,0.19607499241828918
1788164997958850300,3.065850341796875,-0.32670000195503235,-2.947999954223633,-0.9840874671936035
1788164997968946000,3.07594580078125,-0.03959999978542328,-3.28267502784729,-0.9560375213623047
1788164997989137000,3.096136962890625,-0.10078749805688858,-1.767699956893921,-0.2620750069618225
1788164997999223300,3.106223388671875,-0.23883749544620514,-1.29868745803833,-0.05678749829530716
1788164998009321000,3.116321044921875,-0.20212499797344208,-1.0115875005722046,0.12155000120401382
1788164998039603000,3.14660302734375,-0.16554999351501465,-2.354137420654297,0.0873124971985817
1788164998069869600,3.17686962890625,0.09844999760389328,-0.7683500051498413,0.3511750102043152
1788164998150616800,3.257616943359375,3.5351250171661377,1.897362470626831,-0.8607500195503235
1788164998160771300,3.267771240234375,2.5332999229431152,0.5168625116348267,-2.2510125637054443
1788164998170864000,3.277864013671875,1.89433753490448,-0.8636375069618225,-1.8551499843597412
1788164998180942800,3.28794287109375,1.1503249406814575,-0.8062999844551086,-0.9657999873161316
1788164998191031800,3.29803173828125,1.08308744430542,-0.9003499746322632,-0.8325625061988831
1788164998201122600,3.30812255859375,1.6108125448226929,-1.8068875074386597,-1.3909499645233154
1788164998241488000,3.34848779296875,1.3017125129699707,-1.5417875051498413,-0.7532249689102173
1788164998281853000,3.38885302734375,-1.1819499731063843,0.6584874987602234,-0.2083124965429306
1788164998322222800,3.429222900390625,-3.1660749912261963,3.4978625774383545,0.14602500200271606
1788164998332321800,3.43932177734375,-3.508037567138672,3.4208624362945557,0.2998875081539154
1788164998342421200,3.449421142578125,-3.85756254196167,2.8454248905181885,0.6908000111579895
1788164998352518700,3.4595185546875,-3.916137456893921,2.1917500495910645,1.0988999605178833
1788164998362603800,3.469603759765625,-3.5850374698638916,1.4954500198364258,1.2809499502182007
1788164998453447200,3.560447265625,0.2535499930381775,-1.3059749603271484,-0.03368749842047691
1788164998463542000,3.5705419921875,0.2670249938964844,-1.4195499420166016,-0.21559999883174896
1788164998483728000,3.590727783203125,0.42941248416900635,-0.817300021648407,-0.10078749805688858
1788164998544281300,3.65128125,0.09844999760389328,0.03918749839067459,-0.2523125112056732
1788164998574562600,3.6815625,-0.31459999084472656,-0.6927250027656555,-0.058024998754262924
1788164998604841000,3.711841064453125,0.29878750443458557,-0.33838748931884766,-0.06655000150203705
1788164998635111700,3.742111572265625,-0.42941248416900635,0.12223749607801437,-0.12031249701976776
1788164998665400000,3.772400146484375,-0.011549999937415123,0.3152875006198883,0.3279374837875366
1788164998695677700,3.802677734375,-0.31212499737739563,0.20157499611377716,0.44165000319480896
1788164998705766700,3.8127666015625,-0.4049375057220459,0.5803874731063843,0.557699978351593
1788164998715856100,3.822856201171875,-0.5357000231742859,0.7977749705314636,0.5832750201225281
1788164998725962800,3.832962646484375,-0.46970000863075256,0.7636749744415283,0.5784624814987183
1788164998746151700,3.853151611328125,-0.0518375001847744,0.31033748388290405,0.46488749980926514
1788164998826854000,3.93385400390625,0.031212499365210533,0.8357250094413757,0.41346248984336853
1788164998836939300,3.943939208984375,0.03973750025033951,0.6804875135421753,0.6749874949455261
1788164998857116200,3.9641162109375,-0.5955125093460083,1.30611252784729,0.6529874801635742
1788164998947918600,4.054918701171875,-0.4171749949455261,-0.21381250023841858,0.13007499277591705
1788164998958008800,4.0650087890625,-0.2681249976158142,-0.1746249943971634,0.08483749628067017
1788164998998396200,4.105396240234375,-1.1159499883651733,0.23223750293254852,-0.15950000286102295
1788164999018603500,4.125603515625,-0.7030375003814697,1.473449945449829,-0.3110249936580658
1788164999028695800,4.13569580078125,-0.6822749972343445,0.6683874726295471,-0.08855000138282776
1788164999048876500,4.15587646484375,-0.8630874752998352,-0.4824874997138977,-0.055687498301267624
1788164999069059000,4.17605908203125,-0.4489375054836273,-1.2449250221252441,-0.12031249701976776
1788164999089250600,4.19625048828125,-0.20707499980926514,-0.29315000772476196,-0.24502499401569366
1788164999119526400,4.2265263671875,-0.03231250122189522,0.45210000872612,0.1153625026345253
1788164999129623300,4.236623291015625,0.15331250429153442,-0.07081250101327896,0.048262499272823334
1788164999149801200,4.25680126953125,0.2718375027179718,-0.02199999988079071,0.13859999179840088
1788164999169979000,4.276978759765625,0.7251750230789185,-0.5436750054359436,0.41964998841285706
1788164999180069600,4.287069580078125,0.8742250204086304,-0.4702500104904175,0.6456999778747559
1788164999190159600,4.29715966796875,0.8790374994277954,-0.07452499866485596,0.859375
1788164999220472300,4.327472412109375,0.6164125204086304,-0.8282999992370605,0.2681249976158142
1788164999260831700,4.367831787109375,1.112375020980835,-2.162324905395508,-0.12031249701976776
1788164999301192700,4.408192626953125,1.6255249977111816,0.24433749914169312,0.8338000178337097
1788164999311312400,4.4183125,1.4471875429153442,0.21133749186992645,0.9010375142097473
1788164999351688200,4.458688232421875,-0.2876499891281128,1.0922999382019043,-0.34759998321533203
1788164999361776000,4.468776123046875,-0.981612503528595,1.4379750490188599,-0.6811749935150146
1788164999371863600,4.478863525390625,-1.0096625089645386,1.8301249742507935,-0.9608500003814697
1788164999381947400,4.488947509765625,-1.2857625484466553,2.0011749267578125,-0.8327000141143799
1788164999392039000,4.499038818359375,-1.0158499479293823,2.015887498855591,-0.6518874764442444
1788164999412225800,4.519225830078125,-1.769624948501587,4.070825099945068,-1.4887125492095947
1788164999422317800,4.52931787109375,-1.4128124713897705,5.071412563323975,-1.2223750352859497
1788164999432411100,4.5394111328125,-1.5888124704360962,6.122049808502197,-0.3451249897480011
1788164999462688800,4.569688720703125,-0.8398500084877014,5.530662536621094,0.6982250213623047
1788164999472779800,4.57977978515625,-0.6847500205039978,1.4441624879837036,0.17531250417232513
1788164999482875400,4.58987548828125,-0.4769875109195709,-0.2993375062942505,-0.09473749995231628
1788164999513148200,4.620148193359375,-0.20583750307559967,0.6084374785423279,-0.010449999943375587
1788164999533326000,4.640326171875,-0.49293750524520874,2.592562437057495,0.42570000886917114
1788164999543423200,4.65042333984375,-0.05678749829530716,2.5717999935150146,0.696987509727478
1788164999553520600,4.660520751953125,0.08621250092983246,1.7373124361038208,0.9107999801635742
1788164999573700400,4.680700439453125,0.3573625087738037,-1.6541249752044678,0.1373624950647354
1788164999583799600,4.690799560546875,0.5564625263214111,-1.883887529373169,0.12278749793767929
1788164999593890600,4.700890625,0.5101249814033508,-1.452549934387207,0.1545500010251999
1788164999603986700,4.710986572265625,0.5736500024795532,-0.08552499860525131,-0.5871250033378601
1788164999614078200,4.721078125,1.017087459564209,0.852774977684021,-0.4600749909877777
1788164999624175000,4.731175048828125,1.1648999452590942,2.07212495803833,0.3231250047683716
1788164999634265000,4.74126513671875,1.1453750133514404,2.1807498931884766,0.5711749792098999
1788164999644357600,4.751357666015625,1.0525624752044678,1.1350624561309814,0.38788750767707825
1788164999654454300,4.761454345703125,0.9878000020980835,-0.6474875211715698,-0.06902500241994858
1788164999664549000,4.771549072265625,0.8485124707221985,-1.4379750490188599,-0.2670249938964844
1788164999684739800,4.79173974609375,0.34759998321533203,-2.247849941253662,-0.7642250061035156
1788164999694829600,4.80182958984375,0.25107499957084656,-3.175149917602539,-1.7037625312805176
1788164999704929300,4.81192919921875,0.16554999351501465,-3.199625015258789,-1.6523374319076538
1788164999725112000,4.832112060546875,0.7482749819755554,-3.4121999740600586,-1.3311375379562378
1788164999735197400,4.842197509765625,0.696987509727478,-3.254625082015991,-1.0806125402450562
1788164999755378000,4.8623779296875,-0.027499999850988388,-2.4140875339508057,-1.0855624675750732
1788164999775570700,4.88257080078125,0.020212499424815178,-0.7880125045776367,-0.35612499713897705
1788164999785664000,4.8926640625,0.2143625020980835,0.2040500044822693,0.17765000462532043
1788164999795755500,4.902755615234375,0.2217874974012375,1.264449954032898,0.6224625110626221
1788164999815950800,4.922950927734375,0.22659999132156372,2.3957998752593994,0.8032749891281128
1788164999826035500,4.933035400390625,0.19978749752044678,1.8875999450683594,0.5735124945640564
1788164999846225400,4.953225341796875,0.012787500396370888,0.35186249017715454,0.06655000150203705
1788164999856306700,4.963306640625,-0.04455000162124634,0.21876250207424164,-0.011687500402331352
1788164999866394000,4.97339404296875,-0.15578749775886536,0.27252501249313354,0.015262499451637268
1788164999876483600,4.983483642578125,-0.12031249701976776,0.37386250495910645,0.045787498354911804
1788164999886575900,4.993575927734375,-0.06655000150203705,0.16005000472068787,0.027499999850988388
1788164999896653300,5.0036533203125,-0.14231249690055847,0.16005000472068787,0.03231250122189522
1788164999906739000,5.013739013671875,-0.27912500500679016,0.3763374984264374,-0.016499999910593033
1788164999916820500,5.023820556640625,-0.5429875254631042,0.5961999893188477,-0.05197500064969063
1788164999926908400,5.033908447265625,-0.767799973487854,0.7770124673843384,-0.03973750025033951
1788164999936993000,5.043992919921875,-1.0183249711990356,0.6096749901771545,0.028737500309944153
1788164999947080700,5.054080810546875,-1.0866625308990479,0.25905001163482666,0.060499999672174454
1788164999957172500,5.06417236328125,-0.9913749694824219,0.042762499302625656,0.09583749622106552
1788164999977343200,5.08434326171875,-0.4404124915599823,0.5852000117301941,0.06159999966621399
1788164999987431200,5.09443115234375,-0.5406500101089478,0.6169624924659729,0.02983750030398369
1788164999997519600,5.10451953125,-0.9315624833106995,0.23333749175071716,-0.08249999582767487
1788165000007611100,5.114611083984375,-1.3677124977111816,0.05623750016093254,-0.07026249915361404
1788165000027788800,5.134788818359375,-1.4702874422073364,0.49114999175071716,0.15578749775886536
1788165000037873200,5.144873046875,-1.566812515258789,0.7404375076293945,0.15207499265670776
1788165000047970300,5.15497021484375,-1.7000499963760376,0.9395374655723572,0.10807500034570694
1788165000058057700,5.1650576171875,-1.615625023841858,1.251112461090088,0.03355000168085098
1788165000068149000,5.17514892578125,-1.217424988746643,1.6457375288009644,-0.0494999997317791
1788165000078236200,5.185236083984375,-0.9425625205039978,1.7630250453948975,-0.20473749935626984
1788165000088334300,5.195334228515625,-1.1171875,1.3536875247955322,-0.469837486743927
1788165000098427000,5.205427001953125,-1.5960999727249146,0.5644375085830688,-0.705512523651123
1788165000108526800,5.21552685546875,-1.695099949836731,-0.06599999964237213,-0.7605124711990356
1788165000118618600,5.22561865234375,-1.5485249757766724,-0.28091248869895935,-0.6909375190734863
1788165000128713700,5.235713623046875,-1.1807124614715576,-0.29809999465942383,-0.6029375195503235
1788165000158990000,5.265989990234375,-0.7739874720573425,0.09404999762773514,-0.29026249051094055
1788165000169088000,5.276087890625,-1.1673749685287476,-0.761062502861023,-0.2083124965429306
1788165000189270800,5.296270751953125,-0.7482749819755554,-2.4898500442504883,-0.35007500648498535
1788165000199359700,5.30635986328125,-0.7250375151634216,-2.2393250465393066,-0.3768875002861023
1788165000209453800,5.316453857421875,-0.9473749995231628,-1.6736500263214111,-0.3488374948501587
1788165000219545300,5.32654541015625,-0.9938499927520752,-1.1006875038146973,-0.22783750295639038
1788165000229650000,5.33664990234375,-0.767799973487854,-0.8355875015258789,-0.09955000132322311
1788165000239740700,5.34674072265625,-0.6517499685287476,-1.0261625051498413,0.053075000643730164
1788165000249825300,5.3568251953125,-0.513700008392334,-1.4440250396728516,0.2741749882698059
1788165000259926000,5.366926025390625,-0.11659999936819077,-1.3804999589920044,0.5906999707221985
1788165000270014500,5.377014404296875,0.18136249482631683,-0.7134875059127808,0.7825124859809875
1788165000290201600,5.39720166015625,-0.4587000012397766,0.520437479019165,0.42198750376701355
1788165000300295000,5.407294921875,-0.5101249814033508,0.7269625067710876,0.19731250405311584
1788165000310391600,5.4173916015625,-0.2595999836921692,0.9713000059127808,0.12031249701976776
1788165000320482000,5.42748193359375,0.2583625018596649,1.176587462425232,0.2498375028371811
1788165000330572500,5.437572509765625,0.6542249917984009,0.90048748254776,0.31212499737739563
1788165000391138300,5.49813818359375,1.4275250434875488,-0.25657498836517334,0.2241249978542328
1788165000401236000,5.508236083984375,1.1563750505447388,0.1979999989271164,0.3573625087738037
1788165000421416200,5.528416259765625,0.2523125112056732,0.9150624871253967,-0.13255000114440918
1788165000461773000,5.56877294921875,-0.40988749265670776,-0.5814874768257141,0.8373749852180481
1788165000481955800,5.588955810546875,-0.27665001153945923,-1.3304499387741089,1.4214749336242676
1788165000512239000,5.619239013671875,-0.11659999936819077,-1.6835500001907349,0.915612518787384
1788165000522323700,5.62932373046875,0.23512500524520874,-1.5112625360488892,0.8435624837875366
1788165000532417000,5.6394169921875,0.12773749232292175,-1.2046375274658203,0.6847500205039978
1788165000542514200,5.64951416015625,-0.27665001153945923,-1.2339249849319458,0.36465001106262207
1788165000552606000,5.65960595703125,-0.5944125056266785,-1.5918375253677368,0.03478749841451645
1788165000562696000,5.669696044921875,-0.767799973487854,-2.1000375747680664,-0.40136250853538513
1788165000572785200,5.67978515625,-0.7495124936103821,-2.18322491645813,-0.5357000231742859
1788165000582877700,5.689877685546875,-0.8460375070571899,-2.104987382888794,-0.09721250087022781
1788165000603068000,5.71006787109375,-0.5821750164031982,-2.4030873775482178,1.1734249591827393
1788165000613160700,5.72016064453125,-0.7299875020980835,-3.296149969100952,1.7183375358581543
1788165000623263200,5.73026318359375,-0.890037477016449,-4.206262588500977,1.9247249364852905
1788165000693910300,5.80091015625,-0.6309875249862671,-2.6107125282287598,1.7549124956130981
1788165000714097700,5.82109765625,0.19002500176429749,-1.442787528038025,-0.048262499272823334
1788165000724196900,5.83119677734375,0.5894625186920166,-0.3628624975681305,-0.8802750110626221
1788165000734286000,5.8412861328125,0.9670374989509583,0.4263874888420105,-1.0696125030517578
1788165000744374800,5.851374755859375,1.146612524986267,0.46309998631477356,-0.7727500200271606
1788165000754468900,5.86146875,1.1576124429702759,0.25905001163482666,-0.5711749792098999
1788165000764573200,5.8715732421875,1.2223750352859497,0.40562498569488525,-0.613937497138977
1788165000774669300,5.88166943359375,1.2431374788284302,0.9737749695777893,-0.7409874796867371
1788165000784766000,5.891765869140625,1.012137532234192,1.6542625427246094,-0.9095624685287476
1788165000794866400,5.901866455078125,0.3255999982357025,2.1819875240325928,-0.951087474822998
1788165000815063000,5.92206298828125,-1.878387451171875,2.538800001144409,-0.2377374917268753
1788165000825155600,5.932155517578125,-2.7189249992370605,3.2216250896453857,-0.1264999955892563
1788165000835251500,5.94225146484375,-2.997499942779541,3.6529624462127686,-0.007974999956786633
1788165000845346600,5.9523466796875,-2.876499891281128,3.5441999435424805,-0.10326249897480011
1788165000855436800,5.962436767578125,-2.7592124938964844,3.2851500511169434,-0.3683624863624573
1788165000865535200,5.97253515625,-2.8374500274658203,2.967525005340576,-0.4721750020980835
1788165000875627800,5.982627685546875,-2.6663999557495117,2.2222750186920166,-0.7189875245094299
1788165000885719800,5.9927197265625,-2.466062545776367,1.285212516784668,-0.9072250127792358
1788165000895809800,6.002809814453125,-2.4563000202178955,0.5021499991416931,-0.6567000150680542
1788165000915991800,6.02299169921875,-2.315774917602539,-0.5656750202178955,-0.006737499963492155
1788165000926090800,6.0330908203125,-2.0922000408172607,-0.4324375092983246,-0.3647874891757965
1788165000936176400,6.04317626953125,-2.110487461090088,0.48138749599456787,-1.055037498474121
1788165000946273500,6.0532734375,-2.356062412261963,1.9034124612808228,-1.5107125043869019
1788165000956368000,6.063367919921875,-2.1862499713897705,2.519137382507324,-1.662237524986267
1788165000966460400,6.07346044921875,-1.6658124923706055,1.997462511062622,-1.4471875429153442
1788165000976548400,6.08354833984375,-1.0073250532150269,1.4086874723434448,-0.854699969291687
1788165000986640100,6.09364013671875,-0.4599374830722809,0.8430125117301941,-0.22550000250339508
1788165000996720400,6.103720458984375,-0.2718375027179718,0.7097749710083008,0.20212499797344208
1788165001006810400,6.113810302734375,-0.17778749763965607,0.5706250071525574,0.10078749805688858
1788165001016895500,6.1238955078125,0.0775500014424324,0.7000125050544739,-0.21931250393390656
1788165001026980000,6.13397998046875,0.09955000132322311,0.8905875086784363,-0.6237000226974487
1788165001047156200,6.15415625,-0.08002500236034393,0.23086249828338623,-1.008562445640564
1788165001057238500,6.164238525390625,-0.0873124971985817,-0.45938751101493835,-0.8338000178337097
1788165001067329800,6.174329833984375,-0.036024998873472214,-0.8771125078201294,-0.6542249917984009
1788165001097591800,6.204591796875,-0.058024998754262924,-0.5692499876022339,0.15936249494552612
1788165001117768200,6.224768310546875,0.141075000166893,-0.4386250078678131,0.3499374985694885
1788165001127864300,6.2348642578125,0.34264999628067017,-0.5692499876022339,0.40741249918937683
1788165001137950500,6.244950439453125,0.5246999859809875,-1.015162467956543,0.3683624863624573
1788165001148048100,6.255048095703125,0.7140374779701233,-1.596787452697754,0.28888750076293945
1788165001158143200,6.265143310546875,0.9058499932289124,-1.9399875402450562,0.3096500039100647
1788165001168233000,6.27523291015625,0.9853249788284302,-1.859412431716919,0.3817000091075897
1788165001178327600,6.28532763671875,1.017087459564209,-1.902174949645996,0.34869998693466187
1788165001188417300,6.295417236328125,1.0769000053405762,-1.9474124908447266,0.25712499022483826
1788165001198514400,6.305514404296875,1.1941875219345093,-1.351212501525879,0.3891249895095825
1788165001208615200,6.315615234375,1.0976624488830566,-0.6524375081062317,0.4965125024318695
1788165001218708700,6.325708740234375,0.9693750143051147,-0.22714999318122864,0.4624125063419342
1788165001228805600,6.3358056640625,0.9351375102996826,-0.25891250371932983,0.28036248683929443
1788165001238896000,6.345896240234375,0.8595125079154968,-0.6755374670028687,0.05926249921321869
1788165001248992300,6.3559921875,0.7470374703407288,-0.9308750033378601,-0.09350000321865082
1788165001259084500,6.36608447265625,0.6065124869346619,-1.027400016784668,-0.2059749960899353
1788165001269180200,6.37618017578125,0.3891249895095825,-1.3439249992370605,-0.34402498602867126
1788165001279268000,6.38626806640625,0.1765500009059906,-1.3927375078201294,-0.31831249594688416
1788165001289360000,6.39635986328125,-0.060499999672174454,-0.8038250207901001,-0.11921250075101852
1788165001299455000,6.406455078125,-0.12155000120401382,-0.05376249924302101,-0.07644999772310257
1788165001309552000,6.41655224609375,-0.09721250087022781,0.4544374942779541,-0.06668750196695328
1788165001329741300,6.4367412109375,-0.023787500336766243,0.1979999989271164,0.07631249725818634
1788165001349910300,6.45691015625,0.06902500241994858,-0.5424374938011169,0.1288374960422516
1788165001359992800,6.466992919921875,0.12031249701976776,-0.6609625220298767,0.10436250269412994
1788165001370090000,6.477090087890625,0.17902499437332153,-0.669487476348877,0.09102500230073929
1788165001380181800,6.487181640625,0.2083124965429306,-0.7317749857902527,0.13488750159740448
1788165001390273300,6.497273193359375,0.18012499809265137,-0.6096749901771545,0.1691250056028366
1788165001400359400,6.507359375,0.2730749845504761,-0.3396250009536743,0.3254624903202057
1788165001410456600,6.51745654296875,0.17902499437332153,-0.9395374655723572,0.25341248512268066
1788165001420539400,6.527539306640625,-0.0494999997317791,-1.1471624374389648,0.21188749372959137
1788165001430634000,6.537634033203125,-0.20954999327659607,-0.952875018119812,0.06159999966621399
1788165001440717000,6.547717041015625,-0.27912500500679016,-0.5852000117301941,-0.03849999979138374
1788165001450804500,6.557804443359375,-0.08249999582767487,0.09776250272989273,-0.1545500010251999
1788165001460894200,6.567894287109375,0.33783748745918274,-0.018287500366568565,-0.03726249933242798
1788165001470991000,6.5779912109375,0.46722498536109924,-0.0672374963760376,0.12278749793767929
1788165001481081600,6.58808154296875,0.358599990606308,0.3568125069141388,0.12388750165700912
1788165001491175200,6.598175048828125,0.2546499967575073,0.36162498593330383,0.08855000138282776
1788165001501259300,6.60825927734375,0.1691250056028366,0.09281250089406967,0.053075000643730164
1788165001511370500,6.61837060546875,0.08978749811649323,-0.3091000020503998,0.04207500070333481
1788165001531561500,6.6385615234375,-0.04221250116825104,-0.3371500074863434,0.0030249999836087227
1788165001541649200,6.648649169921875,-0.11797499656677246,-0.18081249296665192,0.0518375001847744
1788165001561835000,6.6688349609375,-0.05678749829530716,-0.34209999442100525,0.24488750100135803
1788165001571924700,6.6789248046875,-0.0775500014424324,0.24310000240802765,0.12636250257492065
1788165001582008300,6.68900830078125,-0.07273750007152557,0.7612000107765198,-0.016499999910593033
1788165001602196700,6.70919677734375,-0.06902500241994858,0.8149625062942505,-0.17902499437332153
1788165001612290600,6.71929052734375,-0.1190750002861023,0.5913875102996826,-0.18273749947547913
1788165001622385700,6.7293857421875,-0.1069749966263771,0.1942874938249588,-0.09350000321865082
1788165001632480800,6.739480712890625,-0.023787500336766243,-0.35667499899864197,0.06655000150203705
1788165001642581000,6.7495810546875,0.05555000156164169,-0.5362499952316284,0.15812499821186066
1788165001652672300,6.75967236328125,0.08855000138282776,-0.5351499915122986,0.15331250429153442
1788165001662765000,6.76976513671875,0.06173750013113022,-0.5424374938011169,0.1251250058412552
1788165001672856800,6.77985693359375,-0.015262499451637268,-0.6291999816894531,0.13255000114440918
1788165001682948600,6.789948486328125,0.007837500423192978,-0.6304374933242798,0.14836250245571136
1788165001693045800,6.800045654296875,0.053075000643730164,-0.47519999742507935,0.1093124970793724
1788165001703141600,6.8101416015625,0.09459999948740005,-0.44343748688697815,0.09955000132322311
1788165001713232000,6.82023193359375,0.0873124971985817,-0.3628624975681305,0.05431250110268593
1788165001723321000,6.830321044921875,0.06655000150203705,-0.2003374993801117,0.0005499999970197678
1788165001733408500,6.840408447265625,1.2687125205993652,-1.7531249523162842,0.18383750319480896
1788165001753605600,6.860605712890625,-0.5674625039100647,0.6219124794006348,-0.09597499668598175
1788165001763696400,6.8706962890625,-0.26455000042915344,1.0433499813079834,-0.07768750190734863
1788165001783880700,6.890880615234375,0.4221250116825104,-0.3763374984264374,0.13255000114440918
1788165001793971700,6.9009716796875,0.47946250438690186,-0.1722874939441681,0.022549999877810478
1788165001804070700,6.911070556640625,0.4624125063419342,0.26028749346733093,-0.06902500241994858
1788165001814163700,6.921163818359375,0.3096500039100647,0.7282000184059143,-0.1106875017285347
1788165001824264200,6.93126416015625,0.1447875052690506,1.1483999490737915,-0.10821250081062317
1788165001834349000,6.94134912109375,0.026262499392032623,1.3549250364303589,-0.07026249915361404
1788165001854540500,6.96154052734375,0.020075000822544098,0.29686251282691956,0.020075000822544098
1788165001864642800,6.971642822265625,0.10807500034570694,-0.2040500044822693,-0.011687500402331352
1788165001874729000,6.98172900390625,0.23512500524520874,-0.36410000920295715,-0.04592499881982803
1788165001884831500,6.99183154296875,0.3389374911785126,-0.28338751196861267,-0.06421250104904175
1788165001894923000,7.001923095703125,0.4049375057220459,-0.023237500339746475,-0.005499999970197678
1788165001905017000,7.01201708984375,0.3683624863624573,0.3115749955177307,0.031075000762939453
1788165001915096800,7.022096923828125,0.284074991941452,0.45333749055862427,0.07631249725818634
1788165001925198600,7.032198486328125,0.34759998321533203,0.3750999867916107,0.12759999930858612
1788165001935288300,7.042288330078125,0.27541249990463257,0.15633749961853027,0.19607499241828918
1788165001945377500,7.05237744140625,0.21559999883174896,-0.12099999934434891,0.16183750331401825
1788165001955470800,7.062470947265625,0.2681249976158142,0.20157499611377716,0.04936249926686287
1788165001965566700,7.072566650390625,0.24365000426769257,0.8368250131607056,-0.021449999883770943
1788165001975659300,7.0826591796875,0.14602500200271606,1.276687502861023,0.06159999966621399
1788165001985751300,7.092751220703125,0.03726249933242798,1.1593999862670898,0.09831249713897705
1788165001995845600,7.102845703125,-0.0494999997317791,0.8258249759674072,0.0775500014424324
1788165002005942300,7.1129423828125,-0.09102500230073929,0.5436750054359436,-0.017737500369548798
1788165002016031500,7.123031494140625,-0.11302500218153,0.42391249537467957,-0.10944999754428864
1788165002026125800,7.133125732421875,-0.08249999582767487,0.36781248450279236,-0.1839749962091446
1788165002036219100,7.14321923828125,-0.07878749817609787,0.2125750035047531,-0.20954999327659607
1788165002046309400,7.153309326171875,-0.15097500383853912,-0.14781250059604645,-0.1545500010251999
1788165002056391000,7.163390869140625,-0.4918375015258789,-1.1556874513626099,-0.010449999943375587
1788165002066483000,7.17348291015625,-0.907087504863739,-1.3144999742507935,-0.0752125009894371
1788165002076573400,7.183573486328125,-0.4343625009059906,-0.4641999900341034,-0.09968750178813934
1788165002086662700,7.19366259765625,-0.10326249897480011,0.3971000015735626,-0.07768750190734863
1788165002096744700,7.20374462890625,-0.05073750019073486,0.7684875130653381,-0.05073750019073486
1788165002106834000,7.213833984375,-0.06421250104904175,0.8027250170707703,-0.03616249933838844
1788165002116918300,7.223918212890625,-0.15702499449253082,0.634149968624115,-0.0471624992787838
1788165002127001300,7.23400146484375,-0.3548874855041504,0.2320999950170517,-0.025162499397993088
1788165002137088000,7.244087890625,-0.47093749046325684,-0.11481250077486038,-0.005499999970197678
1788165002147172900,7.2541728515625,-0.4501749873161316,-0.08552499860525131,-0.09226249903440475
1788165002157259500,7.264259521484375,-0.3708375096321106,0.13557499647140503,-0.16431249678134918
1788165002167336200,7.274336181640625,-0.26936250925064087,-0.14904999732971191,-0.017737500369548798
1788165002177418800,7.284418701171875,-0.23883749544620514,-0.739062488079071,0.17641249299049377
1788165002187514000,7.29451416015625,-0.17297500371932983,-1.1459250450134277,0.28036248683929443
1788165002197599700,7.304599853515625,-0.0019249999895691872,-1.2436875104904175,0.28036248683929443
1788165002207693300,7.314693359375,0.31088748574256897,-1.189924955368042,0.2827000021934509
1788165002217783800,7.32478369140625,0.5722749829292297,-1.1301125288009644,0.2937000095844269
1788165002227877400,7.33487744140625,0.6762250065803528,-1.1752125024795532,0.30841249227523804
1788165002237951700,7.34495166015625,0.6895624995231628,-1.2376375198364258,0.27665001153945923
1788165002248057000,7.35505712890625,0.6272749900817871,-1.268162488937378,0.24117499589920044
1788165002258152400,7.36515234375,0.4965125024318695,-1.1434500217437744,0.172837495803833
1788165002268243700,7.37524365234375,0.3133625090122223,-0.8575875163078308,0.08978749811649323
1788165002278335500,7.38533544921875,0.060362499207258224,-0.39586248993873596,0.007837500423192978
1788165002288426000,7.395426025390625,-0.0752125009894371,0.06104999780654907,-0.03849999979138374
1788165002298519300,7.405519287109375,-0.13021250069141388,0.29081249237060547,-0.043449997901916504
1788165002308610300,7.4156103515625,-0.08002500236034393,0.2638624906539917,-0.04592499881982803
1788165002318710300,7.425710205078125,0.02502499893307686,0.17599999904632568,-0.07273750007152557
1788165002328801800,7.4358017578125,0.1251250058412552,-0.07933750003576279,-0.08621250092983246
1788165002338903300,7.4459033203125,0.4281750023365021,-1.3792624473571777,0.14464999735355377
1788165002349000200,7.456000244140625,0.5442249774932861,-1.9949874877929688,0.17036250233650208
1788165002359098600,7.4660986328125,0.3011249899864197,-1.4342625141143799,0.038362499326467514
1788165002369196300,7.4761962890625,0.27665001153945923,-0.6975374817848206,-0.0031624999828636646
1788165002379289900,7.486289794921875,0.2681249976158142,-0.13557499647140503,-0.0019249999895691872
1788165002389375200,7.496375244140625,0.1447875052690506,0.17476250231266022,0.020075000822544098
1788165002399470800,7.506470947265625,0.020075000822544098,0.3053874969482422,0.03726249933242798
1788165002409555700,7.5165556640625,-0.023924998939037323,0.3188624978065491,0.0518375001847744
1788165002419648000,7.52664794921875,-0.09473749995231628,0.09404999762773514,0.10188750177621841
1788165002429733000,7.536733154296875,-0.11797499656677246,-0.4618625044822693,0.10312499850988388
1788165002439822600,7.546822509765625,-0.007974999956786633,-0.5582500100135803,0.04936249926686287
1788165002449908200,7.556908203125,0.05555000156164169,-0.37386250495910645,0.03231250122189522
1788165002460042200,7.567042236328125,0.0494999997317791,-0.18933749198913574,0.04936249926686287
1788165002470129200,7.577129150390625,0.021312499418854713,-0.20281249284744263,0.10436250269412994
1788165002480228400,7.587228271484375,-0.04468749836087227,-0.32257500290870667,0.1568875014781952
1788165002490312700,7.597312744140625,-0.055687498301267624,-0.41909998655319214,0.16307500004768372
1788165002500399600,7.607399658203125,-0.04592499881982803,-0.28833749890327454,0.06655000150203705
1788165002510484500,7.617484375,-0.09955000132322311,-0.12581250071525574,0.006599999964237213
1788165002520577300,7.627577392578125,-0.09350000321865082,-0.3554374873638153,0.04936249926686287
1788165002530667800,7.637667724609375,-0.04468749836087227,-0.29438748955726624,0.06407500058412552
1788165002540759300,7.64775927734375,-0.021449999883770943,-0.11481250077486038,0.04207500070333481
1788165002550844400,7.657844482421875,-0.009212499484419823,-0.13433749973773956,0.031075000762939453
1788165002560935400,7.667935302734375,0.04455000162124634,-0.14657500386238098,0.015262499451637268
1788165002571023000,7.678023193359375,0.07507500052452087,-0.1527625024318695,-0.0019249999895691872
1788165002581127200,7.688127197265625,0.08855000138282776,-0.2358125001192093,0.0005499999970197678
1788165002591220700,7.698220703125,0.1093124970793724,-0.33838748931884766,0.02983750030398369
1788165002601305900,7.708305908203125,0.13255000114440918,-0.404387503862381,0.07383749634027481
1788165002621485000,7.728485107421875,0.28283751010894775,-0.7562500238418579,0.14464999735355377
1788165002631580000,7.738579833984375,0.4012250006198883,-0.6987749934196472,0.1508374959230423
1788165002641673500,7.748673583984375,0.40012499690055847,-0.5619624853134155,0.1313125044107437
1788165002651758600,7.758758544921875,0.2644124925136566,-0.43738749623298645,0.07878749817609787
1788165002661847300,7.768847412109375,0.09955000132322311,-0.3053874969482422,0.03478749841451645
1788165002671945200,7.7789453125,0.036024998873472214,-0.22481249272823334,0.040837500244379044
1788165002682053000,7.78905322265625,0.036024998873472214,-0.3053874969482422,0.07012499868869781
1788165002692139800,7.799139892578125,0.031075000762939453,-0.4629625082015991,0.08978749811649323
1788165002702234600,7.809234619140625,0.0518375001847744,-0.6450124979019165,0.1288374960422516
1788165002722420200,7.829420166015625,0.3316499888896942,-0.8980125188827515,0.2143625020980835
1788165002732516400,7.839516357421875,0.43546250462532043,-0.878350019454956,0.13488750159740448
1788165002742608400,7.8496083984375,0.5295125246047974,-0.9553499817848206,0.050599999725818634
1788165002752707300,7.859707275390625,0.8166124820709229,-0.6987749934196472,-0.017737500369548798
1788165002762800400,7.86980029296875,1.1636625528335571,-0.14904999732971191,0.05555000156164169
1788165002772899800,7.87989990234375,0.3951750099658966,-0.3139125108718872,0.21188749372959137
1788165002782990600,7.889990478515625,-0.22302499413490295,-0.18081249296665192,0.19607499241828918
1788165002793080000,7.900080078125,-0.3806000053882599,-0.032999999821186066,0.1691250056028366
1788165002803167200,7.910167236328125,-0.32436248660087585,0.054999999701976776,0.12155000120401382
1788165002813258500,7.920258544921875,-0.19249999523162842,0.03671250119805336,0.02983750030398369
1788165002823341800,7.930341796875,-0.010449999943375587,0.10147500038146973,-0.03849999979138374
1788165002833429000,7.940428955078125,0.08002500236034393,0.24928750097751617,-0.011687500402331352
1788165002843522300,7.950522216796875,-0.026262499392032623,0.3946250081062317,0.028599999845027924
1788165002853611500,7.960611572265625,-0.08002500236034393,0.5669124722480774,0.020075000822544098
1788165002863701200,7.970701171875,-0.09597499668598175,0.5436750054359436,0.016362499445676804
1788165002873791700,7.980791748046875,-0.116737499833107,0.329862505197525,-0.011687500402331352
1788165002883883500,7.990883544921875,-0.15344999730587006,-0.037812501192092896,-0.016499999910593033
1788165002893980000,8.00097998046875,-0.1289750039577484,-0.18562500178813934,-0.04097500070929527
1788165002904071700,8.01107177734375,-0.05926249921321869,-0.4398624897003174,0.010312499478459358
1788165002914159900,8.021159912109376,0.06159999966621399,-0.7732999920845032,0.14231249690055847
1788165002924266000,8.031265869140626,0.1568875014781952,-0.8930624723434448,0.24117499589920044
1788165002934355500,8.04135546875,0.13612499833106995,-0.8991125226020813,0.25341248512268066
1788165002944442400,8.0514423828125,0.13255000114440918,-0.7037249803543091,0.141075000166893
1788165002954543000,8.061543212890625,0.10807500034570694,-0.19786250591278076,-0.05073750019073486
1788165002964638200,8.07163818359375,0.09102500230073929,0.29438748955726624,-0.21449999511241913
1788165002974749400,8.08174951171875,0.1313125044107437,0.5522000193595886,-0.2780250012874603
1788165002984842200,8.09184228515625,0.19359999895095825,0.6059625148773193,-0.2083124965429306
1788165002994945000,8.101945068359376,0.23141250014305115,0.6646749973297119,-0.07768750190734863
1788165003005034500,8.112034423828124,0.2901250123977661,0.7415375113487244,0.02502499893307686
1788165003015133200,8.12213330078125,0.4342249929904938,0.6964374780654907,0.11783749610185623
1788165003025217300,8.13221728515625,0.5454624891281128,0.6670125126838684,0.13612499833106995
1788165003035322600,8.142322509765625,0.49293750524520874,0.7452499866485596,0.06407500058412552
1788165003045414000,8.152413818359374,0.42570000886917114,0.8772500157356262,-0.06916250288486481
1788165003055507700,8.1625078125,0.35241249203681946,0.7012500166893005,-0.16554999351501465
1788165003065598000,8.172597900390626,0.3731749951839447,0.5484874844551086,-0.22302499413490295
1788165003075693300,8.182693359375,0.40369999408721924,0.5644375085830688,-0.259737491607666
1788165003085784000,8.1927841796875,0.39765000343322754,0.5069624781608582,-0.2303124964237213
1788165003095884800,8.202884765625,0.3231250047683716,0.4203374981880188,-0.19497500360012054
1788165003105976300,8.212976318359376,0.20336249470710754,0.4141499996185303,-0.2217874974012375
1788165003116073700,8.22307373046875,0.16183750331401825,0.44343748688697815,-0.29026249051094055
1788165003126170600,8.233170654296876,0.19965000450611115,0.515625,-0.35983750224113464
1788165003136258600,8.243258544921876,0.2583625018596649,0.5179625153541565,-0.3513124883174896
1788165003146358000,8.25335791015625,0.20583750307559967,0.38362500071525574,-0.2915000021457672
1788165003156450300,8.2634501953125,0.14836250245571136,0.3128125071525574,-0.2535499930381775
1788165003166534700,8.27353466796875,0.17159999907016754,0.340862512588501,-0.21449999511241913
1788165003176623400,8.283623291015624,0.3988874852657318,0.2761000096797943,-0.15578749775886536
1788165003186712800,8.293712890625,0.566224992275238,0.22728750109672546,-0.1106875017285347
1788165003196797000,8.303796875,0.37798750400543213,-0.06476250290870667,-0.048262499272823334
1788165003206892000,8.31389208984375,0.12388750165700912,-0.10876250267028809,-0.0031624999828636646
1788165003216985900,8.32398583984375,0.010312499478459358,0.15633749961853027,0.06407500058412552
1788165003227072500,8.334072509765624,0.036024998873472214,0.5216749906539917,0.10436250269412994
1788165003237163000,8.3441630859375,0.4721750020980835,0.8955374956130981,0.1190750002861023
1788165003247246800,8.354246826171876,0.632224977016449,0.7830625176429749,0.22288750112056732
1788165003257341200,8.364341064453125,0.3353624939918518,-0.32862499356269836,0.3096500039100647
1788165003267429000,8.37442919921875,0.3059374988079071,-0.8478249907493591,0.29493749141693115
1788165003277522400,8.3845224609375,0.08236250281333923,-0.9028249979019165,0.2974124848842621
1788165003287624400,8.39462451171875,-0.12526249885559082,-0.6609625220298767,0.28517499566078186
1788165003297719800,8.4047197265625,-0.27073749899864197,-0.22481249272823334,0.20212499797344208
1788165003307799800,8.4147998046875,-0.2817375063896179,0.1050499975681305,0.09088750183582306
1788165003317890000,8.42489013671875,-0.17778749763965607,0.329862505197525,-0.005499999970197678
1788165003327975700,8.4349755859375,-0.09226249903440475,0.476437509059906,-0.020212499424815178
1788165003338073600,8.445073486328125,-0.021449999883770943,0.3983374834060669,0.009074999950826168
1788165003348153300,8.4551533203125,0.036024998873472214,0.17586250603199005,0.07878749817609787
1788165003358269700,8.465269775390626,0.13007499277591705,0.03423750028014183,0.13007499277591705
1788165003368353500,8.475353515625,0.16183750331401825,-0.018287500366568565,0.11288750171661377
1788165003378439200,8.485439208984374,0.09831249713897705,0.0037124999798834324,0.01759999990463257
1788165003388525800,8.49552587890625,0.08002500236034393,0.023237500339746475,-0.04468749836087227
1788165003398626300,8.505626220703125,0.10807500034570694,0.10999999940395355,-0.05926249921321869
1788165003408720000,8.515719970703126,0.02983750030398369,0.20281249284744263,-0.007974999956786633
1788165003418812700,8.525812744140625,-0.05926249921321869,0.2516250014305115,0.01759999990463257
1788165003428899300,8.5358994140625,-0.07397499680519104,0.17833749949932098,0.0042624999769032
1788165003438995700,8.54599560546875,-0.04592499881982803,0.1551000028848648,0.009074999950826168
1788165003449085000,8.5560849609375,0.04936249926686287,0.14176249504089355,0.04702499881386757
1788165003459172400,8.56617236328125,0.08002500236034393,0.10381250083446503,0.03231250122189522
1788165003469266400,8.576266357421876,0.0835999995470047,0.12828749418258667,0.01759999990463257
1788165003479365000,8.586365234375,0.06283749639987946,0.22110000252723694,-0.014162499457597733
1788165003489455600,8.59645556640625,0.015262499451637268,0.2723875045776367,-0.04097500070929527
1788165003499552500,8.606552490234375,0.16664999723434448,0.15757499635219574,-0.018975000828504562
1788165003509639200,8.61663916015625,0.1863124966621399,0.02199999988079071,0.03959999978542328
1788165003519733000,8.62673291015625,0.14464999735355377,0.02681249938905239,0.12636250257492065
1788165003529835500,8.63683544921875,0.07507500052452087,0.14176249504089355,0.27293750643730164
1788165003539926800,8.6469267578125,0.018837500363588333,0.14300000667572021,0.31212499737739563
1788165003550011100,8.65701123046875,-0.06668750196695328,-0.02199999988079071,0.21559999883174896
1788165003560097500,8.66709765625,-0.25107499957084656,-0.09404999762773514,0.03478749841451645
1788165003570193400,8.677193359375,-0.16073749959468842,-0.02928750030696392,-0.09597499668598175
1788165003580282600,8.68728271484375,0.020075000822544098,0.11123749613761902,-0.028737500309944153
1788165003590374000,8.697373779296875,0.17159999907016754,0.1625249981880188,0.1313125044107437
1788165003600465200,8.707465087890625,0.26083749532699585,0.19552500545978546,0.4184125065803528
1788165003610551000,8.717551025390625,0.6333249807357788,-0.00494999997317791,0.7543249726295471
1788165003620643800,8.727643798828124,0.8190875053405762,-0.24062499403953552,0.9473749995231628
1788165003630735000,8.737735107421875,0.867900013923645,-0.3665750026702881,0.8996624946594238
1788165003640826600,8.74782666015625,0.7385125160217285,-0.21752500534057617,0.6737499833106995
1788165003650914000,8.7579140625,0.5869874954223633,0.11852499842643738,0.3634124994277954
1788165003661003800,8.768003662109376,0.22659999132156372,0.3176249861717224,-0.06297499686479568
1788165003671100400,8.778100341796875,-0.2523125112056732,0.44343748688697815,-0.5064125061035156
1788165003681183000,8.788182861328124,-0.7251750230789185,0.23952500522136688,-0.8742250204086304
1788165003691287300,8.798287353515626,-0.9597499966621399,0.0952875018119812,-1.0696125030517578
1788165003701381600,8.808381591796875,-1.0025124549865723,0.19304999709129333,-0.8864625096321106
1788165003711472400,8.818472412109376,-0.9022749662399292,0.41538751125335693,-0.35983750224113464
1788165003721567500,8.8285673828125,-0.7666999697685242,0.07081250101327896,0.16541250050067902
1788165003731662000,8.838662109375,-0.2853125035762787,1.0176374912261963,0.17641249299049377
1788165003741751800,8.848751708984375,-0.11302500218153,3.2815749645233154,-0.34031251072883606
1788165003751840000,8.858840087890625,-0.5798375010490417,4.037687301635742,-0.22673749923706055
1788165003761931500,8.868931640625,-0.609125018119812,3.3426249027252197,-0.11426249891519547
1788165003772028200,8.879028076171876,-0.22673749923706055,2.5801875591278076,-0.2157374918460846
1788165003782129400,8.88912939453125,0.023787500336766243,1.70912504196167,-0.31459999084472656
1788165003792219400,8.899219482421875,-0.06668750196695328,0.5363875031471252,-0.35983750224113464
1788165003802309400,8.909309326171876,-0.1350249946117401,-0.9162999987602234,-0.36602500081062317
1788165003812402000,8.91940185546875,-0.10092499852180481,-2.2515625953674316,-0.3830749988555908
1788165003822494200,8.929494140625,-0.029975000768899918,-2.899049997329712,-0.3940750062465668
1788165003832597800,8.93959765625,-0.007974999956786633,-2.7916624546051025,-0.4246000051498413
1788165003842688300,8.949688232421876,0.0042624999769032,-2.33956241607666,-0.5834124684333801
1788165003852776400,8.9597763671875,0.038362499326467514,-1.7604124546051025,-0.771512508392334
1788165003862857700,8.969857666015624,0.02736249938607216,-1.110587477684021,-0.7006999850273132
1788165003872956000,8.979955810546874,-0.005499999970197678,-0.4838624894618988,-0.4636499881744385
1788165003883049700,8.9900498046875,-0.04097500070929527,-0.35062500834465027,-0.30483749508857727
1788165003893165000,9.0001650390625,-0.07768750190734863,-0.12333749979734421,-0.011687500402331352
1788165003903256000,9.010256103515625,-0.11797499656677246,0.02681249938905239,0.1471250057220459
1788165003913350000,9.020349853515626,-0.14973749220371246,0.12333749979734421,0.14464999735355377
1788165003923443200,9.030443115234375,-0.15578749775886536,0.12828749418258667,0.03231250122189522
1788165003933532400,9.040532470703125,-0.14726249873638153,0.042762499302625656,-0.11302500218153
1788165003943623200,9.050623046875,-0.1264999955892563,-0.08304999768733978,-0.21326249837875366
1788165003953716000,9.060716064453125,-0.1106875017285347,-0.1966249942779541,-0.2437874972820282
1788165003963802600,9.070802734375,-0.09721250087022781,-0.23938749730587006,-0.21449999511241913
1788165003973894400,9.080894287109375,-0.08249999582767487,-0.20281249284744263,-0.16197499632835388
1788165003983986400,9.090986328125,-0.055687498301267624,-0.12581250071525574,-0.116737499833107
1788165003994081300,9.101081298828126,-0.025162499397993088,-0.07576250284910202,-0.08621250092983246
1788165004004167000,9.1111669921875,-0.0031624999828636646,-0.07452499866485596,-0.07273750007152557
1788165004014262000,9.121261962890625,-0.0019249999895691872,-0.07081250101327896,-0.07150000333786011
1788165004024347000,9.131346923828126,-0.014162499457597733,-0.0635249987244606,-0.0789249986410141
1788165004034446000,9.141446044921874,-0.017737500369548798,-0.03671250119805336,-0.08249999582767487
1788165004044546800,9.151546875,-0.0031624999828636646,0.010999999940395355,-0.09226249903440475
1788165004054643700,9.161643798828125,0.021312499418854713,0.06599999964237213,-0.10573749989271164
1788165004064744200,9.171744140625,0.04207500070333481,0.07081250101327896,-0.11192499846220016
1788165004074834700,9.181834716796875,0.04455000162124634,0.02199999988079071,-0.11426249891519547
1788165004084932000,9.19193212890625,0.040837500244379044,-0.02199999988079071,-0.10821250081062317
1788165004095028500,9.202028564453125,0.03231250122189522,-0.06228749826550484,-0.08621250092983246
1788165004105123000,9.212123046875,0.03355000168085098,-0.08428750187158585,-0.055687498301267624
1788165004115219200,9.22221923828125,0.053075000643730164,-0.07328750193119049,-0.03492499887943268
1788165004125318000,9.23231787109375,0.08607500046491623,-0.02681249938905239,-0.022687500342726707
1788165004135413000,9.2424130859375,0.11288750171661377,0.010999999940395355,-0.018975000828504562
1788165004145503200,9.252503173828124,0.1153625026345253,0.01347499992698431,-0.018975000828504562
1788165004155598300,9.262598388671876,0.10188750177621841,-0.0012374999932944775,-0.004399999976158142
1788165004165687800,9.272687744140624,0.08978749811649323,-0.018287500366568565,0.016362499445676804
1788165004175778800,9.28277880859375,0.08483749628067017,-0.00976249948143959,0.03712499886751175
1788165004185875200,9.292875244140625,0.08978749811649323,0.032999999821186066,0.045787498354911804
1788165004195980800,9.302980712890625,0.1093124970793724,0.08799999952316284,0.053075000643730164
1788165004206079200,9.313079345703125,0.12759999930858612,0.10999999940395355,0.06159999966621399
1788165004216171800,9.323171875,0.13007499277591705,0.09776250272989273,0.060362499207258224
1788165004226264600,9.3332646484375,0.12264999747276306,0.07328750193119049,0.060362499207258224
1788165004236346600,9.3433466796875,0.1116499975323677,0.030524998903274536,0.06655000150203705
1788165004246436000,9.35343603515625,0.10436250269412994,0.0170499999076128,0.06888750195503235
1788165004256525800,9.36352587890625,0.10807500034570694,0.05128749832510948,0.07136250287294388
1788165004266620200,9.3736201171875,0.1153625026345253,0.07823749631643295,0.07259999960660934
1788165004276700000,9.383699951171875,0.11783749610185623,0.07204999774694443,0.07383749634027481
1788165004286783200,9.393783203125,0.1116499975323677,0.047712501138448715,0.0775500014424324
1788165004296871400,9.403871337890624,0.10188750177621841,0.025712499395012856,0.08112499862909317
1788165004306964200,9.413964111328125,0.09088750183582306,-0.006049999967217445,0.08236250281333923
1788165004317046500,9.424046630859374,0.09088750183582306,-0.00976249948143959,0.07012499868869781
1788165004327135700,9.4341357421875,0.08978749811649323,0.0170499999076128,0.05431250110268593
1788165004337220000,9.44422021484375,0.08978749811649323,0.042762499302625656,0.03712499886751175
1788165004347310600,9.454310546875,0.08607500046491623,0.037812501192092896,0.02736249938607216
1788165004357393700,9.4643935546875,0.0775500014424324,0.0170499999076128,0.026124998927116394
1788165004367497200,9.474497314453124,0.06159999966621399,-0.00494999997317791,0.03712499886751175
1788165004377590300,9.48459033203125,0.03712499886751175,-0.045237500220537186,0.048124998807907104
1788165004387680500,9.494680419921876,0.021312499418854713,-0.04647500067949295,0.04936249926686287
1788165004397774800,9.50477490234375,0.009074999950826168,-0.0012374999932944775,0.03712499886751175
1788165004407906300,9.51490625,-0.009212499484419823,0.04028749838471413,0.021312499418854713
1788165004418004500,9.52500439453125,-0.03368749842047691,0.05376249924302101,0.012787500396370888
1788165004428105000,9.53510498046875,-0.05816249921917915,0.0635249987244606,0.016362499445676804
1788165004438206000,9.5452060546875,-0.07768750190734863,0.09157499670982361,0.031075000762939453
1788165004448295400,9.55529541015625,-0.09350000321865082,0.10381250083446503,0.053075000643730164
1788165004458386400,9.565386474609374,-0.09968750178813934,0.12333749979734421,0.06531249731779099
1788165004468476700,9.5754765625,-0.09102500230073929,0.14533749222755432,0.06888750195503235
1788165004478572800,9.58557275390625,-0.0789249986410141,0.15633749961853027,0.05678749829530716
1788165004488663600,9.59566357421875,-0.06173750013113022,0.12223749607801437,0.04702499881386757
1788165004498760200,9.60576025390625,-0.0471624992787838,0.047712501138448715,0.04207500070333481
1788165004508854300,9.615854248046874,-0.03739999979734421,-0.02928750030696392,0.04331250116229057
1788165004518945500,9.625945556640625,-0.028737500309944153,-0.09652499854564667,0.04455000162124634
1788165004529036800,9.636036865234376,-0.012924999929964542,-0.11852499842643738,0.040837500244379044
1788165004539131000,9.646130859375,0.012787500396370888,-0.08923749625682831,0.028599999845027924
1788165004549222400,9.656222412109376,0.03712499886751175,-0.030524998903274536,0.014024999924004078
1788165004559317800,9.66631787109375,0.04936249926686287,0.00494999997317791,-0.0006874999962747097
1788165004569403600,9.676403564453125,0.04936249926686287,-0.0085249999538064,-0.004399999976158142
1788165004579501000,9.6865009765625,0.038362499326467514,-0.05376249924302101,0.018837500363588333
1788165004589599500,9.696599609375,0.018837500363588333,-0.11481250077486038,0.050599999725818634
1788165004599694600,9.706694580078125,0.011549999937415123,-0.14300000667572021,0.05912499874830246
1788165004609785300,9.716785400390625,0.016362499445676804,-0.10628750175237656,0.03712499886751175
1788165004619872800,9.726872802734375,0.02736249938607216,-0.030524998903274536,-0.011687500402331352
1788165004629964300,9.73696435546875,0.03231250122189522,0.02447500079870224,-0.055687498301267624
1788165004640057900,9.747057861328125,0.040837500244379044,0.0317624993622303,-0.055687498301267624
1788165004650153500,9.757153564453125,0.031075000762939453,0.0170499999076128,-0.010449999943375587
1788165004660253400,9.76725341796875,0.005362499970942736,-0.015812499448657036,0.023787500336766243
1788165004670347800,9.77734765625,-0.0019249999895691872,-0.023237500339746475,0.015262499451637268
1788165004680443000,9.78744287109375,0.006599999964237213,0.0037124999798834324,-0.018975000828504562
1788165004690538000,9.7975380859375,0.009074999950826168,0.0317624993622303,-0.05197500064969063
1788165004700643600,9.8076435546875,0.0030249999836087227,0.042762499302625656,-0.06916250288486481
1788165004710738200,9.81773828125,-0.004399999976158142,0.02199999988079071,-0.05197500064969063
1788165004720841000,9.827841064453125,-0.021449999883770943,-0.0037124999798834324,-0.018975000828504562
1788165004730934800,9.837934814453124,-0.03849999979138374,-0.00494999997317791,-0.009212499484419823
1788165004741078500,9.84807861328125,-0.022687500342726707,0.08181250095367432,0.005362499970942736
1788165004751171000,9.858171142578126,-0.0031624999828636646,0.16005000472068787,0.020075000822544098
1788165004761259800,9.868259765625,0.015262499451637268,0.19676250219345093,0.021312499418854713
1788165004771345000,9.878344970703125,0.03726249933242798,0.15399999916553497,0.023787500336766243
1788165004781434400,9.888434326171875,0.01759999990463257,0.04881250113248825,0.028599999845027924
1788165004791526400,9.8985263671875,-0.006737499963492155,0.0012374999932944775,0.02736249938607216
1788165004801614800,9.90861474609375,-0.026399999856948853,-0.002474999986588955,0.036024998873472214
1788165004811711500,9.91871142578125,-0.027499999850988388,-0.00494999997317791,0.03231250122189522
1788165004821811000,9.92881103515625,-0.021449999883770943,-0.020762499421834946,0.014024999924004078
1788165004831904500,9.938904541015624,-0.027499999850988388,-0.05623750016093254,-0.018975000828504562
1788165004842004500,9.94900439453125,-0.018975000828504562,-0.015812499448657036,-0.03739999979734421
1788165004852106200,9.959106201171876,-0.025162499397993088,-0.010999999940395355,-0.023924998939037323
1788165004862209500,9.96920947265625,-0.04221250116825104,-0.02447500079870224,-0.010449999943375587
1788165004872308500,9.97930859375,-0.05926249921321869,-0.06599999964237213,-0.0031624999828636646
1788165004882410000,9.989409912109375,-0.05926249921321869,-0.05376249924302101,0.0017874999903142452
1788165004892509400,9.999509521484375,-0.06668750196695328,-0.02928750030696392,-0.0031624999828636646
1788165004902606300,10.0096064453125,-0.06668750196695328,0.02681249938905239,-0.027499999850988388
1788165004912702700,10.01970263671875,-0.05321250110864639,0.06228749826550484,-0.026399999856948853
1788165004922797300,10.02979736328125,-0.05073750019073486,0.02447500079870224,-0.03492499887943268
1788165004932895700,10.039895751953125,-0.05197500064969063,-0.006049999967217445,-0.07150000333786011
1788165004942993400,10.049993408203125,-0.05321250110864639,-0.00494999997317791,-0.0812624990940094
1788165004953083000,10.060082763671875,-0.07273750007152557,0.020762499421834946,-0.11921250075101852
1788165004963176000,10.070176025390625,-0.10078749805688858,0.01223750039935112,-0.1765500009059906
1788165004973272600,10.0802724609375,-0.1264999955892563,-0.05623750016093254,-0.1839749962091446
1788165004983363000,10.090363037109375,-0.164450004696846,-0.13557499647140503,-0.19497500360012054
1788165004993462300,10.100462158203126,-0.21697500348091125,-0.16609999537467957,-0.24502499401569366
1788165005003561200,10.110561279296874,-0.2572624981403351,-0.15633749961853027,-0.24873749911785126
1788165005013648100,10.120648193359376,-0.2755500078201294,-0.14409999549388885,-0.2400749921798706
1788165005023742700,10.13074267578125,-0.2817375063896179,-0.13805000483989716,-0.2890250086784363
1788165005033834000,10.140833984375,-0.2620750069618225,-0.10257499665021896,-0.3097875118255615
1788165005043935500,10.150935546875,-0.23526249825954437,-0.037812501192092896,-0.284074991941452
1788165005054022400,10.1610224609375,-0.20350000262260437,-0.010999999940395355,-0.2780250012874603
1788165005064120600,10.17112060546875,-0.1742125004529953,-0.01347499992698431,-0.2400749921798706
1788165005074214100,10.181214111328124,-0.1289750039577484,-0.018287500366568565,-0.12773749232292175
1788165005084308500,10.19130859375,-0.08621250092983246,-0.0635249987244606,-0.027499999850988388
1788165005094398200,10.201398193359376,-0.027499999850988388,-0.10628750175237656,0.06655000150203705
1788165005104494600,10.21149462890625,0.045787498354911804,-0.1588124930858612,0.1886499971151352
1788165005114585000,10.221585205078124,0.13255000114440918,-0.29081249237060547,0.24860000610351562
1788165005124685300,10.231685302734375,0.2498375028371811,-0.3823874890804291,0.24117499589920044
1788165005134783000,10.241782958984375,0.40741249918937683,-0.4031499922275543,0.18988749384880066
1788165005144879600,10.251879638671875,0.5735124945640564,-0.45086249709129333,0.03478749841451645
1788165005154962400,10.26196240234375,0.7372750043869019,-0.45567500591278076,-0.12168750166893005
1788165005165058800,10.272058837890626,0.9106624722480774,-0.4801499843597412,-0.1522125005722046
1788165005175151900,10.28215185546875,1.1061874628067017,-0.6010124683380127,-0.1522125005722046
1788165005185247500,10.29224755859375,1.2112375497817993,-0.8320124745368958,-0.1264999955892563
1788165005195336400,10.30233642578125,1.2515250444412231,-0.983537495136261,-0.0812624990940094
1788165005205436700,10.312436767578125,1.2760000228881836,-0.9345874786376953,-0.07026249915361404
1788165005215526000,10.32252587890625,1.1807124614715576,-0.6744375228881836,-0.043449997901916504
1788165005225618000,10.332617919921875,0.9974250197410583,-0.329862505197525,0.040837500244379044
1788165005235709700,10.342709716796875,0.84232497215271,-0.08428750187158585,0.09336250275373459
1788165005245812500,10.3528125,0.7360374927520752,0.09404999762773514,0.0798875018954277
1788165005255899000,10.36289892578125,0.6590374708175659,0.17352500557899475,0.053075000643730164
1788165005265998300,10.372998291015625,0.5955125093460083,0.1050499975681305,0.012787500396370888
1788165005276093700,10.38309375,0.6015625,-0.06476250290870667,-0.07768750190734863
1788165005286193200,10.393193115234375,0.6382749676704407,-0.2723875045776367,-0.18150000274181366
1788165005296276500,10.4032763671875,0.6847500205039978,-0.4349125027656555,-0.2877874970436096
1788165005306362600,10.413362548828125,0.7250375151634216,-0.41167500615119934,-0.38554999232292175
1788165005316450300,10.4234501953125,0.6785625219345093,-0.3273875117301941,-0.4343625009059906
1788165005326538000,10.4335380859375,0.6162750124931335,-0.11357499659061432,-0.41731250286102295
1788165005336623900,10.443623779296875,0.657800018787384,0.22728750109672546,-0.3623124957084656
1788165005346713000,10.453713134765625,0.7653250098228455,0.47286251187324524,-0.3525499999523163
1788165005356792600,10.46379248046875,0.9009000062942505,0.5131499767303467,-0.4343625009059906
1788165005366877400,10.47387744140625,1.0377124547958374,0.36162498593330383,-0.5724124908447266
1788165005376968700,10.48396875,1.0891374349594116,0.13433749973773956,-0.6506500244140625
1788165005387064600,10.494064697265625,1.0756624937057495,0.09404999762773514,-0.671412467956543
1788165005397147600,10.504147705078125,1.0769000053405762,0.29081249237060547,-0.6616500020027161
1788165005407238000,10.51423779296875,1.0536625385284424,0.4311999976634979,-0.613937497138977
1788165005417324000,10.524323974609375,0.9986624717712402,0.4226749837398529,-0.596887469291687
1788165005427409400,10.534409423828125,0.9681375026702881,0.4300999939441681,-0.6579374670982361
1788165005437498000,10.544498046875,0.9571374654769897,0.4361499845981598,-0.7239375114440918
1788165005447594000,10.554593994140625,0.9363750219345093,0.3750999867916107,-0.7617499828338623
1788165005457680600,10.5646806640625,0.9301875233650208,0.32615000009536743,-0.7594124674797058
1788165005467766300,10.574766357421876,0.9094250202178955,0.3128125071525574,-0.7569375038146973
1788165005477852000,10.584851806640625,0.8776624798774719,0.31638750433921814,-0.7532249689102173
1788165005487950800,10.594950927734375,0.8581374883651733,0.26510000228881836,-0.7532249689102173
1788165005498031400,10.60503125,0.8447999954223633,0.14657500386238098,-0.7727500200271606
1788165005508132000,10.615132080078125,0.8568999767303467,0.07452499866485596,-0.7997000217437744
1788165005518225700,10.6252255859375,0.8398500084877014,0.13433749973773956,-0.802174985408783
1788165005528320500,10.635320556640625,0.7713750004768372,0.2223374992609024,-0.8057500123977661
1788165005538407000,10.645406982421875,0.7103250026702881,0.2638624906539917,-0.8241750001907349
1788165005548513800,10.655513671875,0.6150375008583069,0.273624986410141,-0.8485124707221985
1788165005558609000,10.66560888671875,0.5344625115394592,0.22481249272823334,-0.871749997138977
1788165005568705000,10.675705078125,0.48069998621940613,0.12828749418258667,-0.8889374732971191
1788165005578792400,10.68579248046875,0.4281750023365021,0.03671250119805336,-0.9132750034332275
1788165005588883000,10.695883056640625,0.3609375059604645,-0.007287499960511923,-0.9437999725341797
1788165005598971100,10.70597119140625,0.2974124848842621,-0.02928750030696392,-0.9365124702453613
1788165005609073000,10.716072998046876,0.2241249978542328,-0.07699999958276749,-0.9072250127792358
1788165005619174700,10.726174560546875,0.1373624950647354,-0.09776250272989273,-0.8889374732971191
1788165005629271600,10.736271484375,0.07507500052452087,-0.09404999762773514,-0.8607500195503235
1788165005639366400,10.746366455078125,-0.012924999929964542,-0.11976250261068344,-0.7886999845504761
1788165005649454600,10.75645458984375,-0.09597499668598175,-0.09281250089406967,-0.7251750230789185
1788165005659550000,10.766550048828124,-0.1424500048160553,-0.02681249938905239,-0.6897000074386597
1788165005669647000,10.776647216796874,-0.23154999315738678,-0.023237500339746475,-0.6274124979972839
1788165005679734300,10.786734375,-0.30250000953674316,0.05857500061392784,-0.5883625149726868
1788165005689829600,10.79682958984375,-0.3573625087738037,0.11233749985694885,-0.5431249737739563
1788165005699921200,10.806921142578124,-0.43683749437332153,0.13928750157356262,-0.5003625154495239
1788165005710018600,10.8170185546875,-0.4833124876022339,0.1405249983072281,-0.44907498359680176
1788165005720104700,10.827104736328126,-0.4978874921798706,0.11852499842643738,-0.3623124957084656
1788165005730197000,10.837197021484375,-0.544362485408783,0.09404999762773514,-0.259737491607666
1788165005740293600,10.847293701171875,-0.6261749863624573,0.06847500056028366,-0.1742125004529953
1788165005750382800,10.8573828125,-0.7019374966621399,0.07328750193119049,-0.116737499833107
1788165005760473600,10.8674736328125,-0.7825124859809875,0.08923749625682831,-0.0812624990940094
1788165005770562800,10.877562744140626,-0.871749997138977,0.028049999848008156,-0.05926249921321869
1788165005780648000,10.88764794921875,-0.9132750034332275,-0.05128749832510948,-0.03739999979734421
1788165005790778600,10.897778564453125,-0.9010375142097473,-0.13557499647140503,0.02502499893307686
1788165005800870400,10.907870361328126,-0.8692749738693237,-0.2503874897956848,0.10312499850988388
1788165005810963200,10.917963134765625,-0.7862250208854675,-0.3176249861717224,0.16307500004768372
1788165005821052200,10.92805224609375,-0.6897000074386597,-0.34581249952316284,0.21793749928474426
1788165005831154000,10.93815380859375,-0.5663625001907349,-0.35062500834465027,0.2839374840259552
1788165005841241000,10.948240966796876,-0.40507498383522034,-0.34581249952316284,0.33646249771118164
1788165005851318000,10.958318115234375,-0.19373749196529388,-0.3359124958515167,0.3548874855041504
1788165005861408800,10.96840869140625,0.01759999990463257,-0.35186249017715454,0.3096500039100647
1788165005871502600,10.978502685546875,0.21793749928474426,-0.3726249933242798,0.18507499992847443
1788165005881586200,10.988586181640626,0.3866499960422516,-0.3348124921321869,0.006599999964237213
1788165005891675000,10.9986748046875,0.49898749589920044,-0.15399999916553497,-0.17173749208450317
1788165005901760300,11.00876025390625,0.5307499766349792,0.19676250219345093,-0.28283751010894775
1788165005911844900,11.018844970703125,0.4489375054836273,0.5937250256538391,-0.279262512922287
1788165005921930000,11.028929931640626,0.30236250162124634,0.8344874978065491,-0.20721249282360077
1788165005932023600,11.0390234375,0.16060000658035278,0.8662499785423279,-0.13626250624656677
1788165005942122200,11.049122314453125,0.03231250122189522,0.730537474155426,-0.07273750007152557
1788165005952219400,11.059219482421875,-0.06668750196695328,0.5387250185012817,-0.0006874999962747097
1788165005962310700,11.069310546875,-0.1522125005722046,0.3750999867916107,0.06283749639987946
1788165005972404200,11.079404296875,-0.22426250576972961,0.26633748412132263,0.1093124970793724
1788165005982488800,11.08948876953125,-0.24255000054836273,0.24186250567436218,0.12388750165700912
1788165005992592000,11.099591796875,-0.2535499930381775,0.20281249284744263,0.11055000126361847
1788165006002685200,11.109685302734375,-0.27073749899864197,0.11123749613761902,0.0835999995470047
1788165006012769300,11.119769287109374,-0.2535499930381775,0.03904999792575836,0.07259999960660934
1788165006022860800,11.12986083984375,-0.20350000262260437,-0.037812501192092896,0.07383749634027481
1788165006032952800,11.139952880859376,-0.12526249885559082,-0.2223374992609024,0.05431250110268593
1788165006043048400,11.15004833984375,0.06778749823570251,-0.44591251015663147,0.03478749841451645
1788165006053139000,11.160138916015624,0.36822500824928284,-0.5277249813079834,0.08978749811649323
1788165006063234000,11.170234130859376,0.6052749752998352,-0.4641999900341034,0.20212499797344208
1788165006073317400,11.1803173828125,0.49898749589920044,-0.19304999709129333,0.24736249446868896
1788165006083404800,11.19040478515625,0.20212499797344208,0.21986250579357147,0.24969999492168427
1788165006093494500,11.20049462890625,-0.08868750184774399,0.5179625153541565,0.2901250123977661
1788165006103589000,11.210589111328124,-0.3390749990940094,0.4251500070095062,0.4366999864578247
1788165006113675500,11.220675537109376,-0.4881249964237213,0.10999999940395355,0.6590374708175659
1788165006123776000,11.23077587890625,-0.5235999822616577,-0.25905001163482666,0.8056125044822693
1788165006133867000,11.240866943359375,-0.37812501192092896,-0.49114999175071716,0.8349000215530396
1788165006143963400,11.25096337890625,-0.21078750491142273,-0.38733750581741333,0.8178499937057495
1788165006154058800,11.261058837890625,-0.03849999979138374,0.0147124994546175,0.776324987411499
1788165006164167000,11.2711669921875,0.1471250057220459,0.2810499966144562,0.7115625143051147
1788165006174259000,11.281259033203124,0.28036248683929443,0.4104374945163727,0.6810374855995178
1788165006184347100,11.29134716796875,0.3377000093460083,0.4251500070095062,0.6968500018119812
1788165006194446000,11.301446044921875,0.3634124994277954,0.24186250567436218,0.7017999887466431
1788165006204551200,11.31155126953125,0.38417500257492065,-0.0085249999538064,0.6712750196456909
1788165006214632400,11.321632568359375,0.391462504863739,-0.12333749979734421,0.593037486076355
1788165006224738600,11.331738525390625,0.40246251225471497,-0.08304999768733978,0.47093749046325684
1788165006234830600,11.34183056640625,0.4207499921321869,0.05252499878406525,0.3669874966144562
1788165006244930300,11.351930419921874,0.40369999408721924,0.19304999709129333,0.30346250534057617
1788165006255020000,11.36202001953125,0.335224986076355,0.22357499599456787,0.2656500041484833
1788165006265118200,11.3721181640625,0.26936250925064087,0.19910000264644623,0.2521750032901764
1788165006275206700,11.38220654296875,0.21188749372959137,0.19181250035762787,0.23017500340938568
1788165006285300700,11.39230078125,0.1751749962568283,0.16733749210834503,0.16664999723434448
1788165006295385300,11.40238525390625,0.16307500004768372,0.11976250261068344,0.10807500034570694
1788165006305480400,11.41248046875,0.17159999907016754,0.0695749968290329,0.05555000156164169
1788165006315569400,11.4225693359375,0.19841249287128448,-0.020762499421834946,-0.043449997901916504
1788165006325672400,11.43267236328125,0.22288750112056732,-0.11481250077486038,-0.1289750039577484
1788165006335766800,11.442766845703124,0.23141250014305115,-0.10257499665021896,-0.19126249849796295
1788165006345862400,11.4528623046875,0.24736249446868896,-0.04152499884366989,-0.23154999315738678
1788165006355951600,11.46295166015625,0.2546499967575073,-0.04881250113248825,-0.24131250381469727
1788165006366043100,11.473043212890625,0.28517499566078186,-0.00494999997317791,-0.2572624981403351
1788165006376134400,11.483134521484375,0.3218874931335449,0.09281250089406967,-0.27073749899864197
1788165006396308500,11.50330859375,0.3218874931335449,0.2503874897956848,-0.19126249849796295
1788165006406403300,11.5134033203125,0.29864999651908875,0.23457500338554382,-0.1350249946117401
1788165006426574000,11.533573974609375,0.22288750112056732,0.0085249999538064,-0.031212499365210533
1788165006436659200,11.5436591796875,0.22165000438690186,-0.13805000483989716,-0.023924998939037323
1788165006446747000,11.553746826171874,0.23759999871253967,-0.27486249804496765,-0.031212499365210533
1788165006456829700,11.56382958984375,0.23759999871253967,-0.3396250009536743,-0.05073750019073486
1788165006466914600,11.57391455078125,0.2106499969959259,-0.37014999985694885,-0.05926249921321869
1788165006487094300,11.59409423828125,0.1251250058412552,-0.33233749866485596,0.011549999937415123
1788165006507272200,11.614272216796875,0.08483749628067017,-0.39214998483657837,0.05912499874830246
1788165006517354200,11.624354248046876,0.0835999995470047,-0.420199990272522,0.038362499326467514
1788165006527449600,11.63444970703125,0.05912499874830246,-0.41538751125335693,-0.006737499963492155
1788165006537536300,11.644536376953125,0.006599999964237213,-0.41786250472068787,-0.04468749836087227
1788165006547626800,11.654626708984376,-0.028737500309944153,-0.45086249709129333,-0.04097500070929527
1788165006557708800,11.664708740234374,-0.06297499686479568,-0.568149983882904,-0.03849999979138374
1788165006567805200,11.67480517578125,-0.08992499858140945,-0.7110124826431274,-0.04468749836087227
1788165006577892900,11.684892822265626,-0.08016250282526016,-0.7134875059127808,-0.060499999672174454
1788165006598071600,11.705071533203125,0.02502499893307686,-0.28833749890327454,-0.14973749220371246
1788165006608178000,11.715177978515625,0.04331250116229057,-0.08181250095367432,-0.1667875051498413
1788165006618265300,11.725265380859375,0.02736249938607216,0.08923749625682831,-0.15702499449253082
1788165006628349400,11.735349365234375,0.012787500396370888,0.18576249480247498,-0.1350249946117401
1788165006638445800,11.74544580078125,0.0042624999769032,0.19786250591278076,-0.116737499833107
1788165006648546600,11.755546630859374,-0.021449999883770943,0.13805000483989716,-0.12168750166893005
1788165006658641200,11.76564111328125,-0.03973750025033951,0.0317624993622303,-0.12278749793767929
1788165006668731100,11.775731201171874,-0.03368749842047691,-0.035475000739097595,-0.09721250087022781
1788165006678828800,11.785828857421874,-0.05926249921321869,-0.045237500220537186,-0.05816249921917915
1788165006688924400,11.79592431640625,-0.0752125009894371,0.010999999940395355,-0.03739999979734421
1788165006699020800,11.806020751953126,-0.09721250087022781,0.037812501192092896,-0.006737499963492155
1788165006709121500,11.81612158203125,-0.15950000286102295,0.00494999997317791,-0.006737499963492155
1788165006719210500,11.82621044921875,-0.2022625058889389,-0.06476250290870667,-0.05321250110864639
1788165006729303600,11.836303466796876,-0.20721249282360077,-0.12333749979734421,-0.10449999570846558
1788165006739390200,11.84639013671875,-0.22426250576972961,-0.1551000028848648,-0.15097500383853912
1788165006749483300,11.856483154296875,-0.20954999327659607,-0.16005000472068787,-0.17173749208450317
1788165006759572700,11.86657275390625,-0.18645000457763672,-0.1270499974489212,-0.1424500048160553
1788165006769655300,11.8766552734375,-0.1985500007867813,-0.07328750193119049,-0.08992499858140945
1788165006779753000,11.8867529296875,-0.227974995970726,-0.02447500079870224,-0.03492499887943268
1788165006799935500,11.906935546875,-0.3550249934196472,-0.07328750193119049,-0.05321250110864639
1788165006810021400,11.917021484375,-0.36726251244544983,-0.1625249981880188,-0.1350249946117401
1788165006820118500,11.927118408203125,-0.3390749990940094,-0.2186249941587448,-0.24873749911785126
1788165006830207000,11.93720703125,-0.26826250553131104,-0.2162874937057495,-0.3573625087738037
1788165006840334600,11.94733447265625,-0.13997499644756317,-0.13805000483989716,-0.42707499861717224
1788165006850428700,11.9574287109375,-0.026399999856948853,-0.028049999848008156,-0.43188750743865967
1788165006860512000,11.967511962890624,0.021312499418854713,0.05623750016093254,-0.39160001277923584
1788165006870611200,11.977611083984375,-0.0056374999694526196,0.07699999958276749,-0.32807499170303345
1788165006880695300,11.9876953125,-0.09968750178813934,0.05004999786615372,-0.25478750467300415
1788165006890789400,11.997789306640625,-0.21931250393390656,0.03671250119805336,-0.1839749962091446
1788165006900878600,12.007878662109375,-0.31831249594688416,0.02928750030696392,-0.116737499833107
1788165006910964700,12.01796484375,-0.38554999232292175,-0.02681249938905239,-0.07644999772310257
1788165006921059300,12.028059326171874,-0.40878748893737793,-0.10023749619722366,-0.06792499870061874
1788165006931153200,12.038153076171875,-0.3562625050544739,-0.15757499635219574,-0.06544999778270721
1788165006941279500,12.048279541015624,-0.24502499401569366,-0.18933749198913574,-0.08744999766349792
1788165006951356200,12.058356201171875,-0.12044999748468399,-0.1588124930858612,-0.13144999742507935
1788165006961448700,12.06844873046875,-0.025162499397993088,-0.12581250071525574,-0.16073749959468842
1788165006971539500,12.07853955078125,0.02736249938607216,-0.13557499647140503,-0.14973749220371246
1788165006981627400,12.08862744140625,0.050599999725818634,-0.1722874939441681,-0.09102500230073929
1788165006991718700,12.09871875,0.053075000643730164,-0.19552500545978546,-0.0056374999694526196
1788165007001806300,12.108806396484376,0.02502499893307686,-0.19676250219345093,0.0798875018954277
1788165007011904500,12.118904541015626,-0.018975000828504562,-0.12457499653100967,0.1288374960422516
1788165007021994000,12.128993896484374,-0.05321250110864639,-0.01347499992698431,0.14464999735355377
1788165007032093700,12.13909375,-0.08868750184774399,0.10381250083446503,0.13983750343322754
1788165007042182700,12.1491826171875,-0.09226249903440475,0.21381250023841858,0.12264999747276306
1788165007052279300,12.159279296875,-0.06421250104904175,0.2638624906539917,0.11659999936819077
1788165007062375200,12.169375244140625,-0.03973750025033951,0.21986250579357147,0.14836250245571136
1788165007082571800,12.18957177734375,0.0017874999903142452,0.06847500056028366,0.2521750032901764
1788165007092658200,12.199658203125,-0.017737500369548798,-0.025712499395012856,0.2864125072956085
1788165007102757400,12.20975732421875,-0.04221250116825104,-0.08923749625682831,0.28517499566078186
1788165007112853200,12.219853271484375,-0.07397499680519104,-0.1013374999165535,0.22659999132156372
1788165007122967000,12.229967041015625,-0.055687498301267624,-0.0952875018119812,0.11288750171661377
1788165007133065700,12.240065673828125,0.04207500070333481,-0.0672374963760376,-0.016499999910593033
1788165007143164200,12.2501640625,0.15331250429153442,0.0147124994546175,-0.12526249885559082
1788165007153256000,12.260255859375,0.23017500340938568,0.11728750169277191,-0.1350249946117401
1788165007163338500,12.27033837890625,0.2595999836921692,0.22357499599456787,-0.08249999582767487
1788165007173432600,12.2804326171875,0.255887508392334,0.282150000333786,-0.016499999910593033
1788165007183521500,12.290521484375,0.21917499601840973,0.26510000228881836,0.03478749841451645
1788165007193614000,12.300614013671876,0.11659999936819077,0.13805000483989716,0.06888750195503235
1788165007203708000,12.3107080078125,0.021312499418854713,0.03671250119805336,0.09583749622106552
1788165007213798700,12.320798583984375,-0.007974999956786633,0.07328750193119049,0.1093124970793724
1788165007223887000,12.33088720703125,-0.010449999943375587,0.15399999916553497,0.11412499845027924
1788165007233977000,12.34097705078125,0.016362499445676804,0.26028749346733093,0.10064999759197235
1788165007244076300,12.351076171875,0.05912499874830246,0.35667499899864197,0.06888750195503235
1788165007254165200,12.361165283203125,0.06655000150203705,0.3139125108718872,0.06778749823570251
1788165007264270000,12.37127001953125,0.07259999960660934,0.22605000436306,0.07012499868869781
1788165007274356500,12.3813564453125,0.05555000156164169,0.10381250083446503,0.060362499207258224
1788165007284459000,12.391458984375,0.04331250116229057,-0.08923749625682831,0.026124998927116394
1788165007294556000,12.401555908203125,0.057887498289346695,-0.2358125001192093,-0.012924999929964542
1788165007304641500,12.4116416015625,0.089649997651577,-0.23457500338554382,-0.060499999672174454
1788165007314745000,12.4217451171875,0.11659999936819077,-0.09404999762773514,-0.0789249986410141
1788165007324837400,12.43183740234375,0.13612499833106995,0.13433749973773956,-0.06421250104904175
1788165007334934000,12.44193408203125,0.13007499277591705,0.345674991607666,-0.018975000828504562
1788165007345029600,12.452029541015625,0.10312499850988388,0.4629625082015991,0.04702499881386757
1788165007355131100,12.462131103515626,0.04207500070333481,0.404387503862381,0.12388750165700912
1788165007365218800,12.47221875,-0.025162499397993088,0.21504999697208405,0.17641249299049377
1788165007375322000,12.482322021484375,-0.04592499881982803,0.09033749997615814,0.14836250245571136
1788165007385407500,12.492407470703125,-0.04221250116825104,0.0695749968290329,0.011549999937415123
1788165007395499300,12.502499267578125,0.0005499999970197678,0.06476250290870667,-0.13626250624656677
1788165007405590300,12.51259033203125,0.0798875018954277,0.06847500056028366,-0.20721249282360077
1788165007415686100,12.52268603515625,0.1093124970793724,0.020762499421834946,-0.15826250612735748
1788165007425774800,12.53277490234375,0.09583749622106552,0.01952499896287918,-0.0471624992787838
1788165007435873800,12.542873779296874,0.03231250122189522,0.054999999701976776,0.053075000643730164
1788165007445974500,12.552974609375,-0.06173750013113022,0.08923749625682831,0.06888750195503235
1788165007456062200,12.563062255859375,-0.11550000309944153,0.10999999940395355,-0.0006874999962747097
1788165007466158800,12.573158935546875,-0.1289750039577484,0.0317624993622303,-0.09473749995231628
1788165007476246500,12.58324658203125,-0.0849749967455864,-0.09281250089406967,-0.15097500383853912
1788165007486337300,12.593337158203125,-0.022687500342726707,-0.1551000028848648,-0.11302500218153
1788165007496418800,12.603418701171876,-0.0056374999694526196,-0.13199999928474426,0.01759999990463257
1788165007506511600,12.61351171875,-0.04839999973773956,0.035475000739097595,0.133650004863739
1788165007516595500,12.623595458984376,-0.11426249891519547,0.23333749175071716,0.15331250429153442
1788165007526683100,12.63368310546875,-0.21449999511241913,0.22962500154972076,0.08236250281333923
1788165007536762400,12.643762451171876,-0.2609750032424927,0.0037124999798834324,-0.03492499887943268
1788165007546855000,12.65385498046875,-0.22550000250339508,-0.2675749957561493,-0.16554999351501465
1788165007556938800,12.663938720703126,-0.1106875017285347,-0.4923875033855438,-0.2657875120639801
1788165007567038200,12.6740380859375,0.05678749829530716,-0.4483875036239624,-0.31459999084472656
1788165007577122000,12.6841220703125,0.18741250038146973,-0.17957499623298645,-0.3073124885559082
1788165007587216400,12.69421630859375,0.20336249470710754,0.08923749625682831,-0.19373749196529388
1788165007597299200,12.70429931640625,0.1251250058412552,0.21986250579357147,-0.05692499876022339
1788165007607384800,12.714384765625,0.014024999924004078,0.16609999537467957,0.07383749634027481
1788165007617472500,12.724472412109375,-0.07768750190734863,-0.007287499960511923,0.18012499809265137
1788165007627569200,12.734569091796875,-0.13750000298023224,-0.11976250261068344,0.19965000450611115
1788165007637649200,12.744649169921875,-0.15950000286102295,-0.17586250603199005,0.1313125044107437
1788165007647742200,12.7547421875,-0.1289750039577484,-0.2162874937057495,0.03231250122189522
1788165007657824500,12.764824462890624,-0.05692499876022339,-0.2723875045776367,-0.07397499680519104
1788165007667922200,12.774922119140625,0.036024998873472214,-0.28462499380111694,-0.09350000321865082
1788165007677996800,12.784996826171875,0.11055000126361847,-0.2223374992609024,-0.012924999929964542
1788165007688095500,12.795095458984376,0.09583749622106552,-0.11728750169277191,0.08483749628067017
1788165007698188800,12.805188720703125,0.05431250110268593,0.002474999986588955,0.13612499833106995
1788165007708280800,12.81528076171875,0.007837500423192978,-0.0085249999538064,0.11412499845027924
1788165007718369500,12.82536962890625,-0.023924998939037323,-0.15633749961853027,0.03712499886751175
1788165007728466000,12.8354658203125,-0.009212499484419823,-0.29205000400543213,-0.007974999956786633
1788165007738557000,12.845556884765625,0.0017874999903142452,-0.2723875045776367,0.016362499445676804
1788165007748656600,12.85565673828125,0.007837500423192978,-0.11604999750852585,0.12155000120401382
1788165007758747400,12.865747314453126,-0.010449999943375587,0.10876250267028809,0.21917499601840973
1788165007768846800,12.875846923828124,-0.05444999784231186,0.19910000264644623,0.2241249978542328
1788165007778934500,12.8859345703125,-0.05816249921917915,0.1405249983072281,0.1251250058412552
1788165007789030400,12.896030517578126,-0.03616249933838844,0.0170499999076128,-0.012924999929964542
1788165007799125000,12.906125,0.0042624999769032,-0.1551000028848648,-0.08373750001192093
1788165007809217800,12.9162177734375,0.06531249731779099,-0.2895750105381012,-0.04097500070929527
1788165007819307300,12.926307373046875,0.09955000132322311,-0.28462499380111694,0.05678749829530716
1788165007829388500,12.936388427734375,0.10683749616146088,-0.14781250059604645,0.16664999723434448
1788165007839485200,12.946485107421875,0.10436250269412994,0.10023749619722366,0.23512500524520874
1788165007849571600,12.956571533203125,0.06407500058412552,0.2723875045776367,0.22893749177455902
1788165007859662800,12.966662841796875,0.007837500423192978,0.2186249941587448,0.19483749568462372
1788165007869754000,12.976754150390626,-0.04468749836087227,-0.010999999940395355,0.1288374960422516
1788165007879848400,12.986848388671875,-0.06297499686479568,-0.32381248474121094,0.048124998807907104
1788165007889970200,12.99697021484375,-0.022687500342726707,-0.5363875031471252,0.0042624999769032
1788165007900062500,13.0070625,0.04455000162124634,-0.5669124722480774,-0.0006874999962747097
1788165007910153200,13.0171533203125,0.12264999747276306,-0.3469125032424927,0.018837500363588333
1788165007920244500,13.027244384765625,0.19359999895095825,0.06599999964237213,-0.0031624999828636646
1788165007930348300,13.037348388671875,0.20941250026226044,0.40191251039505005,-0.05444999784231186
1788165007940434200,13.04743408203125,0.16664999723434448,0.5081999897956848,-0.05444999784231186
1788165007950528300,13.0575283203125,0.05555000156164169,0.3469125032424927,0.022549999877810478
1788165007960607200,13.067607177734375,-0.07644999772310257,0.08057499676942825,0.1568875014781952
1788165007970697500,13.077697509765626,-0.16802500188350677,-0.07823749631643295,0.260699987411499
1788165007980787500,13.087787353515624,-0.227974995970726,-0.0989999994635582,0.27665001153945923
1788165007990876700,13.097876708984375,-0.21697500348091125,-0.05252499878406525,0.17159999907016754
1788165008000966100,13.107966064453125,-0.14368750154972076,0.054999999701976776,-0.022687500342726707
1788165008011056400,13.118056396484375,-0.043449997901916504,0.08799999952316284,-0.19249999523162842
1788165008021150200,13.128150146484375,0.08483749628067017,0.06228749826550484,-0.2938374876976013
1788165008031241500,13.138241455078125,0.2046000063419342,0.0085249999538064,-0.29878750443458557
1788165008041325600,13.14832568359375,0.27665001153945923,-0.0317624993622303,-0.2303124964237213
1788165008051418600,13.158418701171875,0.2913624942302704,-0.0170499999076128,-0.16197499632835388
1788165008061507800,13.1685078125,0.260699987411499,0.05857500061392784,-0.1106875017285347
1788165008071601000,13.178600830078125,0.2008875012397766,0.12828749418258667,-0.10092499852180481
1788165008081694500,13.188694580078124,0.09583749622106552,0.15633749961853027,-0.11797499656677246
1788165008091782000,13.198781982421876,-0.025162499397993088,0.07204999774694443,-0.11550000309944153
1788165008101866200,13.2088662109375,-0.05692499876022339,0.057475000619888306,-0.1326874941587448
1788165008111959300,13.218959228515626,-0.03616249933838844,0.12333749979734421,-0.20954999327659607
1788165008122055200,13.22905517578125,0.018837500363588333,0.1905750036239624,-0.2560249865055084
1788165008132143900,13.239143798828126,0.06778749823570251,0.27857500314712524,-0.2633124887943268
1788165008142239200,13.2492392578125,0.0775500014424324,0.32491248846054077,-0.20102499425411224
1788165008152327200,13.2593271484375,0.07136250287294388,0.3433375060558319,-0.10202500224113464
1788165008162418400,13.26941845703125,0.045787498354911804,0.29315000772476196,-0.014162499457597733
1788165008172505300,13.27950537109375,0.006599999964237213,0.23457500338554382,0.053075000643730164
1788165008182597000,13.28959716796875,-0.04468749836087227,0.08799999952316284,0.09955000132322311
1788165008192702500,13.299702392578125,-0.12402500212192535,-0.19676250219345093,0.11412499845027924
1788165008202801700,13.3098017578125,-0.18645000457763672,-0.4263874888420105,0.07631249725818634
1788165008212899800,13.31989990234375,-0.20102499425411224,-0.5119125247001648,-0.03368749842047691
1788165008233068300,13.340068359375,0.02736249938607216,-0.3628624975681305,-0.3293125033378601
1788165008243158000,13.350157958984376,0.20941250026226044,-0.21133749186992645,-0.3867875039577484
1788165008253255200,13.360255126953126,0.2741749882698059,-0.11728750169277191,-0.3195500075817108
1788165008263339500,13.370339599609375,0.21683749556541443,0.025712499395012856,-0.2377374917268753
1788165008273430000,13.380429931640625,0.141075000166893,0.15757499635219574,-0.14121249318122864
1788165008283526100,13.390526123046875,0.060362499207258224,0.1845249980688095,-0.023924998939037323
1788165008293622300,13.400622314453125,-0.0494999997317791,0.13557499647140503,0.12759999930858612
1788165008303708700,13.410708740234375,-0.16568750143051147,0.002474999986588955,0.26688748598098755
1788165008313804800,13.4208046875,-0.2535499930381775,-0.1368124932050705,0.3328875005245209
1788165008333993200,13.4409931640625,-0.16321249306201935,-0.11604999750852585,0.0873124971985817
1788165008344088800,13.4510888671875,-0.021449999883770943,0.07452499866485596,-0.09473749995231628
1788165008354183000,13.461182861328124,0.11055000126361847,0.2320999950170517,-0.13750000298023224
1788165008364273400,13.4712734375,0.1508374959230423,0.3371500074863434,-0.007974999956786633
1788165008374361000,13.481361083984375,0.10312499850988388,0.3971000015735626,0.14464999735355377
1788165008384453000,13.491453125,0.03355000168085098,0.35557499527931213,0.25093749165534973
1788165008394545200,13.501545166015624,-0.055687498301267624,0.20762500166893005,0.3011249899864197
1788165008404642800,13.511642822265625,-0.1264999955892563,-0.030524998903274536,0.2521750032901764
1788165008414737700,13.521737548828124,-0.1522125005722046,-0.2870999872684479,0.17641249299049377
1788165008424841700,13.531841796875,-0.15097500383853912,-0.5021499991416931,0.12155000120401382
1788165008434940000,13.54193994140625,-0.08621250092983246,-0.5889124870300293,0.07631249725818634
1788165008445038300,13.552038330078124,0.050599999725818634,-0.404387503862381,-0.020212499424815178
1788165008455137500,13.562137451171875,0.1825999915599823,-0.02447500079870224,-0.1289750039577484
1788165008475340000,13.582340087890625,0.2461249977350235,0.3078624904155731,-0.07026249915361404
1788165008485435100,13.59243505859375,0.18507499992847443,0.15152500569820404,0.0518375001847744
1788165008495529200,13.602529296875,0.09707500040531158,-0.13928750157356262,0.17641249299049377
1788165008505617700,13.61261767578125,-0.020212499424815178,-0.3750999867916107,0.23141250014305115
1788165008515712800,13.622712646484375,-0.09226249903440475,-0.4496249854564667,0.17407499253749847
1788165008535895300,13.642895263671875,0.038362499326467514,-0.16376249492168427,-0.22426250576972961
1788165008545984800,13.65298486328125,0.16788749396800995,0.07328750193119049,-0.32807499170303345
1788165008566167800,13.673167724609375,0.12636250257492065,0.33838748931884766,0.06159999966621399
1788165008576254200,13.683254150390624,0.02983750030398369,0.4166249930858612,0.23388749361038208
1788165008586338800,13.6933388671875,-0.043449997901916504,0.38733750581741333,0.24860000610351562
1788165008596433400,13.703433349609375,-0.0789249986410141,0.2186249941587448,0.13488750159740448
1788165008606523000,13.71352294921875,-0.13626250624656677,-0.12828749418258667,0.018837500363588333
1788165008616609800,13.72360986328125,-0.15702499449253082,-0.49720001220703125,-0.022687500342726707
1788165008626692400,13.7336923828125,-0.11797499656677246,-0.6890124678611755,-0.0019249999895691872
1788165008636783000,13.743783203125,-0.10216250270605087,-0.6316750049591064,0.07136250287294388
1788165008646864400,13.753864501953124,-0.06544999778270721,-0.2723875045776367,0.1288374960422516
1788165008667037700,13.77403759765625,0.0835999995470047,0.32133749127388,0.010312499478459358
1788165008677122300,13.784122314453125,0.1471250057220459,0.16609999537467957,-0.06792499870061874
1788165008687207200,13.794207275390624,0.1288374960422516,-0.210099995136261,-0.11192499846220016
1788165008697296100,13.804296142578124,0.05431250110268593,-0.5424374938011169,-0.06173750013113022
1788165008707380500,13.81438037109375,-0.0494999997317791,-0.6536750197410583,0.08112499862909317
1788165008717468700,13.82446875,-0.15950000286102295,-0.467912495136261,0.18617500364780426
1788165008727558100,13.83455810546875,-0.17544999718666077,-0.05376249924302101,0.15331250429153442
1788165008737646600,13.844646484375,-0.10573749989271164,0.27486249804496765,-0.015399999916553497
1788165008747722000,13.854721923828125,-0.031212499365210533,0.282150000333786,-0.164450004696846
1788165008767892700,13.874892822265625,0.012787500396370888,-0.24310000240802765,-0.09116250276565552
1788165008777988600,13.884988525390625,-0.043449997901916504,-0.3176249861717224,0.09459999948740005
1788165008788078000,13.895078125,-0.11192499846220016,-0.18081249296665192,0.20212499797344208
1788165008798175200,13.90517529296875,-0.15468749403953552,-0.0012374999932944775,0.1788875013589859
1788165008808266800,13.915266845703124,-0.1447875052690506,0.1050499975681305,0.018837500363588333
1788165008818362400,13.9253623046875,-0.10326249897480011,0.010999999940395355,-0.1704999953508377
1788165008828444400,13.9354443359375,-0.03739999979734421,-0.10876250267028809,-0.28654998540878296
1788165008838544100,13.945544189453125,0.01759999990463257,-0.07452499866485596,-0.28654998540878296
1788165008848628000,13.9556279296875,0.005362499970942736,-0.042762499302625656,-0.1742125004529953
1788165008858724400,13.965724365234376,-0.0494999997317791,-0.010999999940395355,-0.0019249999895691872
1788165008868819500,13.9758193359375,-0.09116250276565552,0.0635249987244606,0.13007499277591705
1788165008878914600,13.98591455078125,-0.12168750166893005,0.17586250603199005,0.18383750319480896
1788165008889007000,13.996007080078124,-0.13392500579357147,0.27114999294281006,0.1153625026345253
1788165008899097600,14.00609765625,-0.15468749403953552,0.20652499794960022,0.028599999845027924
1788165008909187300,14.016187255859375,-0.17173749208450317,-0.057475000619888306,-0.03616249933838844
1788165008919285000,14.026284912109375,-0.16197499632835388,-0.20652499794960022,-0.09721250087022781
1788165008929377800,14.036377685546874,-0.15826250612735748,-0.2503874897956848,-0.09226249903440475
1788165008939465700,14.0464658203125,-0.16197499632835388,-0.10257499665021896,-0.05444999784231186
1788165008949550600,14.056550537109375,-0.10573749989271164,0.1722874939441681,-0.04468749836087227
1788165008959638800,14.066638671875,-0.014162499457597733,0.3689124882221222,-0.07026249915361404
1788165008969727200,14.076727294921875,0.04207500070333481,0.36038750410079956,-0.09473749995231628
1788165008979816400,14.08681640625,0.06531249731779099,0.1588124930858612,-0.08744999766349792
1788165008989909000,14.096908935546875,0.04455000162124634,-0.11481250077486038,-0.03849999979138374
1788165008999997400,14.10699755859375,-0.0006874999962747097,-0.2186249941587448,0.010312499478459358
1788165009010089700,14.11708984375,-0.04839999973773956,-0.13199999928474426,0.048124998807907104
1788165009020178400,14.127178466796876,-0.09721250087022781,0.10628750175237656,0.07507500052452087
1788165009030262000,14.137261962890625,-0.14602500200271606,0.3188624978065491,0.07259999960660934
1788165009040352800,14.147352783203125,-0.1522125005722046,0.340862512588501,0.02736249938607216
1788165009050442800,14.15744287109375,-0.1667875051498413,0.27486249804496765,0.018837500363588333
1788165009070624000,14.1776240234375,-0.15826250612735748,-0.0012374999932944775,0.06778749823570251
1788165009080713200,14.187713134765625,-0.07150000333786011,-0.06228749826550484,0.026124998927116394
1788165009090801700,14.1978017578125,0.03712499886751175,-0.10999999940395355,-0.020212499424815178
1788165009100896500,14.207896484375,0.089649997651577,-0.13805000483989716,-0.10573749989271164
1788165009110983700,14.217983642578124,0.12636250257492065,-0.04881250113248825,-0.2083124965429306
1788165009121074700,14.22807470703125,0.16307500004768372,0.21986250579357147,-0.2694999873638153
1788165009131167700,14.238167724609376,0.16417500376701355,0.4618625044822693,-0.24502499401569366
1788165009141261600,14.248261474609375,0.11055000126361847,0.4641999900341034,-0.1522125005722046
1788165009151348500,14.258348388671875,0.05912499874830246,0.35667499899864197,-0.025162499397993088
1788165009161439700,14.268439697265626,-0.021449999883770943,0.19786250591278076,0.13007499277591705
1788165009171530200,14.2785302734375,-0.10449999570846558,0.03423750028014183,0.2546499967575073
1788165009181623000,14.288623046875,-0.13750000298023224,0.025712499395012856,0.2644124925136566
1788165009191711700,14.298711669921875,-0.08744999766349792,0.18933749198913574,0.1434125006198883
1788165009201804500,14.308804443359374,-0.03739999979734421,0.14781250059604645,0.0042624999769032
1788165009211887000,14.31888720703125,0.0005499999970197678,0.006049999967217445,-0.10449999570846558
1788165009221974800,14.328974853515625,0.031075000762939453,-0.16128750145435333,-0.11426249891519547
1788165009232065300,14.339065185546875,0.023787500336766243,-0.2040500044822693,-0.017737500369548798
1788165009242162700,14.34916259765625,-0.010449999943375587,-0.07328750193119049,0.10683749616146088
1788165009252255200,14.359255126953125,-0.05939999967813492,0.07328750193119049,0.19112500548362732
1788165009262347800,14.36934765625,-0.0789249986410141,0.13433749973773956,0.2008875012397766
1788165009272437000,14.37943701171875,-0.10449999570846558,-0.06847500056028366,0.1568875014781952
1788165009282533600,14.38953369140625,-0.1069749966263771,-0.3763374984264374,0.06888750195503235
1788165009292622000,14.3996220703125,-0.08744999766349792,-0.5717250108718872,-0.05073750019073486
1788165009302709000,14.409708984375,-0.05816249921917915,-0.5436750054359436,-0.1350249946117401
1788165009312807700,14.4198076171875,0.005362499970942736,-0.2516250014305115,-0.1802625060081482
1788165009322896600,14.429896728515626,0.05555000156164169,0.16005000472068787,-0.1802625060081482
1788165009332983000,14.439983154296876,0.06778749823570251,0.3946250081062317,-0.14726249873638153
1788165009343075300,14.450075439453125,0.053075000643730164,0.44110000133514404,-0.09597499668598175
1788165009353165000,14.4601650390625,0.036024998873472214,0.36162498593330383,-0.015399999916553497
1788165009363257300,14.47025732421875,-0.0056374999694526196,0.28833749890327454,0.06407500058412552
