time,seconds_elapsed,z,y,x
1788164603643189000,0.17018896484375,-0.8345699906349182,0.05000400170683861,-0.031084999442100525
1788164603653276400,0.1802763671875,-0.947488009929657,0.08067300170660019,-0.38342899084091187
1788164603663369700,0.19036962890625,-1.0685240030288696,0.13109299540519714,-0.6190999746322632
1788164603673470200,0.20047021484375,-1.221101999282837,0.12948699295520782,-1.1812770366668701
1788164603683567600,0.210567626953125,-1.4184590578079224,-0.06741099804639816,-1.3577569723129272
1788164603693666600,0.22066650390625,-1.5804580450057983,-0.2385140061378479,-1.2847130298614502
1788164603703762400,0.230762451171875,-1.6173930168151855,-0.3209950029850006,-1.179658055305481
1788164603713852000,0.240851806640625,-1.873384952545166,-0.5639989972114563,-0.5738360285758972
1788164603734034200,0.2610341796875,-2.731775999069214,-0.5814160108566284,-1.1069220304489136
1788164603744125700,0.271125732421875,-3.2117021083831787,-0.7339029908180237,-0.3309920132160187
1788164603754208800,0.281208740234375,0.22166599333286285,-2.890273094177246,1.934352993965149
1788164603764297500,0.29129736328125,0.5746030211448669,-1.1254409551620483,0.31223800778388977
1788164603774380300,0.30138037109375,-3.985663890838623,1.7327120304107666,-2.163022041320801
1788164603784465000,0.31146484375,-6.070699214935303,2.7134668827056885,-3.4258511066436768
1788164603794556400,0.321556396484375,-6.399119853973389,1.6925569772720337,-2.9139349460601807
1788164603804640000,0.331639892578125,-6.029384136199951,0.13605999946594238,-1.7071360349655151
1788164603814728700,0.341728759765625,-5.567465782165527,-0.8762120008468628,-1.0076279640197754
1788164603824819500,0.3518193359375,-0.5485720038414001,-1.8459069728851318,2.612510919570923
1788164603834905000,0.361905029296875,-0.9687759876251221,-2.1612401008605957,3.1063170433044434
1788164603845006000,0.372006103515625,2.4939749240875244,-2.5499889850616455,4.9856648445129395
1788164603855089400,0.38208935546875,9.937281608581543,-1.779492974281311,5.693826198577881
1788164603865183500,0.39218359375,7.143895149230957,0.3381969928741455,1.6391960382461548
1788164603875273000,0.40227294921875,6.602169990539551,0.8435819745063782,-2.2401349544525146
1788164603885362700,0.41236279296875,5.270738124847412,1.1662739515304565,-5.766969203948975
1788164603895458600,0.42245849609375,2.73868989944458,1.056404948234558,-6.702328205108643
1788164603905542400,0.43254248046875,1.073989987373352,0.13804399967193604,-4.238108158111572
1788164603915624400,0.44262451171875,-0.922639012336731,-1.6591709852218628,-0.9405760169029236
1788164603925710600,0.452710693359375,-2.235949993133545,-1.8146469593048096,-0.9627599716186523
1788164603935799800,0.4627998046875,-2.6436679363250732,-1.7292399406433105,-0.5798270106315613
1788164603945888300,0.47288818359375,-1.1319080591201782,-1.216194987297058,-0.003601999953389168
1788164603955967500,0.482967529296875,1.2460370063781738,-0.1916929930448532,-0.7006490230560303
1788164603966058800,0.493058837890625,-1.6713390350341797,2.8792989253997803,-8.74327278137207
1788164603976141800,0.503141845703125,-1.1474440097808838,5.4153242111206055,-10.168463706970215
1788164603986229000,0.51322900390625,7.767969131469727,1.8005900382995605,0.040821000933647156
1788164603996310000,0.52331005859375,3.8816559314727783,-1.2765990495681763,0.32547301054000854
1788164604006393000,0.53339306640625,0.9273999929428101,-1.7040519714355469,0.8813760280609131
1788164604016473000,0.54347314453125,1.4789570569992065,0.026458999142050743,-0.31866899132728577
1788164604026562300,0.553562255859375,1.3371319770812988,0.2653050124645233,-2.1770730018615723
1788164604036647700,0.563647705078125,-1.7060290575027466,-0.20082500576972961,-2.9584100246429443
1788164604046739500,0.573739501953125,-3.053877115249634,0.31493398547172546,-3.7861878871917725
1788164604056821000,0.583821044921875,-2.660223960876465,-0.04730299860239029,-3.074125051498413
1788164604066912800,0.593912841796875,-2.0300729274749756,0.09293399751186371,-1.6397449970245361
1788164604076996400,0.603996337890625,-0.9387689828872681,-0.1871359944343567,-0.16193799674510956
1788164604087089700,0.614089599609375,1.3859519958496094,0.8558099865913391,2.0365540981292725
1788164604097172700,0.6241728515625,-0.6255769729614258,0.4707069993019104,1.2400850057601929
1788164604107263200,0.63426318359375,-1.6568269729614258,-0.25502800941467285,0.01670300029218197
1788164604117344800,0.6443447265625,2.19760799407959,-3.090226888656616,-0.33670300245285034
1788164604127431200,0.65443115234375,5.734344005584717,-5.2645158767700195,-0.995477020740509
1788164604137509400,0.66450927734375,4.634378910064697,-5.303765773773193,-3.474932909011841
1788164604147595800,0.674595703125,3.381165027618408,-4.261200904846191,-2.0749659538269043
1788164604157686500,0.6846865234375,2.982146978378296,-2.40848708152771,-0.04020500183105469
1788164604167774000,0.69477392578125,3.4970409870147705,-0.6686890125274658,0.4339179992675781
1788164604177859300,0.704859375,7.012499809265137,-3.1925110816955566,-0.8100110292434692
1788164604187950800,0.714950927734375,3.1458230018615723,-1.407796025276184,1.1045689582824707
1788164604198033000,0.725032958984375,1.4328370094299316,-2.191118001937866,0.06238900125026703
1788164604208118800,0.735118896484375,0.22005000710487366,-1.228734016418457,0.5147420167922974
1788164604218197800,0.74519775390625,0.09429299831390381,-0.6854689717292786,-0.12240400165319443
1788164604228287000,0.755286865234375,1.5677640438079834,-1.518272042274475,-0.32760900259017944
1788164604238364000,0.765364013671875,3.3639090061187744,-2.0359389781951904,-0.7593700289726257
1788164604248448800,0.77544873046875,3.1331100463867188,-2.5329270362854004,-1.3292549848556519
1788164604258537500,0.785537353515625,-1.7901959419250488,-0.29016900062561035,-2.3900630474090576
1788164604268627500,0.79562744140625,-3.2134909629821777,2.996148109436035,-2.9585258960723877
1788164604278715100,0.805715087890625,-1.8485419750213623,1.069234013557434,-2.5808770656585693
1788164604288811800,0.815811767578125,-2.5199389457702637,-1.962594985961914,-1.7894459962844849
1788164604298904300,0.825904296875,-2.115267038345337,-3.7898709774017334,0.3937999904155731
1788164604308977200,0.83597705078125,-3.1431989669799805,-2.9897100925445557,0.2499610036611557
1788164604319063000,0.84606298828125,-4.4501447677612305,-2.1056830883026123,-0.4756320118904114
1788164604329149700,0.856149658203125,-5.210993766784668,-1.6861310005187988,-0.726203978061676
1788164604339240700,0.86624072265625,-4.691473007202148,-1.930387020111084,-0.6631810069084167
1788164604349337000,0.876337158203125,-5.236633777618408,-3.1720049381256104,0.3762960135936737
1788164604359431000,0.886430908203125,-5.293999195098877,-2.9126060009002686,0.9437159895896912
1788164604369518300,0.896518310546875,-5.036048889160156,-2.467081069946289,1.363152027130127
1788164604379603500,0.906603515625,-4.995026111602783,-2.9971330165863037,2.8722400665283203
1788164604389693700,0.916693603515625,-4.741812229156494,-3.613105058670044,3.355556011199951
1788164604399777000,0.926777099609375,-3.9557509422302246,-3.750282049179077,3.0823330879211426
1788164604409867500,0.936867431640625,-2.5283830165863037,-3.204456090927124,2.8198139667510986
1788164604419954200,0.9469541015625,-0.7768440246582031,-2.7532401084899902,3.1118059158325195
1788164604430046200,0.957046142578125,0.6965330243110657,-2.37420392036438,3.4595649242401123
1788164604440132000,0.967132080078125,1.2966350317001343,-2.3148529529571533,3.888935089111328
1788164604450225200,0.97722509765625,1.3037790060043335,-2.8587520122528076,4.247265815734863
1788164604460316200,0.987316162109375,1.8216320276260376,-3.199333906173706,4.4315009117126465
1788164604470400500,0.997400390625,3.17303204536438,-3.153218984603882,3.821017026901245
1788164604480485600,1.007485595703125,4.182188034057617,-2.3492159843444824,2.718113899230957
1788164604490573600,1.017573486328125,3.875586986541748,-1.4752670526504517,2.6603689193725586
1788164604500659000,1.027658935546875,3.510267972946167,-1.0911860466003418,2.8128321170806885
1788164604510743600,1.03774365234375,3.8994739055633545,-0.8928009867668152,2.931433916091919
1788164604520832500,1.04783251953125,4.105094909667969,-1.0639879703521729,2.702660083770752
1788164604530923000,1.057923095703125,5.179734230041504,-1.462764024734497,1.8815159797668457
1788164604541006300,1.06800634765625,6.471129894256592,-1.3692519664764404,1.0766229629516602
1788164604551095300,1.07809521484375,6.1780500411987305,-1.7871049642562866,1.5000790357589722
1788164604561179600,1.0881796875,5.909474849700928,-0.2735779881477356,0.7115870118141174
1788164604571264300,1.09826416015625,4.697352886199951,0.330390989780426,0.0016070000128820539
1788164604581348600,1.1083486328125,3.8905880451202393,0.30069899559020996,-0.4652029871940613
1788164604591440400,1.1184404296875,4.957151889801025,1.6757500171661377,-2.161228895187378
1788164604601519400,1.128519287109375,5.514349937438965,2.3335111141204834,-3.329819917678833
1788164604611606500,1.1386064453125,6.302646160125732,1.7629810571670532,-2.8844690322875977
1788164604621691600,1.148691650390625,6.852884769439697,1.4244409799575806,-2.875901937484741
1788164604631781400,1.158781494140625,6.000438213348389,2.033536911010742,-2.7570390701293945
1788164604641875500,1.16887548828125,3.4237990379333496,2.9028658866882324,-3.1967151165008545
1788164604651965200,1.178965087890625,1.797253966331482,3.9629878997802734,-4.323988914489746
1788164604662048300,1.18904833984375,1.5383139848709106,4.644715785980225,-4.891012191772461
1788164604672144000,1.199143798828125,2.2103700637817383,4.792720794677734,-4.740334987640381
1788164604682231800,1.209231689453125,3.170491933822632,4.3048858642578125,-3.6914238929748535
1788164604692328000,1.219327880859375,3.607067108154297,3.7397570610046387,-2.6317338943481445
1788164604702417000,1.2294169921875,3.2743239402770996,3.646404981613159,-2.0169079303741455
1788164604712499500,1.23949951171875,2.6049389839172363,3.825634002685547,-1.9320449829101562
1788164604722588000,1.249587890625,1.1126810312271118,4.5913591384887695,-3.024729013442993
1788164604732681500,1.259681396484375,-0.27424100041389465,5.2060627937316895,-3.498105049133301
1788164604742767400,1.269767333984375,-0.6511260271072388,4.800159931182861,-2.719041109085083
1788164604752858400,1.2798583984375,-0.012759000062942505,3.8303229808807373,-0.8374239802360535
1788164604762945800,1.28994580078125,0.5486260056495667,3.1472880840301514,-1.0186790227890015
1788164604773026800,1.30002685546875,0.7881540060043335,3.0744450092315674,-1.4526209831237793
1788164604783116500,1.310116455078125,0.1327580064535141,3.0751399993896484,-1.2069610357284546
1788164604793209600,1.320209716796875,-2.5145978927612305,3.1072280406951904,-0.8656700253486633
1788164604803293000,1.33029296875,-4.137287139892578,3.2395379543304443,-1.0261549949645996
1788164604813389600,1.3403896484375,-5.262392044067383,3.169527053833008,-0.5637999773025513
1788164604823473000,1.350472900390625,-5.7092180252075195,2.571460008621216,0.7614799737930298
1788164604833559600,1.3605595703125,-9.385916709899902,2.3094708919525146,1.6657990217208862
1788164604843638000,1.370637939453125,-10.131596565246582,1.8392469882965088,1.7808279991149902
1788164604853725000,1.380724853515625,-8.291666030883789,1.8300869464874268,0.904125988483429
1788164604863807200,1.39080712890625,-6.032334804534912,1.9630800485610962,-0.25797098875045776
1788164604873897000,1.40089697265625,-3.3852970600128174,2.268254041671753,-0.9634990096092224
1788164604883983000,1.410983154296875,-2.812757968902588,1.4091689586639404,0.4600349962711334
1788164604894074000,1.42107421875,-3.1304500102996826,0.6085900068283081,2.1279048919677734
1788164604904166000,1.431165771484375,-2.91200590133667,-0.09839800000190735,2.3722500801086426
1788164604914260500,1.441260498046875,-1.6237549781799316,-0.34344398975372314,2.5810320377349854
1788164604924348700,1.4513486328125,-1.329509973526001,-0.043901000171899796,2.650820016860962
1788164604934430700,1.4614306640625,-0.8950459957122803,0.23720699548721313,2.5719220638275146
1788164604944514300,1.471514404296875,-0.1676270067691803,0.5072420239448547,1.8614380359649658
1788164604954602000,1.48160205078125,1.3419580459594727,0.5782449841499329,2.313936948776245
1788164604964691200,1.491691162109375,-0.3913249969482422,0.8518869876861572,2.524707078933716
1788164604974778400,1.5017783203125,0.04566900059580803,0.0029720000457018614,5.16290807723999
1788164604984897500,1.5118974609375,0.6994050145149231,-2.1356310844421387,3.5781331062316895
1788164604994981600,1.521981689453125,2.631195068359375,-4.986739158630371,2.43818998336792
1788164605005071000,1.532071044921875,4.330759048461914,-5.622385025024414,1.897994041442871
1788164605015160000,1.54216015625,5.040290832519531,-5.9214301109313965,6.233020782470703
1788164605025256200,1.552256103515625,2.733633041381836,-4.651639938354492,-0.8333979845046997
1788164605035347200,1.56234716796875,1.043516993522644,-2.9826090335845947,-5.235301971435547
1788164605045442600,1.572442626953125,-1.8880599737167358,-0.5827779769897461,-3.6235740184783936
1788164605055527200,1.582527099609375,-1.8437559604644775,-0.2803730070590973,-0.130731001496315
1788164605065614600,1.592614501953125,0.35047000646591187,-0.5241209864616394,-1.2007110118865967
1788164605075698200,1.6026982421875,-0.5903990268707275,-0.6545739769935608,-4.472047805786133
1788164605085786400,1.612786376953125,1.810073971748352,-0.45333001017570496,-5.556777000427246
1788164605105956900,1.632956787109375,0.8215680122375488,-1.9269850254058838,-8.478797912597656
1788164605116041000,1.643041015625,3.6267480850219727,-4.019314765930176,-7.046360969543457
1788164605126119200,1.653119140625,2.266408920288086,-5.068737030029297,-4.44583797454834
1788164605136205000,1.663205078125,-1.7240970134735107,-5.394069194793701,-0.8761910200119019
1788164605146295300,1.67329541015625,-4.222858905792236,-2.7457809448242188,1.5539050102233887
1788164605156378400,1.68337841796875,-3.5178399085998535,-1.1927679777145386,0.6295080184936523
1788164605166471200,1.69347119140625,-2.2039480209350586,-0.7580779790878296,-0.9639480113983154
1788164605176550100,1.703550048828125,-1.099755048751831,-1.2745360136032104,-1.3966710567474365
1788164605186635300,1.71363525390625,-0.06249900162220001,-1.7489559650421143,-1.243283987045288
1788164605196721700,1.7237216796875,-0.07669100165367126,-2.4554479122161865,-1.7837589979171753
1788164605206815000,1.73381494140625,-0.13833600282669067,-2.2381210327148438,-3.132875919342041
1788164605216897000,1.74389697265625,0.27643799781799316,-1.3280010223388672,-2.8994500637054443
1788164605226978000,1.75397802734375,-0.6538079977035522,-3.9383199214935303,-1.8347740173339844
1788164605237062700,1.764062744140625,-1.5060689449310303,-6.3437042236328125,-1.3537310361862183
1788164605247142700,1.774142578125,-0.20316900312900543,-4.939070224761963,-2.088144063949585
1788164605257225200,1.78422509765625,1.644914984703064,-3.0649309158325195,-2.658752918243408
1788164605267320000,1.794320068359375,1.9801290035247803,-2.5183451175689697,-1.238901972770691
1788164605277398800,1.804398681640625,1.9197969436645508,-2.3566019535064697,0.915427029132843
1788164605287488500,1.814488525390625,1.7434779405593872,-1.8565800189971924,3.604170083999634
1788164605297564200,1.824564208984375,2.5887179374694824,-2.4652700424194336,6.373455047607422
1788164605307653600,1.834653564453125,3.7339560985565186,-2.7117209434509277,8.447854995727539
1788164605317754000,1.844754150390625,5.500426769256592,-2.4105069637298584,9.325881958007812
1788164605327842600,1.854842529296875,5.276082992553711,-0.2923949956893921,9.150728225708008
1788164605337924600,1.864924560546875,-2.3138020038604736,3.280184030532837,6.458706855773926
1788164605348015000,1.87501513671875,-10.367884635925293,9.394171714782715,-0.3057200014591217
1788164605358100200,1.885100341796875,-7.600320816040039,10.38292407989502,-3.9099578857421875
1788164605368187000,1.895186767578125,-3.7249600887298584,8.594195365905762,-5.998682975769043
1788164605378279400,1.905279541015625,0.8097730278968811,3.4906070232391357,-4.619166851043701
1788164605388365000,1.915364990234375,1.5335279703140259,-4.0411481857299805,-0.27898499369621277
1788164605398452200,1.9254521484375,1.3437089920043945,-7.706942081451416,3.5842089653015137
1788164605408539600,1.93553955078125,6.589807033538818,-1.782520055770874,2.5866410732269287
1788164605418625500,1.94562548828125,3.0794239044189453,3.677098035812378,-2.169879913330078
1788164605428717300,1.95571728515625,-3.198997974395752,5.427943229675293,-4.728876113891602
1788164605438802200,1.96580224609375,-2.746601104736328,4.571531772613525,-3.608654022216797
1788164605448889900,1.975889892578125,-1.3810770511627197,1.9499050378799438,-1.453922986984253
1788164605458987000,1.985987060546875,-2.316781997680664,-0.3098810017108917,-0.03350900113582611
1788164605469074400,1.996074462890625,0.6653339862823486,-0.13822799921035767,1.386072039604187
1788164605479155200,2.0061552734375,1.7111749649047852,1.450042963027954,1.352221965789795
1788164605489252000,2.016252197265625,0.765250027179718,5.343714237213135,-0.5573379993438721
1788164605499342800,2.0263427734375,0.20634999871253967,6.558206081390381,-1.2782390117645264
1788164605509437700,2.036437744140625,-0.40507999062538147,7.284177780151367,-1.5673589706420898
1788164605519521500,2.046521484375,-0.2395929992198944,7.826776027679443,-1.662706971168518
1788164605529609200,2.056609130859375,1.2776800394058228,7.322312831878662,-1.2027369737625122
1788164605539694600,2.066694580078125,2.1594200134277344,7.144752025604248,-1.8066179752349854
1788164605549785000,2.07678515625,1.8969570398330688,5.637528896331787,-1.7925479412078857
1788164605559868400,2.086868408203125,0.7910709977149963,3.1869349479675293,0.2154269963502884
1788164605569958700,2.096958740234375,-0.507856011390686,1.3259730339050293,1.771528959274292
1788164605580043800,2.107043701171875,-1.6883879899978638,-1.186805009841919,0.37311801314353943
1788164605590136600,2.117136474609375,-2.9806559085845947,-1.6875020265579224,-1.780750036239624
1788164605600219000,2.127218994140625,3.6827659606933594,-1.1170459985733032,-1.640212059020996
1788164605610310000,2.137309814453125,5.758800983428955,0.38437798619270325,-2.7801530361175537
1788164605620395800,2.147395751953125,7.285884857177734,-0.4191359877586365,-2.4105730056762695
1788164605630483700,2.157483642578125,1.3262410163879395,-0.4598209857940674,-3.9458789825439453
1788164605640568000,2.167568115234375,-3.598673105239868,-6.123349189758301,-3.986715078353882
1788164605650657500,2.177657470703125,-7.556234836578369,-9.344416618347168,-4.865233898162842
1788164605660743400,2.187743408203125,-5.4762139320373535,-8.941474914550781,-9.357044219970703
1788164605670832600,2.19783251953125,4.548027992248535,-8.233257293701172,-6.028950214385986
1788164605680919300,2.207919189453125,3.3767969608306885,-6.131025791168213,-0.40874698758125305
1788164605691004400,2.21800439453125,1.4478479623794556,-3.888295888900757,2.641429901123047
1788164605701091300,2.22809130859375,3.1719589233398438,-2.4288759231567383,4.171298027038574
1788164605711180500,2.2381806640625,4.21385383605957,-0.7716659903526306,5.323787212371826
1788164605721265400,2.248265380859375,5.081565856933594,-1.1032030582427979,7.8309102058410645
1788164605731358000,2.25835791015625,4.357522010803223,-0.5859529972076416,6.383595943450928
1788164605741439200,2.268439208984375,3.7962090969085693,0.15115900337696075,2.2785708904266357
1788164605751528000,2.27852783203125,3.309886932373047,0.41618800163269043,-0.6152039766311646
1788164605761625000,2.288625,3.120711088180542,-0.23365800082683563,-1.1123770475387573
1788164605771716900,2.298716796875,3.0498909950256348,-1.621016025543213,-0.6348620057106018
1788164605781798100,2.308798095703125,3.0772249698638916,-2.168833017349243,-0.23138000071048737
1788164605791889400,2.318889404296875,2.485995054244995,-0.059748999774456024,-0.7039300203323364
1788164605801974000,2.32897412109375,0.3650420010089874,1.1855870485305786,-0.14585499465465546
1788164605812069000,2.339069091796875,-0.14409300684928894,1.3817529678344727,0.06758599728345871
1788164605822146300,2.349146240234375,-2.899406909942627,2.3165390491485596,0.3633979856967926
1788164605832233200,2.359233154296875,-5.587728023529053,3.0230660438537598,-0.8098120093345642
1788164605842317000,2.369317138671875,-3.8501129150390625,3.3146910667419434,-1.3846830129623413
1788164605852419600,2.379419677734375,-0.7058460116386414,3.1152029037475586,-2.042314052581787
1788164605862504400,2.38950439453125,-0.1549520045518875,2.203265905380249,-2.4768218994140625
1788164605872599800,2.399599853515625,-1.9026050567626953,-0.8780009746551514,-1.1531189680099487
1788164605882690300,2.409690185546875,0.0771619975566864,-1.1545130014419556,0.8864009976387024
1788164605892780000,2.419780029296875,0.07046400010585785,-1.0293279886245728,1.5889309644699097
1788164605902860800,2.42986083984375,-0.7422130107879639,-0.5306689739227295,1.8133339881896973
1788164605912953900,2.439953857421875,-1.175827980041504,-0.4782480001449585,2.307302951812744
1788164605923041000,2.450041015625,-6.03941011428833,-0.466729998588562,2.709731101989746
1788164605933123000,2.460123046875,0.7151489853858948,0.06817899644374847,1.0265259742736816
1788164605943209500,2.47020947265625,4.3589630126953125,0.04096699878573418,-2.927273988723755
1788164605953300200,2.48030029296875,5.285889148712158,0.1734520047903061,-4.621291160583496
1788164605963381500,2.490381591796875,4.207912921905518,-0.6239089965820312,-5.903439044952393
1788164605973475000,2.50047509765625,-2.070755958557129,-1.3914120197296143,-5.544816017150879
1788164605983558700,2.51055859375,-1.550704002380371,1.4393869638442993,-3.8036649227142334
1788164605993652200,2.52065234375,-0.4861859977245331,0.8488150238990784,-1.4149349927902222
1788164606003737900,2.53073779296875,-0.7154629826545715,-0.4563249945640564,-0.35622701048851013
1788164606013828400,2.540828369140625,-0.749891996383667,-0.7865899801254272,0.14455799758434296
1788164606023927600,2.550927490234375,-1.40556001663208,-2.798482894897461,2.2092630863189697
1788164606034010600,2.5610107421875,-1.1017630100250244,-5.057715892791748,3.3279850482940674
1788164606044092000,2.571091796875,-0.9615060091018677,-6.521681785583496,4.0555877685546875
1788164606054189800,2.58118994140625,-0.5209540128707886,-3.993311882019043,2.6812028884887695
1788164606064275200,2.591275146484375,-1.3160309791564941,-1.1782749891281128,0.6682199835777283
1788164606084447500,2.611447509765625,-0.42137300968170166,-0.7346429824829102,0.4810729920864105
1788164606104618500,2.631618408203125,-0.09511599689722061,-1.5601240396499634,3.2059590816497803
1788164606114702800,2.641702880859375,0.14479300379753113,-1.8675789833068848,2.5697999000549316
1788164606124792600,2.65179248046875,0.641514003276825,-1.4660439491271973,1.258381962776184
1788164606134881500,2.661881591796875,1.4009000062942505,-0.49545198678970337,-0.9181950092315674
1788164606144977400,2.671977294921875,2.817121982574463,0.20463399589061737,-5.007275104522705
1788164606185345800,2.712345703125,-3.0019779205322266,5.446107864379883,-9.971771240234375
1788164606195440000,2.722440185546875,-1.4524669647216797,6.307643890380859,-7.06117582321167
1788164606205572600,2.732572509765625,-0.8355519771575928,5.055551052093506,-4.559360980987549
1788164606215654000,2.74265380859375,0.9319270253181458,4.88102912902832,-2.354037046432495
1788164606225747500,2.75274755859375,2.030534029006958,4.599116802215576,-1.836313009262085
1788164606235831300,2.762831298828125,3.7420411109924316,3.4128310680389404,-0.5241529941558838
1788164606256005000,2.783005126953125,4.686215877532959,5.185147762298584,-1.2169189453125
1788164606266090200,2.79309033203125,-0.9593219757080078,7.261007785797119,-3.168644905090332
1788164606286266400,2.813266357421875,-6.310856819152832,6.644529819488525,-3.5491299629211426
1788164606306439200,2.833439208984375,-1.2209999561309814,-0.9143139719963074,-0.9232339859008789
1788164606316525300,2.843525390625,1.8586549758911133,1.2023229598999023,-2.783078908920288
1788164606326610200,2.853610107421875,5.1745710372924805,0.8559309840202332,-3.3455660343170166
1788164606336698000,2.863697998046875,5.331827163696289,3.5029048919677734,-5.508409023284912
1788164606346786300,2.873786376953125,2.136096954345703,5.741762161254883,-6.108528137207031
1788164606356873700,2.883873779296875,-1.5830559730529785,2.627279043197632,-3.2933149337768555
1788164606366962000,2.8939619140625,-1.0580159425735474,-3.1184420585632324,0.32544299960136414
1788164606377046000,2.9040458984375,1.9287749528884888,10.271685600280762,3.449942111968994
1788164606387134500,2.914134521484375,4.492023944854736,-3.731092929840088,16.775188446044922
1788164606397225200,2.92422509765625,4.047447204589844,-12.041866302490234,15.007222175598145
1788164606407320300,2.9343203125,-3.255608081817627,-12.339099884033203,7.555633068084717
1788164606417400800,2.94440087890625,-7.572579860687256,-14.249185562133789,2.0191640853881836
1788164606427488000,2.954488037109375,-5.200356960296631,-13.617151260375977,-0.3271600008010864
1788164606437573600,2.96457373046875,-0.6178950071334839,-2.4636640548706055,-4.764121055603027
1788164606447666200,2.974666259765625,2.369879961013794,2.822366952896118,-6.154583930969238
1788164606457753600,2.984753662109375,4.258153915405273,3.469283103942871,-3.6108510494232178
1788164606467844000,2.994843994140625,4.9213128089904785,1.8600620031356812,-0.6569709777832031
1788164606477923800,3.004923828125,5.726659774780273,-0.45792099833488464,1.7390769720077515
1788164606488013800,3.015013916015625,1.2840880155563354,-0.9444180130958557,2.112359046936035
1788164606498098000,3.025097900390625,0.11390899866819382,-0.5254200100898743,1.968108057975769
1788164606508185000,3.03518505859375,1.5412559509277344,-0.6555609703063965,2.1370959281921387
1788164606518280400,3.045280517578125,5.683081150054932,-0.34166499972343445,0.01846200041472912
1788164606528370000,3.055369873046875,5.963572025299072,-0.9722499847412109,1.4143600463867188
1788164606538457900,3.065457763671875,2.130284070968628,-1.4299700260162354,2.85256290435791
1788164606548544500,3.07554443359375,-7.093285083770752,0.04210500046610832,0.731436014175415
1788164606558630100,3.085630126953125,-3.349479913711548,1.516319990158081,-0.8606089949607849
1788164606568718600,3.095718505859375,-1.9582760334014893,1.6323070526123047,-0.7759829759597778
1788164606578805000,3.105804931640625,-2.9193050861358643,1.7818230390548706,-0.4276689887046814
1788164606588914400,3.11591455078125,-3.009413957595825,1.2246370315551758,-0.2654789984226227
1788164606598999300,3.125999267578125,-2.1970980167388916,1.118388056755066,-1.2235169410705566
1788164606609088300,3.136088134765625,-1.1075760126113892,0.38589900732040405,-1.204468011856079
1788164606619170300,3.14617041015625,0.05259300023317337,-0.5409290194511414,-1.4076440334320068
1788164606629267200,3.15626708984375,1.2857589721679688,-1.0009750127792358,-1.8342649936676025
1788164606639351000,3.16635107421875,1.1773940324783325,-1.0150929689407349,-2.3745810985565186
1788164606649439700,3.176439697265625,0.5625360012054443,-1.2316449880599976,-2.3647239208221436
1788164606659519000,3.18651904296875,-0.06083500012755394,-1.1889289617538452,-1.598760962486267
1788164606669608700,3.196608642578125,-0.1709980070590973,-0.642071008682251,-0.9547880291938782
1788164606679699200,3.20669921875,-0.0603020004928112,0.16888299584388733,-0.6416599750518799
1788164606689790000,3.2167900390625,0.09383600205183029,0.5534520149230957,0.02765600010752678
1788164606699875300,3.226875244140625,-0.25085699558258057,0.8769050240516663,0.5735639929771423
1788164606709966800,3.236966796875,-0.5750539898872375,0.753633975982666,0.8849920034408569
1788164606720055600,3.2470556640625,0.03972199931740761,0.22373799979686737,1.6480200290679932
1788164606730141400,3.257141357421875,-0.23041300475597382,-0.35183000564575195,1.2142729759216309
1788164606740229000,3.26722900390625,-0.050287000834941864,-0.4159640073776245,0.6916900277137756
1788164606750318000,3.277318115234375,-0.34666600823402405,-0.25503700971603394,-0.029440000653266907
1788164606760404000,3.287404052734375,-0.17166399955749512,-0.048666998744010925,-0.46531200408935547
1788164606770493200,3.2974931640625,-0.026706000789999962,0.23162800073623657,-0.7143239974975586
1788164606780574000,3.307573974609375,0.09518600255250931,0.15025900304317474,-0.4717999994754791
1788164606790664200,3.317664306640625,0.12760500609874725,0.4048520028591156,-0.6881849765777588
1788164606800748000,3.327748046875,-0.06716299802064896,0.5081679821014404,-0.13577599823474884
1788164606810833000,3.3378330078125,0.20790700614452362,0.36454200744628906,0.23492099344730377
1788164606820915200,3.347915283203125,0.974183976650238,-0.18632599711418152,0.5365650057792664
1788164606831003100,3.358003173828125,4.157585144042969,-0.2812559902667999,0.5062130093574524
1788164606841091300,3.36809130859375,2.2718870639801025,0.3736400008201599,0.11425899714231491
1788164606851178500,3.378178466796875,2.152085065841675,0.02354400046169758,0.8922299742698669
1788164606861266200,3.38826611328125,-3.003458023071289,0.3651910126209259,0.25973498821258545
1788164606871356700,3.398356689453125,-3.0217769145965576,0.11485999822616577,0.14949700236320496
1788164606881440500,3.4084404296875,1.049612045288086,0.1898449957370758,-0.41061100363731384
1788164606891534600,3.41853466796875,0.14937399327754974,-0.7629079818725586,0.24128200113773346
1788164606901614800,3.42861474609375,-2.207003116607666,-2.326878070831299,0.7346330285072327
1788164606911704800,3.438704833984375,-2.1789140701293945,-2.489922046661377,0.5192409753799438
1788164606921784300,3.448784423828125,-1.5954680442810059,-1.7760939598083496,0.13401199877262115
1788164606931872000,3.4588720703125,-1.5672279596328735,-0.8942949771881104,-0.43125298619270325
1788164606941954800,3.468954833984375,-1.3524270057678223,-0.1504260003566742,-0.23350800573825836
1788164606952038000,3.479037841796875,-0.8613240122795105,1.4345730543136597,0.10459700226783752
1788164606962133500,3.489133544921875,1.489361047744751,2.7003049850463867,0.5115209817886353
1788164606972229400,3.4992294921875,3.004581928253174,2.127652883529663,0.9118160009384155
1788164606982308000,3.50930810546875,1.79646897315979,0.6483259797096252,0.8280259966850281
1788164606992398800,3.51939892578125,0.9781990051269531,-0.31004899740219116,0.6262879967689514
1788164607002480600,3.529480712890625,0.022376999258995056,-0.6170989871025085,-0.2839289903640747
1788164607012571600,3.539571533203125,-1.6559809446334839,-0.5517560243606567,-0.7534319758415222
1788164607022658000,3.549657958984375,-1.1949880123138428,0.8003699779510498,-1.3604329824447632
1788164607032747800,3.559747802734375,-1.3562439680099487,0.8348730206489563,-1.2233999967575073
1788164607042835700,3.569835693359375,-1.6916749477386475,0.13443300127983093,-0.5448099970817566
1788164607052928300,3.57992822265625,-1.0167100429534912,0.36190998554229736,-0.39368999004364014
1788164607063007200,3.59000732421875,-0.6542090177536011,0.8462200164794922,-0.5384169816970825
1788164607073097500,3.600097412109375,-1.5711899995803833,0.6364060044288635,-0.22654299437999725
1788164607083186700,3.610186767578125,0.174562007188797,-0.005109000019729137,0.5893790125846863
1788164607093274000,3.620274169921875,1.7564979791641235,-0.5096619725227356,1.1465829610824585
1788164607103356200,3.630356201171875,2.5685620307922363,-0.3776620030403137,0.7206090092658997
1788164607113445000,3.640445068359375,1.9182970523834229,-0.07623600214719772,0.3708310127258301
1788164607123523600,3.650523681640625,0.8979840278625488,-0.7194880247116089,0.4752669930458069
1788164607133619200,3.660619140625,-0.5446119904518127,0.12686599791049957,-0.6258990168571472
1788164607143703300,3.670703369140625,-0.9354230165481567,-1.2677429914474487,0.22162200510501862
1788164607153793000,3.68079296875,-1.2839670181274414,-1.0188950300216675,-0.1997630000114441
1788164607163878400,3.69087841796875,-0.7437940239906311,-1.302865982055664,-0.3170579969882965
1788164607173968600,3.70096875,-0.08203800022602081,-0.2597010135650635,-0.4872860014438629
1788164607184053000,3.711052978515625,-0.050668999552726746,0.6929270029067993,-0.5336300134658813
1788164607194142700,3.721142822265625,0.545458972454071,1.1490089893341064,-1.0917099714279175
1788164607204226800,3.731226806640625,1.0223829746246338,1.78774094581604,-1.2321219444274902
1788164607214322000,3.741322021484375,0.16102899610996246,2.015566110610962,-1.0103470087051392
1788164607224405200,3.7514052734375,0.8522710204124451,2.154557943344116,-1.0634980201721191
1788164607234490600,3.76149072265625,2.0637478828430176,2.1476519107818604,-1.1240839958190918
1788164607244576500,3.771576416015625,0.7594590187072754,0.9937840104103088,-0.8919119834899902
1788164607254669300,3.78166943359375,-0.8985980153083801,-0.812853991985321,0.11684100329875946
1788164607264753700,3.791753662109375,-0.3789139986038208,-1.0487040281295776,-0.316087007522583
1788164607274838300,3.80183837890625,-0.4685699939727783,-0.5968210101127625,-0.5072150230407715
1788164607284934400,3.811934326171875,-0.9868630170822144,-0.9992700219154358,-0.08326400071382523
1788164607295024000,3.822024169921875,-0.8745290040969849,-2.086229085922241,0.5804499983787537
1788164607305114400,3.8321142578125,0.05318199843168259,-2.5194830894470215,0.26210400462150574
1788164607315204400,3.842204345703125,0.5607190132141113,-2.425394058227539,0.09104999899864197
1788164607325301200,3.85230126953125,0.24905699491500854,-0.7648940086364746,0.21125000715255737
1788164607335384600,3.862384521484375,-0.03884899988770485,-0.7169240117073059,0.4059309959411621
1788164607345476600,3.8724765625,0.10799500346183777,-1.2165260314941406,0.5419279932975769
1788164607355559400,3.882559326171875,-0.5590159893035889,-4.0116472244262695,1.4568250179290771
1788164607365665500,3.89266552734375,-1.236454963684082,-5.632244110107422,1.2353500127792358
1788164607375746800,3.902746826171875,-1.1401879787445068,-4.942415237426758,0.5763369798660278
1788164607385837600,3.912837646484375,-1.0859049558639526,-3.0137429237365723,0.7603870034217834
1788164607395921700,3.922921630859375,-2.2289960384368896,-1.3369410037994385,2.1073389053344727
1788164607406013400,3.933013427734375,-1.7531800270080566,0.36257699131965637,1.0852220058441162
1788164607416092200,3.943092041015625,-1.606044054031372,1.5861910581588745,0.7337430119514465
1788164607426175000,3.953175048828125,-0.3617599904537201,0.6590510010719299,3.146320104598999
1788164607436269300,3.963269287109375,1.5065840482711792,-0.23140999674797058,5.309879779815674
1788164607446361900,3.97336181640625,2.9376180171966553,2.5147879123687744,1.2061209678649902
1788164607456448800,3.98344873046875,4.9005842208862305,4.730179786682129,-1.00074303150177
1788164607466536400,3.993536376953125,3.9269299507141113,5.410245895385742,-1.706773042678833
1788164607476618500,4.003618408203125,1.7494360208511353,3.837475061416626,-0.493928998708725
1788164607486705400,4.013705322265625,0.1978839933872223,1.1298630237579346,0.16845400631427765
1788164607496785400,4.023785400390625,-0.6563509702682495,-0.128712996840477,-0.7674229741096497
1788164607506871600,4.03387158203125,-0.9048640131950378,-0.03125999867916107,-1.788625955581665
1788164607516966000,4.0439658203125,-0.30990999937057495,-1.0365400314331055,-1.7944309711456299
1788164607527054000,4.05405419921875,0.31943801045417786,-1.9381330013275146,-1.180812954902649
1788164607537133300,4.06413330078125,-0.5008789896965027,-2.13169002532959,-0.7574210166931152
1788164607547222500,4.074222412109375,-1.6453399658203125,-1.9606629610061646,-0.29243800044059753
1788164607557307600,4.0843076171875,-1.8738720417022705,-1.4077589511871338,-0.13042999804019928
1788164607567398400,4.0943984375,-1.4560840129852295,-0.6610000133514404,-0.1781580001115799
1788164607577475800,4.104475830078125,-0.9743720293045044,-0.05797199904918671,-0.14974799752235413
1788164607587562500,4.1145625,-0.5884420275688171,0.3355900049209595,-0.04261799901723862
1788164607597640400,4.124640380859375,-0.30015701055526733,0.4332999885082245,0.03329399973154068
1788164607607730700,4.134730712890625,-0.08342999964952469,0.4041459858417511,-0.10223300009965897
1788164607617814500,4.144814453125,-0.10785900056362152,0.4448170065879822,-0.5051530003547668
1788164607627901400,4.1549013671875,-0.07889799773693085,0.5747470259666443,-0.8851029872894287
1788164607637986000,4.164986083984375,-0.1268959939479828,0.7367979884147644,-1.3475890159606934
1788164607648078300,4.175078369140625,-0.296409010887146,0.789779007434845,-1.7265620231628418
1788164607658177800,4.185177734375,-0.3803499937057495,0.6801570057868958,-1.9953689575195312
1788164607668265000,4.195264892578125,-0.36947599053382874,0.42288100719451904,-1.9335030317306519
1788164607678352000,4.205351806640625,-0.24897000193595886,0.13019399344921112,-1.5841419696807861
1788164607688435200,4.215435302734375,-0.1484300047159195,-0.16993899643421173,-1.228113055229187
1788164607698523000,4.22552294921875,0.11781799793243408,-0.3783940076828003,-0.811037003993988
1788164607708611800,4.23561181640625,0.37886500358581543,-0.5337740182876587,-0.3535819947719574
1788164607718697200,4.245697265625,0.4336490035057068,-0.6517590284347534,0.17720399796962738
1788164607728786200,4.2557861328125,0.48056599497795105,-0.7101860046386719,0.7583249807357788
1788164607738868500,4.265868408203125,0.42072999477386475,-0.7190200090408325,1.2865149974822998
1788164607748962600,4.275962646484375,0.34196001291275024,-0.6821900010108948,1.7754950523376465
1788164607759048700,4.286048583984375,0.13610999286174774,-0.6064090132713318,2.0616650581359863
1788164607769130000,4.2961298828125,0.12773700058460236,-0.46663400530815125,2.1689560413360596
1788164607779217200,4.306217041015625,0.3674210011959076,-0.32221800088882446,2.1577401161193848
1788164607789312000,4.31631201171875,0.6531540155410767,-0.2870100140571594,2.1650490760803223
1788164607799395300,4.326395263671875,0.6641489863395691,-0.24540400505065918,2.199099063873291
1788164607809488100,4.336488037109375,0.7298790216445923,-0.2697640061378479,2.4140660762786865
1788164607819575800,4.346575927734375,0.674140989780426,-0.31316301226615906,2.6627769470214844
1788164607829657900,4.356657958984375,0.2921279966831207,-0.46050700545310974,2.778726100921631
1788164607839742000,4.366741943359375,0.13965199887752533,-0.6170110106468201,2.8583180904388428
1788164607849834200,4.376834228515625,0.162089005112648,-0.7929030060768127,2.5921790599823
1788164607859915300,4.386915283203125,-0.1775989979505539,-0.8383700251579285,1.778944969177246
1788164607870008600,4.397008544921875,-0.3350830078125,-0.7793220281600952,0.8010439872741699
1788164607880096300,4.40709619140625,-0.0779699981212616,-0.7243409752845764,0.1483979970216751
1788164607890184200,4.41718408203125,0.22112399339675903,-0.5970609784126282,-0.24961699545383453
1788164607900274200,4.427274169921875,0.3369100093841553,-0.43862301111221313,-0.502020001411438
1788164607910361900,4.43736181640625,0.5005249977111816,-0.4673680067062378,-0.39391499757766724
1788164607920438500,4.4474384765625,0.6596119999885559,-0.6920300126075745,-0.08170299977064133
1788164607930530800,4.45753076171875,0.45792898535728455,-0.9354320168495178,0.19862300157546997
1788164607940610300,4.4676103515625,0.3181230127811432,-1.1230649948120117,0.4694960117340088
1788164607950699300,4.47769921875,0.2805280089378357,-1.1295859813690186,0.7769650220870972
1788164607960779300,4.487779296875,0.0675249993801117,-0.9372460246086121,1.0453109741210938
1788164607970861600,4.497861572265625,-0.48286399245262146,-0.4810369908809662,1.1031830310821533
1788164607980947200,4.507947265625,-0.706512987613678,0.03243499994277954,1.0686039924621582
1788164607991038700,4.518038818359375,-0.7080360054969788,0.47408199310302734,0.8574399948120117
1788164608001118000,4.528117919921875,-0.6268159747123718,0.7188500165939331,0.5916739702224731
1788164608011209000,4.538208984375,-0.4648439884185791,0.729436993598938,0.31966400146484375
1788164608021290200,4.548290283203125,-0.21529999375343323,0.5568050146102905,0.11221499741077423
1788164608031381000,4.558381103515625,-0.165352001786232,0.4208559989929199,-0.222010999917984
1788164608041468400,4.568468505859375,-0.2630630135536194,0.3551270067691803,-0.7107120156288147
1788164608051550200,4.57855029296875,-0.15751400589942932,0.32242000102996826,-1.171267032623291
1788164608061632800,4.5886328125,0.004625000059604645,0.2699359953403473,-1.5875420570373535
1788164608071723500,4.5987236328125,0.10027000308036804,0.17144200205802917,-1.9024029970169067
1788164608081803500,4.608803466796875,0.3058910071849823,0.08295000344514847,-2.0022120475769043
1788164608091887000,4.61888720703125,0.5603749752044678,0.00445799995213747,-1.7314469814300537
1788164608101975800,4.628975830078125,0.42991799116134644,0.012476000003516674,-1.287093997001648
1788164608112068900,4.63906884765625,0.07917100191116333,0.10634800046682358,-0.9751110076904297
1788164608122175700,4.64917578125,-0.08118200302124023,0.16145099699497223,-0.5182449817657471
1788164608132271000,4.65927099609375,-0.25297999382019043,0.23838800191879272,-0.20443500578403473
1788164608142368300,4.6693681640625,-0.4296239912509918,0.2533870041370392,-0.004036999773234129
1788164608152454400,4.679454345703125,-0.48769301176071167,0.23895800113677979,0.12840500473976135
1788164608162543600,4.689543701171875,-0.4107919931411743,0.16243800520896912,0.3282809853553772
1788164608172635400,4.699635498046875,-0.4068709909915924,0.09550700336694717,0.5089769959449768
1788164608182725600,4.7097255859375,-0.5000270009040833,0.03206999972462654,0.48658400774002075
1788164608192820000,4.719820068359375,-0.15522600710391998,-0.13002300262451172,0.6754999756813049
1788164608202897700,4.729897705078125,0.11852999776601791,-0.1598230004310608,0.7040960192680359
1788164608212990500,4.739990478515625,0.23270100355148315,-0.19634200632572174,0.7217140197753906
1788164608223077000,4.7500771484375,0.3402250111103058,-0.24160100519657135,0.7112470269203186
1788164608233170000,4.760169921875,0.36150598526000977,-0.2765370011329651,0.6560279726982117
1788164608243260700,4.7702607421875,0.05951299890875816,-0.34894099831581116,0.5669190287590027
1788164608253352400,4.7803525390625,-0.4346649944782257,-0.3284980058670044,0.11534599959850311
1788164608263445000,4.790445068359375,-0.41040799021720886,-0.38739898800849915,-0.11271700263023376
1788164608273539800,4.800539794921875,-0.3794040083885193,-0.3573969900608063,-0.4201279878616333
1788164608283623700,4.810623779296875,-0.1724569946527481,-0.25905001163482666,-0.5649840235710144
1788164608293715500,4.820715576171875,0.03420399874448776,-0.22898000478744507,-0.5724020004272461
1788164608303825700,4.83082568359375,0.12793299555778503,-0.20590700209140778,-0.10892599821090698
1788164608313907200,4.8409072265625,-0.2695840001106262,-0.08459299802780151,0.21018600463867188
1788164608324003300,4.85100341796875,-0.4009999930858612,0.04764899984002113,0.1544339954853058
1788164608334091800,4.861091796875,-0.0731860026717186,-0.05325699970126152,0.2786409854888916
1788164608344183000,4.87118310546875,0.168286994099617,-0.04001900181174278,0.33502501249313354
1788164608354273500,4.8812734375,0.3471809923648834,0.0019160000374540687,0.11463700234889984
1788164608364361500,4.891361572265625,0.5488629937171936,-0.19166700541973114,0.34742501378059387
1788164608374441500,4.90144140625,0.2068219929933548,-0.23844699561595917,0.3644790053367615
1788164608384531700,4.91153173828125,0.07064399868249893,-0.20765900611877441,0.04617999866604805
1788164608394619000,4.921618896484375,0.12426800280809402,-0.23370899260044098,-0.12933200597763062
1788164608404706800,4.931706787109375,-0.03843799978494644,-0.33329200744628906,-0.5101339817047119
1788164608414794200,4.941794189453125,-0.04767100140452385,-0.33910199999809265,-0.7322890162467957
1788164608424886300,4.95188623046875,-0.28298598527908325,-0.24820099771022797,-0.7384819984436035
1788164608434973700,4.9619736328125,-0.40124499797821045,-0.04624899849295616,-1.0208489894866943
1788164608445066500,4.97206640625,-0.3452729880809784,0.11804600059986115,-1.0860060453414917
1788164608455161900,4.982161865234375,-0.19281700253486633,0.34256699681282043,-1.1685869693756104
1788164608465246500,4.99224658203125,-0.24633599817752838,0.5196359753608704,-0.8841750025749207
1788164608475341000,5.002341064453125,-0.3096599876880646,0.7284430265426636,-0.8164309859275818
1788164608485424400,5.01242431640625,0.007938999682664871,0.8001899719238281,-0.6065059900283813
1788164608495513900,5.022513916015625,0.13696399331092834,0.695065975189209,-0.4962669909000397
1788164608505595400,5.032595458984375,0.2012300044298172,0.6042199730873108,-0.3422420024871826
1788164608515687700,5.042687744140625,0.24148599803447723,0.5627089738845825,-0.3700050115585327
1788164608525767200,5.05276708984375,0.2639540135860443,0.5004680156707764,-0.44266998767852783
1788164608535859500,5.062859375,0.13670900464057922,0.3619210124015808,-0.3483850061893463
1788164608545941500,5.07294140625,-0.15814800560474396,0.3757829964160919,-0.36900898814201355
1788164608556034600,5.08303466796875,-0.24230200052261353,0.2754499912261963,-0.4153519868850708
1788164608566110000,5.09310986328125,-0.4860289990901947,0.15118199586868286,-0.19622400403022766
1788164608576201700,5.10320166015625,-0.6063889861106873,0.22489500045776367,-0.2881680130958557
1788164608586286800,5.113286865234375,-0.6756119728088379,0.29752400517463684,-0.49215999245643616
1788164608596366800,5.123366943359375,-0.6325500011444092,0.3213239908218384,0.11091600358486176
1788164608606447400,5.133447265625,-0.6597509980201721,0.5941320061683655,-0.10347100347280502
1788164608616531000,5.143531005859375,-0.70449298620224,1.0976150035858154,-0.6268230080604553
1788164608626609700,5.153609619140625,-0.3837510049343109,1.2142070531845093,0.041882000863552094
1788164608636694800,5.16369482421875,-0.5053769946098328,1.3828439712524414,0.10297799855470657
1788164608646777900,5.17377783203125,-0.45727500319480896,1.603958010673523,-0.41912901401519775
1788164608656866000,5.183865966796875,-0.46992000937461853,1.403756022453308,-0.266075998544693
1788164608666949600,5.19394970703125,-1.0438369512557983,1.0656650066375732,-0.1213190034031868
1788164608677040600,5.20404052734375,-1.3458629846572876,0.6573749780654907,-0.45796799659729004
1788164608687118800,5.214118896484375,-1.5009030103683472,0.2610720098018646,-0.6957039833068848
1788164608697200000,5.2242001953125,-1.792235016822815,-0.19509199261665344,-0.4535819888114929
1788164608707309600,5.2343095703125,-1.5364359617233276,-0.47124600410461426,-0.5937479734420776
1788164608717394700,5.244394775390625,-0.5589950084686279,-0.43004798889160156,-0.92364102602005
1788164608727471000,5.25447119140625,0.44699299335479736,-0.42714598774909973,-0.6234470009803772
1788164608737562400,5.264562255859375,1.1887739896774292,-0.33138200640678406,-0.227961003780365
1788164608747644700,5.274644775390625,0.8878589868545532,-0.3005560040473938,-0.12715399265289307
1788164608757724000,5.284723876953125,-0.0687360018491745,-0.4020420014858246,0.13559399545192719
1788164608767814000,5.29481396484375,-0.5190969705581665,-0.5350620150566101,0.20650799572467804
1788164608777892600,5.304892578125,-0.779017984867096,-0.6309319734573364,-0.21957999467849731
1788164608787982800,5.31498291015625,-0.911653995513916,-0.4767569899559021,-0.509876012802124
1788164608798061300,5.325061279296875,-0.6730530261993408,-0.16197699308395386,-0.602973997592926
1788164608808141600,5.3351416015625,-0.14477799832820892,0.18744200468063354,-0.7842530012130737
1788164608818245600,5.34524560546875,-0.21118299663066864,0.5185350179672241,-0.7982010245323181
1788164608828338200,5.355338134765625,-0.1509000062942505,0.5855510234832764,-0.17701299488544464
1788164608838415000,5.3654150390625,0.18952900171279907,0.4472469985485077,0.5314520001411438
1788164608848506400,5.37550634765625,-0.13662099838256836,0.5235999822616577,0.5439159870147705
1788164608858591200,5.38559130859375,-0.27779099345207214,0.46970799565315247,0.8326889872550964
1788164608868676000,5.395676025390625,0.11883000284433365,0.3257020115852356,0.8549669981002808
1788164608878762200,5.40576220703125,0.15557800233364105,0.29979199171066284,0.20960399508476257
1788164608888852500,5.4158525390625,0.06328800320625305,0.21872200071811676,-0.22348900139331818
1788164608898940400,5.4259404296875,0.3937230110168457,0.1444379985332489,-0.18113499879837036
1788164608909030400,5.436030517578125,0.18848800659179688,0.19791899621486664,-0.7723079919815063
1788164608919107300,5.446107421875,-0.07544299960136414,0.20167599618434906,-0.949400007724762
1788164608929194200,5.4561943359375,-0.11923699826002121,0.09733200073242188,-0.33702999353408813
1788164608939280100,5.466280029296875,-0.1784379929304123,0.19590400159358978,-0.4117079973220825
1788164608949375500,5.47637548828125,-0.3239380121231079,0.29734399914741516,-0.40836501121520996
1788164608959458300,5.486458251953125,-0.07473299652338028,0.32555198669433594,-0.044544000178575516
1788164608969545200,5.496545166015625,0.3147279918193817,0.41883501410484314,-0.12833400070667267
1788164608979630600,5.506630615234375,0.3620460033416748,0.43754199147224426,-0.4205560088157654
1788164608989720600,5.516720458984375,0.23032499849796295,0.2919049859046936,-0.2527570128440857
1788164608999807700,5.526807861328125,0.14700299501419067,0.03307899832725525,-0.36623600125312805
1788164609009896700,5.536896728515625,-0.45041900873184204,-0.2952300012111664,-1.147940993309021
1788164609019985000,5.54698486328125,-0.6333289742469788,-0.7411479949951172,-1.2331010103225708
1788164609030075600,5.55707568359375,-0.5756809711456299,-1.0460309982299805,-1.3040540218353271
1788164609040156000,5.567156005859375,-0.6734849810600281,-1.1161609888076782,-1.7882230281829834
1788164609050249200,5.577249267578125,-0.5398849844932556,-1.0355600118637085,-1.859434962272644
1788164609060338000,5.587337890625,-0.4674200117588043,-0.9676799774169922,-1.5887320041656494
1788164609070419200,5.597419189453125,-0.5943520069122314,-0.8646439909934998,-1.460055947303772
1788164609080499000,5.6074990234375,-0.6426370143890381,-0.6679850220680237,-1.3400330543518066
1788164609090589400,5.61758935546875,-0.32950299978256226,-0.5409259796142578,-1.1458159685134888
1788164609100674600,5.627674560546875,0.486268013715744,-0.4351600110530853,-0.9710260033607483
1788164609110763000,5.637762939453125,0.7923780083656311,-0.30240398645401,-0.5957130193710327
1788164609120849400,5.647849365234375,0.6518419981002808,-0.31398800015449524,0.23743100464344025
1788164609130940000,5.65793994140625,0.3946540057659149,-0.4040389955043793,1.2746059894561768
1788164609141027000,5.668027099609375,0.006130000110715628,-0.3182710111141205,1.7445039749145508
1788164609151111200,5.678111083984375,-0.04927099868655205,-0.1461150050163269,1.7660540342330933
1788164609161191200,5.688191162109375,0.26671698689460754,-0.1816679984331131,1.7585010528564453
1788164609171283500,5.698283447265625,0.49991700053215027,-0.12027399986982346,1.3745379447937012
1788164609181368600,5.70836865234375,0.7017449736595154,0.014372999779880047,0.9139180183410645
1788164609191459600,5.71845947265625,0.9768530130386353,0.033636000007390976,0.5600529909133911
1788164609201539300,5.728539306640625,1.107301950454712,-0.19268900156021118,0.21207299828529358
1788164609211628500,5.738628662109375,0.8077999949455261,-0.5421180129051208,-0.2746509909629822
1788164609221706200,5.748706298828125,0.5731179714202881,-1.075692057609558,-0.4985469877719879
1788164609231797000,5.758796875,0.30131301283836365,-1.510856032371521,-0.5690969824790955
1788164609241881300,5.76888134765625,0.44865500926971436,-1.795652985572815,-0.3707610070705414
1788164609251965400,5.77896533203125,0.9715589880943298,-1.9266350269317627,-0.03585200011730194
1788164609262057500,5.789057373046875,1.0036029815673828,-1.9136120080947876,0.3907940089702606
1788164609272148500,5.7991484375,0.17712800204753876,-1.6895339488983154,0.5312680006027222
1788164609282234000,5.809234130859375,-0.3100239932537079,-1.6738380193710327,0.7745800018310547
1788164609292324400,5.819324462890625,-0.012639000080525875,-1.55103600025177,1.266105055809021
1788164609302410200,5.82941015625,0.45436200499534607,-1.1819119453430176,1.6762700080871582
1788164609312494000,5.839494140625,0.7615450024604797,-0.7803199887275696,1.717208981513977
1788164609322580500,5.84958056640625,0.8896399736404419,-0.374767005443573,1.6179349422454834
1788164609332668200,5.859668212890625,0.2841089963912964,0.10175199806690216,1.0552860498428345
1788164609342754800,5.8697548828125,-0.6667029857635498,0.18516099452972412,0.3304620087146759
1788164609352842000,5.879842041015625,-1.248924970626831,-0.12363199889659882,-0.5132820010185242
1788164609362925600,5.889925537109375,-1.4333200454711914,-0.18233299255371094,-1.4846789836883545
1788164609373008100,5.900008056640625,-0.7631829977035522,-0.15400299429893494,-2.0387589931488037
1788164609383093000,5.910093017578125,-0.157260000705719,-0.32339900732040405,-2.2254579067230225
1788164609393181700,5.920181640625,-0.14506299793720245,-0.5587459802627563,-2.2123000621795654
1788164609403267300,5.930267333984375,-0.3805679976940155,-0.7059810161590576,-1.904736042022705
1788164609413358600,5.940358642578125,-0.36483898758888245,-0.6794379949569702,-1.625380039215088
1788164609423444200,5.9504443359375,-0.29561200737953186,-0.6738830208778381,-1.394948959350586
1788164609433531400,5.960531494140625,-0.32701000571250916,-0.6730179786682129,-1.0580339431762695
1788164609443612400,5.9706123046875,-0.3519049882888794,-0.584958016872406,-0.6699309945106506
1788164609453702100,5.9807021484375,-0.17612800002098083,-0.599465012550354,-0.30819201469421387
1788164609463783700,5.99078369140625,0.06863600015640259,-0.7695239782333374,0.17067700624465942
1788164609473873200,6.000873046875,-0.3603689968585968,-1.0540950298309326,0.5054709911346436
1788164609483961300,6.01096142578125,-0.6209200024604797,-1.4918270111083984,0.7226009964942932
1788164609494053000,6.02105322265625,-0.5253819823265076,-2.0215840339660645,1.277461051940918
1788164609504151300,6.0311513671875,-0.5278090238571167,-1.9197570085525513,1.9134479761123657
1788164609514246100,6.04124609375,-0.06759899854660034,-1.489537000656128,2.6699740886688232
1788164609524328000,6.051327880859375,-0.5581079721450806,-0.42922699451446533,1.9824409484863281
1788164609534423300,6.06142333984375,-0.07667700201272964,0.3494809865951538,0.9221590161323547
1788164609544506600,6.071506591796875,0.37191900610923767,0.8005269765853882,-0.39000600576400757
1788164609554593300,6.08159326171875,0.41572999954223633,0.7433940172195435,-1.7558430433273315
1788164609564681500,6.091681396484375,0.6991659998893738,0.11037600040435791,-2.2941269874572754
1788164609574774300,6.101774169921875,1.0516929626464844,-0.5401510000228882,-1.9289499521255493
1788164609584859600,6.111859619140625,1.2784709930419922,-0.8865870237350464,-0.7255160212516785
1788164609594954800,6.121954833984375,1.1382009983062744,-0.821196973323822,-0.04039299860596657
1788164609605048800,6.132048828125,1.3383009433746338,-0.3806770145893097,0.44600799679756165
1788164609615137300,6.14213720703125,1.2087600231170654,0.2474460005760193,0.604013979434967
1788164609625231000,6.152231201171875,0.5734949707984924,0.7449960112571716,0.2814219892024994
1788164609635323400,6.162323486328125,0.6165459752082825,0.7785300016403198,0.063120998442173
1788164609645406000,6.172406005859375,0.6454370021820068,0.6189370155334473,-0.12613099813461304
1788164609655539700,6.182539794921875,0.5157520174980164,0.3611980080604553,-0.28396499156951904
1788164609665632300,6.19263232421875,0.6687890291213989,0.012737000361084938,-0.4533059895038605
1788164609675709700,6.202709716796875,0.8171079754829407,-0.34311801195144653,-0.39556199312210083
1788164609685798000,6.2127978515625,0.6846140027046204,-0.5516409873962402,-0.3224389851093292
1788164609695880200,6.222880126953125,0.6184870004653931,-0.6852390170097351,-0.6039829850196838
1788164609705975300,6.232975341796875,1.0283629894256592,-0.7177600264549255,-0.7844589948654175
1788164609716061200,6.243061279296875,1.2893290519714355,-0.6627219915390015,-0.5761250257492065
1788164609726150100,6.253150146484375,1.302567958831787,-0.542743980884552,-0.30791500210762024
1788164609736234500,6.263234375,1.1276520490646362,-0.5450050234794617,0.04733999818563461
1788164609746323200,6.2733232421875,0.8804010152816772,-0.7247499823570251,0.5786150097846985
1788164609756399600,6.283399658203125,0.4592849910259247,-0.764378011226654,0.8998180031776428
1788164609766485500,6.293485595703125,-0.23172800242900848,-0.7825369834899902,0.7517079710960388
1788164609776569900,6.30356982421875,0.004958000034093857,-0.90938401222229,0.9857209920883179
1788164609786659000,6.3136591796875,0.050018999725580215,-0.928309977054596,1.2539169788360596
1788164609796737300,6.3237373046875,-0.09071099758148193,-0.9465849995613098,1.173045039176941
1788164609806821600,6.333821533203125,0.28868600726127625,-1.0018080472946167,1.1766380071640015
1788164609816904400,6.343904541015625,0.3233819901943207,-1.009232997894287,1.4209849834442139
1788164609826993200,6.3539931640625,0.1614139974117279,-0.9714630246162415,1.3410710096359253
1788164609837085000,6.3640849609375,0.2553969919681549,-1.0655790567398071,0.9831079840660095
1788164609847172600,6.374172607421875,0.5006250143051147,-1.0095460414886475,0.6514120101928711
1788164609857255200,6.384255126953125,0.44235000014305115,-0.8207809925079346,0.22888199985027313
1788164609867346200,6.39434619140625,0.5462160110473633,-0.5781350135803223,-0.33038800954818726
1788164609877422300,6.40442236328125,0.5716959834098816,-0.4751339852809906,-0.5156649947166443
1788164609887515600,6.414515625,0.6133480072021484,-0.37115201354026794,-0.43098899722099304
1788164609897591600,6.424591552734375,0.7478269934654236,-0.18787400424480438,-0.31178000569343567
1788164609907681800,6.434681884765625,0.10060200095176697,-0.1939380019903183,-0.32252299785614014
1788164609917767400,6.444767333984375,-0.2733969986438751,-0.4631980061531067,-0.10138099640607834
1788164609927855600,6.454855712890625,-0.4612570106983185,-0.4297100007534027,-0.29500600695610046
1788164609937932500,6.4649326171875,-0.6591709852218628,-0.34248098731040955,-0.7779399752616882
1788164609948021000,6.47502099609375,-0.5317620038986206,-0.2952759861946106,-1.1359020471572876
1788164609958098400,6.485098388671875,-0.4822860062122345,-0.22581200301647186,-1.52498197555542
1788164609968190200,6.495190185546875,-0.310371994972229,-0.13772499561309814,-1.857854962348938
1788164609978277400,6.50527734375,-0.43235400319099426,-0.2901810109615326,-1.7674859762191772
1788164609988371500,6.515371337890625,-0.5122029781341553,-0.7142980098724365,-1.5577930212020874
1788164609998449700,6.52544970703125,-0.7341129779815674,-0.9863399863243103,-1.7868540287017822
1788164610008544800,6.535544677734375,-0.9223269820213318,-1.100517988204956,-2.0369930267333984
1788164610018630400,6.54563037109375,-0.9623820185661316,-1.1105870008468628,-1.7927860021591187
1788164610028715800,6.5557158203125,-1.0379010438919067,-0.9702960252761841,-1.6402169466018677
1788164610038800400,6.56580029296875,-0.6035609841346741,-0.7301239967346191,-1.5562299489974976
1788164610048891400,6.575891357421875,-0.16790199279785156,-0.5640130043029785,-1.031743049621582
1788164610058977000,6.58597705078125,0.08092399686574936,-0.4965279996395111,-0.40262898802757263
1788164610069061400,6.596061279296875,0.002257999964058399,-0.5021250247955322,-0.17636699974536896
1788164610079143400,6.606143310546875,-0.07513800263404846,-0.5655969977378845,0.064069002866745
1788164610089244200,6.616244140625,0.05094200000166893,-0.7347570061683655,0.48970699310302734
1788164610099333600,6.626333740234375,0.115727998316288,-0.896236002445221,0.7251219749450684
1788164610109424000,6.636424072265625,0.2499230057001114,-0.7039290070533752,0.7497320175170898
1788164610119510300,6.64651025390625,0.4953570067882538,-0.4594700038433075,0.8722040057182312
1788164610129598500,6.656598388671875,0.7616429924964905,-0.28380200266838074,0.880810022354126
1788164610139676400,6.666676513671875,0.7453889846801758,-0.19717900454998016,0.8476139903068542
1788164610149768700,6.676768798828125,0.5694580078125,-0.10061000287532806,0.6313329935073853
1788164610159852500,6.6868525390625,0.5053499937057495,-0.05329800024628639,0.37168601155281067
1788164610169936100,6.69693603515625,0.374206006526947,0.0014410000294446945,0.06295199692249298
1788164610180024600,6.707024658203125,0.2397489994764328,0.058191001415252686,-0.27351999282836914
1788164610190111200,6.717111328125,0.07137999683618546,-0.03263000026345253,-0.4387719929218292
1788164610200200000,6.727199951171875,-0.10507100075483322,-0.12455400079488754,-0.6787779927253723
1788164610210288000,6.7372880859375,-0.20376500487327576,-0.0907059982419014,-0.9328359961509705
1788164610220380400,6.74738037109375,-0.35890400409698486,-0.07670000195503235,-1.274359941482544
1788164610230474500,6.757474609375,-0.09690800309181213,-0.22692300379276276,-1.2049859762191772
1788164610240560600,6.767560546875,-0.12971200048923492,-0.23907800018787384,-1.1579569578170776
1788164610250645200,6.777645263671875,-0.20093199610710144,-0.1854970008134842,-1.3318129777908325
1788164610260730000,6.787730224609375,-0.15249599516391754,-0.31448599696159363,-1.1292309761047363
1788164610270817300,6.7978173828125,-0.35193198919296265,-0.39577001333236694,-0.8918269872665405
1788164610280901000,6.807901123046875,-0.45194798707962036,-0.37283599376678467,-0.7599509954452515
1788164610290989800,6.81798974609375,-0.39320001006126404,-0.253807008266449,-0.573415994644165
1788164610301079000,6.8280791015625,-0.25092801451683044,-0.21887700259685516,-0.07662100344896317
1788164610311166000,6.838166015625,-0.3469899892807007,-0.12660400569438934,0.19342899322509766
1788164610321256200,6.848256103515625,-0.26096099615097046,0.004879999905824661,-0.11633399873971939
1788164610331346000,6.858345947265625,-0.1594730019569397,0.022082999348640442,-0.36632999777793884
1788164610341431800,6.868431884765625,-0.4142000079154968,-0.010212999768555164,-0.8267480134963989
1788164610351519500,6.87851953125,-0.4036099910736084,-0.012047000229358673,-1.277843952178955
1788164610361607200,6.888607177734375,-0.2670530080795288,-0.029697999358177185,-1.6125409603118896
1788164610371697700,6.89869775390625,0.012330999597907066,-0.15112200379371643,-1.5312410593032837
1788164610381778200,6.908778076171875,-0.03649500012397766,-0.3084990084171295,-1.4127730131149292
1788164610391864000,6.918864013671875,-0.17013299465179443,-0.40775901079177856,-1.5947790145874023
1788164610401943600,6.928943603515625,0.0062049999833106995,-0.6255090236663818,-1.4740420579910278
1788164610412042500,6.93904248046875,0.04049000144004822,-0.7757620215415955,-1.3097970485687256
1788164610422131200,6.949131103515625,0.06454399973154068,-0.7870690226554871,-1.2646030187606812
1788164610432215600,6.959215576171875,0.427386999130249,-0.7258999943733215,-1.111665964126587
1788164610442302700,6.969302734375,1.2268660068511963,-0.5957170128822327,-0.6980929970741272
1788164610452397800,6.979397705078125,1.3593109846115112,-0.346996009349823,-0.40741899609565735
1788164610462481000,6.98948095703125,1.0801639556884766,-0.1456490010023117,-0.3329640030860901
1788164610472572000,6.999572021484375,1.1232880353927612,-0.24416600167751312,0.06229599937796593
1788164610482654000,7.009654052734375,0.7013300061225891,-0.3935529887676239,0.10720200091600418
1788164610492746800,7.019746826171875,0.3299019932746887,-0.4114550054073334,-0.10988300293684006
1788164610502832000,7.02983203125,0.4813689887523651,-0.6520029902458191,-0.09623599797487259
1788164610512922400,7.03992236328125,0.5709670186042786,-0.8906409740447998,-0.10424499958753586
1788164610523002400,7.05000244140625,0.3942599892616272,-0.9325879812240601,-0.4958589971065521
1788164610533090800,7.0600908203125,0.4013710021972656,-0.8986449837684631,-0.9602230191230774
1788164610543175000,7.0701748046875,0.5568609833717346,-1.065740942955017,-0.9936580061912537
1788164610553267500,7.080267333984375,0.13407300412654877,-1.2192319631576538,-1.2797739505767822
1788164610563352000,7.09035205078125,-0.06227999925613403,-1.4249919652938843,-1.6564489603042603
1788164610573443600,7.100443603515625,0.09565699845552444,-1.7979919910430908,-1.7365189790725708
1788164610583530200,7.1105302734375,0.069582000374794,-2.1242599487304688,-1.687330961227417
1788164610593625000,7.120625,-0.02087399922311306,-2.308867931365967,-1.4463069438934326
1788164610603705000,7.130705078125,-0.008125999942421913,-2.4131360054016113,-1.136212944984436
1788164610613796000,7.140796142578125,0.40203800797462463,-2.602741003036499,-0.4334239959716797
1788164610623879000,7.15087890625,0.31527599692344666,-2.4811739921569824,-0.03560100123286247
1788164610633973000,7.160972900390625,0.25848299264907837,-2.2170538902282715,0.05337199941277504
1788164610644061700,7.171061767578125,0.7617419958114624,-2.0735480785369873,0.33359798789024353
1788164610654151000,7.18115087890625,0.7793689966201782,-1.8651870489120483,0.5185840129852295
1788164610664244500,7.191244384765625,0.3074679970741272,-1.5226030349731445,0.41247400641441345
1788164610674340400,7.20134033203125,0.3072409927845001,-1.3425350189208984,0.37276700139045715
1788164610684423200,7.211423095703125,0.606016993522644,-1.3318909406661987,0.6093360185623169
1788164610694517200,7.221517333984375,0.15400299429893494,-1.169685959815979,0.47488701343536377
1788164610704610800,7.23161083984375,0.0036009999457746744,-1.1209659576416016,0.48109498620033264
1788164610714706000,7.241705810546875,0.07112299650907516,-1.0634870529174805,0.6853100061416626
1788164610724786200,7.2517861328125,0.05628199875354767,-0.9637389779090881,0.7286919951438904
1788164610734877400,7.26187744140625,-0.07101300358772278,-0.7092620134353638,0.429720014333725
1788164610744964000,7.271964111328125,0.10065100342035294,-0.6657249927520752,-0.0736910030245781
1788164610755050500,7.282050537109375,0.622169017791748,-0.7040159702301025,-0.4634090065956116
1788164610765137200,7.29213720703125,0.7001619935035706,-0.629023015499115,-0.9324880242347717
1788164610775225600,7.3022255859375,0.4781250059604645,-0.614063024520874,-1.428320050239563
1788164610785323000,7.312322998046875,0.8321599960327148,-0.7395420074462891,-1.4354610443115234
1788164610795408000,7.322407958984375,0.8236129879951477,-0.712660014629364,-1.428197979927063
1788164610805499600,7.332499755859375,0.5928239822387695,-0.6110799908638,-1.584663987159729
1788164610815584500,7.34258447265625,0.5566319823265076,-0.6581969857215881,-1.5293740034103394
1788164610825677300,7.35267724609375,0.6279929876327515,-0.767857015132904,-1.4322789907455444
1788164610835762000,7.362761962890625,0.5210689902305603,-0.7682240009307861,-1.3073680400848389
1788164610845853400,7.372853515625,0.18686099350452423,-0.8037329912185669,-1.2830220460891724
1788164610855935200,7.382935302734375,0.27176299691200256,-0.9870439767837524,-0.9451910257339478
1788164610866031000,7.393031005859375,0.2599630057811737,-0.9558550119400024,-0.7386929988861084
1788164610876108300,7.4031083984375,0.21794000267982483,-0.8916440010070801,-0.5984699726104736
1788164610886199600,7.413199462890625,0.2004069983959198,-1.042672038078308,-0.46378299593925476
1788164610896286700,7.42328662109375,0.3019059896469116,-1.1989860534667969,-0.4468129873275757
1788164610906385700,7.4333857421875,0.19898800551891327,-1.3051559925079346,-0.4941439926624298
1788164610916466200,7.443466064453125,0.2557379901409149,-1.381335973739624,-0.4563870131969452
1788164610926554000,7.45355419921875,0.5312790274620056,-1.5111219882965088,-0.11071600019931793
1788164610936638500,7.463638427734375,0.3413250148296356,-1.4464470148086548,-0.18179699778556824
1788164610946737700,7.473737548828125,0.3765130043029785,-1.4145649671554565,-0.37692299485206604
1788164610956823300,7.4838232421875,0.47873398661613464,-1.3600389957427979,-0.5275179743766785
1788164610966907100,7.4939072265625,0.28019100427627563,-1.3511110544204712,-0.8102229833602905
1788164610976988700,7.50398876953125,0.07814899832010269,-1.379802942276001,-1.087185025215149
1788164610987081200,7.514081298828125,-0.09556400030851364,-1.3214080333709717,-1.363806962966919
1788164610997158000,7.524157958984375,0.24491800367832184,-1.2071280479431152,-1.2984460592269897
1788164611007252000,7.534251953125,0.21687699854373932,-0.9803410172462463,-1.2662830352783203
1788164611017340200,7.544340087890625,0.09444600343704224,-0.7361270189285278,-1.4105910062789917
1788164611027445800,7.55444580078125,0.054781001061201096,-0.5822510123252869,-1.5777029991149902
1788164611037521200,7.564521240234375,-0.0022700000554323196,-0.5055710077285767,-1.7283949851989746
1788164611047625000,7.574625,-0.14910200238227844,-0.4920009970664978,-1.8561099767684937
1788164611057699800,7.584699951171875,-0.25364500284194946,-0.5357840061187744,-2.085235118865967
1788164611067787800,7.594787841796875,0.05047500133514404,-0.5771620273590088,-2.0588109493255615
1788164611077867000,7.604866943359375,0.268869012594223,-0.6372860074043274,-2.1072299480438232
1788164611087963000,7.614962890625,0.38874301314353943,-0.5764809846878052,-2.221635103225708
1788164611098044200,7.625044189453125,0.4990899860858917,-0.5849059820175171,-2.226227045059204
1788164611108131000,7.635131103515625,0.41400399804115295,-0.7205340266227722,-2.1977570056915283
1788164611118209000,7.645208984375,0.21595700085163116,-0.9892100095748901,-2.183358907699585
1788164611128300800,7.65530078125,-0.0041970000602304935,-1.2878799438476562,-2.301016092300415
1788164611138383400,7.66538330078125,0.040125999599695206,-1.739393949508667,-2.0443379878997803
1788164611148479200,7.675479248046875,-0.017254000529646873,-2.0126309394836426,-1.8739739656448364
1788164611158556000,7.685555908203125,0.13218900561332703,-2.1246941089630127,-1.6739799976348877
1788164611168656600,7.69565673828125,0.5013840198516846,-2.093317985534668,-1.3652490377426147
1788164611178743600,7.70574365234375,0.8361660242080688,-1.8558059930801392,-0.9395089745521545
1788164611188834600,7.71583447265625,0.9564539790153503,-1.4266489744186401,-0.7092869877815247
1788164611198923800,7.725923828125,0.8746140003204346,-0.9980210065841675,-0.9786549806594849
1788164611209020400,7.7360205078125,1.0027949810028076,-0.9232439994812012,-1.045935034751892
1788164611219116300,7.7461162109375,0.8377349972724915,-0.9764620065689087,-1.2784520387649536
1788164611229213000,7.756212890625,0.6394249796867371,-1.0243639945983887,-1.663167953491211
1788164611239300000,7.766300048828125,0.7335780262947083,-1.1905959844589233,-1.582103967666626
1788164611249398300,7.776398193359375,0.5679849982261658,-1.3347870111465454,-1.3919039964675903
1788164611259481300,7.7864814453125,0.4921239912509918,-1.438418984413147,-1.1882350444793701
1788164611269569800,7.79656982421875,0.6634809970855713,-1.5428409576416016,-1.0566439628601074
1788164611279656200,7.80665625,0.8693529963493347,-1.673475980758667,-0.8211929798126221
1788164611289746400,7.816746337890625,0.8107669949531555,-1.7072319984436035,-0.7100679874420166
1788164611299832300,7.826832275390625,0.7125750184059143,-1.6277600526809692,-0.8132860064506531
1788164611309929000,7.836928955078125,0.8729749917984009,-1.6526989936828613,-0.7442439794540405
1788164611320024300,7.8470244140625,0.45565199851989746,-1.7519340515136719,-0.9932199716567993
1788164611330118400,7.857118408203125,0.2529970109462738,-1.9481730461120605,-1.4096579551696777
1788164611340203500,7.86720361328125,0.19288399815559387,-2.0785820484161377,-1.8337409496307373
1788164611350297000,7.877297119140625,0.09940099716186523,-2.193358898162842,-2.0962729454040527
1788164611360387800,7.887387939453125,0.15486499667167664,-2.231523036956787,-2.3191559314727783
1788164611370468400,7.89746826171875,0.33904799818992615,-2.185518980026245,-2.358445882797241
1788164611380553000,7.907552978515625,0.6697750091552734,-2.1222519874572754,-1.8758809566497803
1788164611390641000,7.917640869140625,0.7546160221099854,-1.9191299676895142,-1.63845694065094
1788164611400725000,7.92772509765625,0.7618420124053955,-1.6932049989700317,-1.5283550024032593
1788164611410811400,7.937811279296875,0.7462790012359619,-1.5669469833374023,-1.3552069664001465
1788164611420897000,7.94789697265625,0.5644429922103882,-1.5492980480194092,-0.9841430187225342
1788164611430988500,7.957988525390625,0.42437100410461426,-1.565034031867981,-0.6147350072860718
1788164611441079600,7.96807958984375,0.11277899891138077,-1.4723830223083496,-0.40383800864219666
1788164611451166200,7.978166259765625,0.1214980036020279,-1.5143029689788818,-0.09372399747371674
1788164611461245400,7.988245361328125,0.0037990000564604998,-1.529845952987671,-0.03805899992585182
1788164611471336700,7.998336669921875,0.09808500111103058,-1.5695849657058716,-0.3606390058994293
1788164611481415200,8.008415283203124,0.5171129703521729,-1.5707060098648071,-0.5646070241928101
1788164611491506200,8.018506103515625,0.5201489925384521,-1.52593195438385,-0.7131109833717346
1788164611501592000,8.028592041015624,0.6108599901199341,-1.554075002670288,-0.8385949730873108
1788164611511681000,8.038680908203125,0.3938480019569397,-1.645643949508667,-1.3766119480133057
1788164611521770000,8.04877001953125,0.3118619918823242,-1.7168949842453003,-1.5898339748382568
1788164611531855000,8.058855224609376,0.10176999866962433,-1.5910229682922363,-1.9448180198669434
1788164611541989000,8.068989013671874,-0.1407800018787384,-1.4997889995574951,-1.9990179538726807
1788164611552087800,8.079087890625,-0.02277199923992157,-1.5928150415420532,-1.7300469875335693
1788164611562171600,8.089171630859376,0.04747400060296059,-1.6183819770812988,-1.2782690525054932
1788164611572261600,8.09926171875,0.16261999309062958,-1.5899749994277954,-1.0745099782943726
1788164611582349800,8.109349853515624,0.5849279761314392,-1.5071810483932495,-0.9649850130081177
1788164611592452600,8.11945263671875,0.6768890023231506,-1.2910610437393188,-0.6737639904022217
1788164611602531300,8.12953125,0.7209550142288208,-1.1882630586624146,-0.5628899931907654
1788164611612626400,8.13962646484375,0.4868749976158142,-1.0219370126724243,-0.6662439703941345
1788164611622710300,8.149710205078126,0.19577999413013458,-1.034203052520752,-0.7503510117530823
1788164611632801800,8.1598017578125,-0.3646079897880554,-1.1817480325698853,-1.016440987586975
1788164611642890000,8.169889892578125,-0.5741289854049683,-1.4670350551605225,-1.4442909955978394
1788164611652979700,8.179979736328125,-0.46338900923728943,-1.5874049663543701,-1.9810999631881714
1788164611663065900,8.19006591796875,-0.18697400391101837,-1.7895629405975342,-2.146069049835205
1788164611673168600,8.200168701171876,0.05611800029873848,-1.8739620447158813,-2.005964994430542
1788164611683254300,8.210254150390625,0.12923699617385864,-1.8904949426651,-1.8154220581054688
1788164611693347800,8.220347900390625,0.4158700108528137,-1.9698410034179688,-1.4295070171356201
1788164611703434000,8.23043408203125,0.5160120129585266,-1.8396190404891968,-1.2768690586090088
1788164611713525000,8.24052490234375,0.5145699977874756,-1.497728943824768,-0.5629969835281372
1788164611723610600,8.250610595703124,0.2040719985961914,-1.0423109531402588,-1.2616920471191406
1788164611733702700,8.26070263671875,0.02721099928021431,-0.8924580216407776,-1.3082059621810913
1788164611743784400,8.270784423828125,-0.18976399302482605,-0.6627169847488403,-1.200124979019165
1788164611753875700,8.280875732421874,-0.4118629992008209,-0.46329501271247864,-1.4919949769973755
1788164611763958300,8.290958251953125,-0.6869950294494629,-0.6205300092697144,-1.0985440015792847
1788164611774043100,8.301043212890624,-0.7739570140838623,-1.042680025100708,-1.7637759447097778
1788164611784131600,8.311131591796874,-0.7788519859313965,-1.4865219593048096,-2.3125178813934326
1788164611794224000,8.32122412109375,-0.7155309915542603,-1.955657958984375,-2.7542049884796143
1788164611804307200,8.33130712890625,-0.900862991809845,-1.9991790056228638,-3.156558036804199
1788164611814384600,8.341384521484375,-0.6267650127410889,-1.7451729774475098,-3.4959170818328857
1788164611824472300,8.351472412109375,-0.03548600152134895,-1.4455260038375854,-3.763314962387085
1788164611834563800,8.361563720703124,0.40011200308799744,-1.1549140214920044,-3.5569539070129395
1788164611844642000,8.37164208984375,0.14722800254821777,-0.9091989994049072,-3.26100492477417
1788164611854734600,8.381734619140625,-0.607420027256012,-0.6741660237312317,-3.246737003326416
1788164611864829400,8.391829345703124,-1.1255170106887817,-0.6804590225219727,-3.2571470737457275
1788164611874919000,8.4019189453125,-1.7870739698410034,-0.797577977180481,-3.2104909420013428
1788164611885008600,8.412008544921875,-2.5587570667266846,-0.9736160039901733,-3.093316078186035
1788164611895097300,8.422097412109375,-2.0514819622039795,-1.4245280027389526,-2.5369229316711426
1788164611905187800,8.432187744140625,-0.7530570030212402,-1.6306209564208984,-1.714627981185913
1788164611915276300,8.4422763671875,-0.1883399933576584,-1.3188450336456299,-1.3245149850845337
1788164611925373000,8.452373046875,-0.023959999904036522,-1.182554006576538,-1.5138100385665894
1788164611935455500,8.46245556640625,-0.6637439727783203,-1.5494500398635864,-1.5165749788284302
1788164611945545200,8.472545166015625,-1.4085220098495483,-1.6889359951019287,-1.5412399768829346
1788164611955632400,8.48263232421875,-1.4688060283660889,-1.757154941558838,-0.9356870055198669
1788164611965732400,8.492732421875,-1.0106990337371826,-2.1799049377441406,-0.1572439968585968
1788164611975816200,8.502816162109376,-0.522005021572113,-2.119749069213867,0.6636639833450317
1788164611985907500,8.512907470703125,-0.33416399359703064,-1.42643404006958,0.5880410075187683
1788164611995998700,8.522998779296875,-0.6142600178718567,-1.1551300287246704,0.3261750042438507
1788164612006092500,8.533092529296875,-1.117158055305481,-1.1255780458450317,-0.25313600897789
1788164612016186000,8.54318603515625,-1.3516939878463745,-0.7852439880371094,-0.6905270218849182
1788164612026276600,8.553276611328124,-1.6939259767532349,-0.5783519744873047,-0.9450730085372925
1788164612036361500,8.563361572265626,-1.3477109670639038,-0.6421610116958618,-1.0553369522094727
1788164612046449200,8.57344921875,-0.39063501358032227,-0.4909380078315735,-0.41388601064682007
1788164612056531500,8.583531494140624,-0.11265400052070618,0.15672099590301514,-0.630312979221344
1788164612066648300,8.5936484375,-0.6754130125045776,0.3369230031967163,-0.9499260187149048
1788164612076730600,8.603730712890625,-1.3044379949569702,0.617027997970581,-0.9843720197677612
1788164612086826000,8.613825927734375,-0.43198099732398987,0.1521099954843521,-0.5774499773979187
1788164612096913000,8.623912841796875,-0.27081000804901123,-0.18826499581336975,-0.2834489941596985
1788164612107006200,8.634006103515626,-0.6019520163536072,-0.1802159994840622,-0.08102700114250183
1788164612117083000,8.644082763671875,-0.6206960082054138,-0.012395000085234642,-0.4313639998435974
1788164612127176700,8.6541767578125,-0.2368759959936142,-0.23162199556827545,-0.1119920015335083
1788164612137260300,8.66426025390625,0.11791200190782547,-0.1458040028810501,-0.22060400247573853
1788164612147341800,8.674341796875,-0.8381980061531067,0.5880789756774902,-0.8275499939918518
1788164612157432800,8.684432861328125,0.7351210117340088,-0.45370998978614807,-0.5327469706535339
1788164612167518700,8.694518798828126,0.4721530079841614,0.014139000326395035,-0.771448016166687
1788164612177601300,8.704601318359375,0.25079798698425293,0.4035800099372864,-0.6746240258216858
1788164612187686400,8.714686279296876,0.7632899880409241,0.3358519971370697,-0.32318899035453796
1788164612197777400,8.72477734375,1.288472056388855,0.6034640073776245,-0.3485960066318512
1788164612207869200,8.734869140625,0.9762160181999207,0.5817130208015442,-0.5265160202980042
1788164612217951500,8.744951416015626,0.8253970146179199,0.1426219940185547,-0.9952030181884766
1788164612228039200,8.7550390625,0.36597299575805664,0.24840499460697174,-1.5005890130996704
1788164612238113000,8.765113037109375,0.13585400581359863,0.644025981426239,-1.6314769983291626
1788164612248202500,8.775202392578125,0.5629940032958984,0.7926939725875854,-1.504544973373413
1788164612258290200,8.785290283203125,0.5908679962158203,1.1975719928741455,-1.5669490098953247
1788164612268389600,8.7953896484375,0.663690984249115,1.196342945098877,-1.49822998046875
1788164612278470100,8.80547021484375,0.756816029548645,1.0972700119018555,-1.3592900037765503
1788164612288559900,8.815559814453126,1.0410490036010742,1.216318964958191,-1.1306350231170654
1788164612298646000,8.82564599609375,1.2629280090332031,1.1590839624404907,-0.3531459867954254
1788164612308744400,8.835744384765626,1.9886280298233032,0.48618200421333313,0.005295999813824892
1788164612318834200,8.845834228515624,2.288515090942383,-0.0614439994096756,-0.04541099816560745
1788164612328926000,8.855926025390625,2.2323379516601562,0.44545599818229675,-0.3961710035800934
1788164612339011300,8.86601123046875,2.463578939437866,0.8947479724884033,-0.8407700061798096
1788164612349103900,8.876103759765625,1.8143270015716553,1.1903489828109741,-0.9207429885864258
1788164612359190500,8.8861904296875,1.019644021987915,1.942214012145996,-1.3128629922866821
1788164612369286100,8.8962861328125,1.112591028213501,2.0502469539642334,-1.9246749877929688
1788164612379388200,8.90638818359375,2.053208112716675,1.8404589891433716,-1.7292289733886719
1788164612389484800,8.91648486328125,1.7826600074768066,1.740875005722046,-1.5455349683761597
1788164612399572200,8.926572265625,2.2547900676727295,1.2833410501480103,-2.0103020668029785
1788164612409665500,8.93666552734375,2.4052670001983643,0.9853529930114746,-2.1209750175476074
1788164612419755000,8.946755126953125,1.5046720504760742,1.2087719440460205,-2.7579081058502197
1788164612429850400,8.956850341796875,1.6771810054779053,1.1760859489440918,-3.580828905105591
1788164612439940600,8.966940673828125,1.6324529647827148,1.3055089712142944,-3.0625739097595215
1788164612450030000,8.977030029296875,1.0816199779510498,1.3911999464035034,-3.028198003768921
1788164612460121300,8.987121337890626,1.2536250352859497,1.1651649475097656,-3.2608399391174316
1788164612470208300,8.997208251953126,1.4338140487670898,0.801235020160675,-2.5916240215301514
1788164612480302000,9.007302001953125,-0.20527100563049316,0.2478490024805069,-2.166516065597534
1788164612490379800,9.0173798828125,-2.2515809535980225,-0.3337390124797821,-2.1589488983154297
1788164612500464400,9.02746435546875,-4.259666919708252,-0.3569909930229187,-2.685878038406372
1788164612510553900,9.037553955078126,-6.944982051849365,0.07745099812746048,-3.779618978500366
1788164612520633000,9.047633056640626,-9.052823066711426,0.6314859986305237,-3.337912082672119
1788164612530722600,9.05772265625,-8.279691696166992,1.60657799243927,-2.0533289909362793
1788164612540809500,9.0678095703125,-5.5706048011779785,2.3512818813323975,-1.596783995628357
1788164612550895900,9.077895751953125,-2.3592329025268555,2.6475539207458496,-0.6908789873123169
1788164612560976600,9.0879765625,0.16917100548744202,2.7455968856811523,0.24118399620056152
1788164612571068200,9.098068115234375,2.035862922668457,2.3507161140441895,0.35931000113487244
1788164612581155000,9.108155029296874,2.963038921356201,1.7584439516067505,0.6626790165901184
1788164612591247600,9.11824755859375,2.1083569526672363,1.3770790100097656,0.430186003446579
1788164612601332000,9.12833203125,1.4213370084762573,0.7798539996147156,0.5213630199432373
1788164612611423200,9.13842333984375,1.2172590494155884,0.5635759830474854,0.9830780029296875
1788164612621511700,9.14851171875,0.7383480072021484,0.5221880078315735,1.0360130071640015
1788164612631592700,9.1585927734375,0.6092740297317505,0.3390910029411316,1.086753010749817
1788164612641680000,9.168679931640625,-0.18615099787712097,0.5412939786911011,0.3914639949798584
1788164612651771000,9.17877099609375,-1.4200949668884277,0.8829399943351746,-0.9381229877471924
1788164612661857000,9.18885693359375,-2.1138389110565186,1.1807700395584106,-1.5001280307769775
1788164612671949800,9.19894970703125,-2.2957959175109863,1.5496840476989746,-1.9291499853134155
1788164612682036000,9.209035888671876,-1.6995259523391724,1.9979519844055176,-1.8263579607009888
1788164612692133400,9.21913330078125,-0.5198450088500977,2.419867992401123,-1.0482109785079956
1788164612702222000,9.22922216796875,-0.0475430004298687,2.1345601081848145,-0.7489389777183533
1788164612712312300,9.239312255859375,0.34599199891090393,1.5687390565872192,-0.3577969968318939
1788164612722403800,9.24940380859375,0.20588399469852448,0.9173579812049866,-0.08183000236749649
1788164612732495400,9.259495361328124,0.0245169997215271,0.5228300094604492,-0.3765380084514618
1788164612742581200,9.269581298828125,0.9105319976806641,0.33927300572395325,-0.21230800449848175
1788164612752674800,9.2796748046875,0.6990659832954407,0.40913599729537964,-0.17906199395656586
1788164612762762500,9.289762451171875,0.08225200325250626,0.8212400078773499,-0.5196279883384705
1788164612772854500,9.2998544921875,-0.4850910007953644,1.209617018699646,-0.015402999706566334
1788164612782936000,9.30993603515625,-1.4549939632415771,1.4655040502548218,-0.5738610029220581
1788164612793026800,9.32002685546875,-1.3551280498504639,1.6160939931869507,-1.1143709421157837
1788164612803112700,9.33011279296875,-0.5682269930839539,2.118648052215576,-1.4739530086517334
1788164612813216500,9.340216552734375,-0.03628300130367279,2.4892160892486572,-1.7786109447479248
1788164612823292200,9.350292236328125,0.7056900262832642,2.768259048461914,-1.4607160091400146
1788164612833383700,9.3603837890625,0.5207499861717224,2.7188150882720947,-1.2082589864730835
1788164612843468000,9.370468017578125,-0.41996198892593384,1.96396803855896,-1.0132379531860352
1788164612853559600,9.3805595703125,-1.0675710439682007,1.151885986328125,-0.38332000374794006
1788164612863650300,9.390650390625,-1.7591140270233154,0.4569909870624542,-0.36904799938201904
1788164612873735000,9.40073486328125,-1.20067298412323,-0.23148000240325928,-0.2584100067615509
1788164612883818200,9.410818359375,-0.5398929715156555,-0.6753190159797668,-0.0027389999013394117
1788164612893912800,9.420912841796875,-0.1919350028038025,-0.654528021812439,-0.32639798521995544
1788164612903998000,9.430998046875,-0.14387300610542297,-0.6239780187606812,-0.00041199999395757914
1788164612914084900,9.4410849609375,-0.42890098690986633,-0.19164100289344788,-0.2897320091724396
1788164612924169000,9.4511689453125,-0.7791919708251953,0.036396000534296036,-0.6374329924583435
1788164612934263800,9.461263916015625,-0.9001370072364807,0.3786369860172272,-0.7596060037612915
1788164612944348400,9.471348388671874,-0.6341429948806763,0.5056260228157043,-1.1133170127868652
1788164612954436900,9.481436767578124,0.16064900159835815,0.7925320267677307,-0.9214069843292236
1788164612964520700,9.491520751953125,0.9527599811553955,1.2143830060958862,-1.0271589756011963
1788164612974608100,9.501608154296875,1.2445240020751953,1.1468960046768188,-1.1932740211486816
1788164612984694500,9.511694580078125,1.0851689577102661,0.8548589944839478,-0.7507479786872864
1788164612994783200,9.521783203125,0.6757320165634155,0.3426389992237091,-0.9657670259475708
1788164613004876000,9.5318759765625,0.180867001414299,-0.01906999945640564,-0.8745520114898682
1788164613014962200,9.541962158203125,-0.2432270050048828,-0.0178849995136261,-0.44964200258255005
1788164613025061600,9.5520615234375,-0.7882509827613831,0.2696700096130371,-0.5588020086288452
1788164613035152600,9.562152587890624,-1.9129669666290283,0.646120011806488,-0.26673799753189087
1788164613045250300,9.572250244140625,-3.042541980743408,1.0706199407577515,-0.6527259945869446
1788164613055339000,9.582339111328125,-3.463238000869751,0.9197700023651123,-0.18314500153064728
1788164613065431800,9.592431884765626,-2.4531490802764893,0.8896610140800476,0.08860799670219421
1788164613075519200,9.602519287109375,-1.567486047744751,0.7046030163764954,-0.33153200149536133
1788164613085610500,9.612610595703124,-0.1062759980559349,0.3086419999599457,-0.8350600004196167
1788164613095697200,9.622697265625,1.351902961730957,-0.012454000301659107,-1.4800059795379639
1788164613105780000,9.632780029296875,2.4553749561309814,-0.5196890234947205,-1.7235100269317627
1788164613115865000,9.642864990234376,2.9899070262908936,-0.8598290085792542,-0.8190590143203735
1788164613125966800,9.652966796875,1.62283194065094,-0.7534000277519226,0.1774909943342209
1788164613136051000,9.663051025390626,-1.6159149408340454,-1.1661269664764404,2.00775408744812
1788164613146136800,9.67313671875,-5.447474956512451,-1.2466230392456055,2.967681884765625
1788164613156219100,9.68321923828125,-7.799765110015869,-0.3842400014400482,2.359795093536377
1788164613166309000,9.69330908203125,-6.258378028869629,1.4479299783706665,-0.022234000265598297
1788164613176395500,9.7033955078125,-2.45162296295166,3.08322811126709,-3.210486888885498
1788164613186481700,9.713481689453126,1.3099629878997803,3.2727339267730713,-4.83880615234375
1788164613196558300,9.723558349609375,1.5445829629898071,2.0765960216522217,-4.676474094390869
1788164613206651000,9.73365087890625,0.11682700365781784,0.035436000674963,-3.3955910205841064
1788164613216727600,9.7437275390625,-1.1670880317687988,-1.6892199516296387,-0.5516570210456848
1788164613226819800,9.75381982421875,-1.6755850315093994,-2.494744062423706,0.6972600221633911
1788164613236928000,9.763927978515625,-0.9723079800605774,-2.4904370307922363,0.49767500162124634
1788164613247019500,9.77401953125,0.8179159760475159,-2.0128889083862305,-0.08176200091838837
1788164613257099300,9.784099365234376,1.5486609935760498,-1.376338005065918,-0.9847790002822876
1788164613267190500,9.7941904296875,0.9205129742622375,-1.0737539529800415,-0.733726978302002
1788164613277270300,9.804270263671874,0.8731709718704224,-0.8210520148277283,-0.25703200697898865
1788164613287359000,9.81435888671875,0.9949880242347717,-0.458746999502182,0.15617600083351135
1788164613297438000,9.82443798828125,0.8573799729347229,0.028720000758767128,0.5369129776954651
1788164613307523000,9.834523193359376,0.8725709915161133,0.5773940086364746,0.7496839761734009
1788164613317607200,9.844607177734375,0.8970900177955627,1.372009038925171,0.9726560115814209
1788164613327705300,9.854705322265625,0.6567100286483765,2.4908339977264404,0.8682119846343994
1788164613337787100,9.864787109375,0.7539939880371094,3.399251937866211,0.569038987159729
1788164613347883800,9.8748837890625,0.8803110122680664,3.7335989475250244,-0.041088998317718506
1788164613357964300,9.88496435546875,1.184224009513855,3.1599950790405273,-0.8779119849205017
1788164613368061700,9.895061767578126,1.6930079460144043,2.782525062561035,-1.1485079526901245
1788164613378133800,9.9051337890625,1.3692679405212402,2.4754889011383057,-1.0218349695205688
1788164613388230000,9.91522998046875,0.7197859883308411,2.0809929370880127,-0.5043079853057861
1788164613398315500,9.9253154296875,0.04733999818563461,1.1198220252990723,-0.006616000086069107
1788164613408407300,9.9354072265625,-0.09083099663257599,0.04056499898433685,-0.49966299533843994
1788164613418491400,9.945491455078125,1.0959800481796265,-0.7641739845275879,-1.4099400043487549
1788164613428585000,9.9555849609375,2.411043882369995,-1.2102149724960327,-2.450468063354492
1788164613438665000,9.9656650390625,2.980315923690796,-1.4940869808197021,-2.5995399951934814
1788164613448749300,9.975749267578125,1.95694100856781,-1.701799988746643,-1.9575170278549194
1788164613458837200,9.985837158203125,-0.9488199949264526,-1.920881986618042,-1.23785400390625
1788164613468931300,9.995931396484375,-3.3520169258117676,-2.0399858951568604,-0.8601030111312866
1788164613479021600,10.006021484375,-4.041726112365723,-1.5901910066604614,-1.4559340476989746
1788164613489118500,10.016118408203125,-2.8947389125823975,-0.661126971244812,-2.1318840980529785
1788164613499204000,10.0262041015625,-1.463258981704712,0.33164501190185547,-2.7410809993743896
1788164613509298400,10.03629833984375,-0.49321699142456055,0.5772500038146973,-2.314763069152832
1788164613519384000,10.046384033203125,-0.23176999390125275,0.4837130010128021,-1.486449956893921
1788164613529469400,10.056469482421875,-0.9719820022583008,0.0010659999679774046,-0.6140210032463074
1788164613539554600,10.066554443359376,-0.8449649810791016,-0.49931600689888,0.6161239743232727
1788164613549648000,10.07664794921875,-0.46908000111579895,-0.6401559710502625,1.05696702003479
1788164613559734500,10.086734619140625,0.2505730092525482,-0.47974300384521484,1.4031059741973877
1788164613569826600,10.09682666015625,0.6806439757347107,-0.048907000571489334,1.4428960084915161
1788164613579913200,10.106913330078125,0.19179999828338623,0.2387090027332306,1.1663860082626343
1788164613590001700,10.117001708984375,0.03284300118684769,0.5739610195159912,1.4453200101852417
1788164613600088800,10.1270888671875,-0.3295010030269623,0.7889559864997864,1.4368250370025635
1788164613610181600,10.137181640625,-0.8107460141181946,1.0105969905853271,1.6176259517669678
1788164613620265700,10.147265625,-1.6158289909362793,0.7778699994087219,1.9870100021362305
1788164613630359300,10.157359375,-2.567154884338379,0.007395999971777201,1.7196789979934692
1788164613640441600,10.167441650390625,-1.6747729778289795,-0.41558000445365906,1.2777869701385498
1788164613650540500,10.17754052734375,0.7740160226821899,-0.38759100437164307,0.23266300559043884
1788164613660630300,10.18763037109375,3.5588459968566895,-0.3652549982070923,0.31897398829460144
1788164613670723800,10.197723876953125,3.8593759536743164,-0.280348002910614,0.40596699714660645
1788164613680814800,10.20781494140625,2.3071789741516113,-0.3977130055427551,1.1311630010604858
1788164613690898700,10.217898681640625,-0.3566350042819977,-0.8789899945259094,2.3845601081848145
1788164613711070200,10.2380703125,-2.293431043624878,-0.14653199911117554,2.087054967880249
1788164613721154300,10.248154296875,-1.3459850549697876,1.2229009866714478,0.31370800733566284
1788164613731244000,10.258244140625,-0.4642919898033142,2.284743070602417,-0.7532479763031006
1788164613741332700,10.268332763671875,-0.8496950268745422,2.315330982208252,-1.3605849742889404
1788164613751425800,10.27842578125,-2.0800349712371826,1.0914939641952515,-2.174262046813965
1788164613761507800,10.2885078125,-1.788290023803711,0.149277001619339,-1.7511379718780518
1788164613771597300,10.298597412109375,-0.019026000052690506,-0.47875601053237915,-2.0007829666137695
1788164613781678600,10.3086787109375,2.733488082885742,-0.930994987487793,-1.5946550369262695
1788164613791772200,10.318772216796875,3.9669981002807617,-0.6611819863319397,-1.4608550071716309
1788164613801859300,10.328859375,3.4541308879852295,0.09925000369548798,-0.868478000164032
1788164613811950000,10.3389501953125,1.303575038909912,0.6479089856147766,0.2021300047636032
1788164613822037500,10.34903759765625,-2.2868740558624268,0.8943529725074768,0.5147889852523804
1788164613832121300,10.359121337890626,-5.080361843109131,0.7164090275764465,1.4081759452819824
1788164613842202600,10.36920263671875,-6.056070804595947,0.8942270278930664,0.7103300094604492
1788164613852295000,10.379294921875,-3.844705104827881,1.5349429845809937,-0.6043220162391663
1788164613862385200,10.38938525390625,-1.179898977279663,1.4729670286178589,-0.9905639886856079
1788164613872475600,10.3994755859375,1.643159031867981,0.4794909954071045,-1.3113800287246704
1788164613882559000,10.40955908203125,2.81227707862854,-0.446476012468338,-0.8238369822502136
1788164613892642000,10.41964208984375,2.3535029888153076,-1.4380650520324707,-0.3203819990158081
1788164613902729700,10.429729736328126,0.8170719742774963,-2.476738929748535,0.7145270109176636
1788164613912811000,10.43981103515625,-0.4958859980106354,-3.208899974822998,1.6168359518051147
1788164613922896000,10.449895751953125,-1.5694600343704224,-3.0771470069885254,1.4343149662017822
1788164613932990000,10.459989990234375,-1.7269819974899292,-2.1187260150909424,1.3982559442520142
1788164613943078700,10.47007861328125,-1.500851035118103,-0.8045219779014587,0.9748740196228027
1788164613953167000,10.4801669921875,-1.2053769826889038,-0.0244120005518198,0.6145640015602112
1788164613963247900,10.490247802734375,-1.3445669412612915,0.021409999579191208,-0.05745299905538559
1788164613973339600,10.500339599609376,-0.5065580010414124,-0.6698880195617676,-0.28748100996017456
1788164613983427600,10.510427490234376,0.9377189874649048,-1.2459290027618408,-0.14638400077819824
1788164613993516800,10.520516845703124,1.4491829872131348,-1.658200979232788,-0.3296689987182617
1788164614003601400,10.530601318359375,2.0518789291381836,-1.785156011581421,0.1314390003681183
1788164614013696500,10.540696533203125,2.9255030155181885,-1.506983995437622,0.40894898772239685
1788164614023779800,10.55077978515625,3.4539079666137695,-0.5077019929885864,0.41658100485801697
1788164614033870000,10.5608701171875,2.812190055847168,0.8820649981498718,0.34274500608444214
1788164614043953000,10.570952880859375,0.7572500109672546,1.5495779514312744,0.33125099539756775
1788164614054044400,10.58104443359375,-2.5378661155700684,1.6178820133209229,1.0889530181884766
1788164614064127500,10.59112744140625,-4.607382774353027,1.4499809741973877,1.224410057067871
1788164614074215700,10.601215576171874,-5.11643123626709,1.5577739477157593,0.600866973400116
1788164614084300000,10.611300048828125,-3.5212979316711426,1.9683419466018677,-0.3996480107307434
1788164614094385400,10.621385498046875,-1.3820539712905884,2.0462660789489746,-1.7842659950256348
1788164614104470800,10.631470703125,-0.06411600112915039,1.6902960538864136,-2.291088104248047
1788164614114561500,10.6415615234375,0.16868600249290466,0.9393140077590942,-2.791395902633667
1788164614124648700,10.651648681640625,-0.03969600051641464,0.10040999948978424,-2.857969045639038
1788164614134748400,10.66174853515625,0.06727200001478195,-0.38844799995422363,-2.374439001083374
1788164614144833300,10.671833251953124,-0.2263440042734146,-0.5987750291824341,-2.202958106994629
1788164614154934500,10.6819345703125,0.6581850051879883,-0.6599270105361938,-1.0862740278244019
1788164614165017000,10.69201708984375,0.6630120277404785,-0.6159369945526123,-0.35701799392700195
1788164614175112200,10.7021123046875,0.5102249979972839,-0.766510009765625,0.15917299687862396
1788164614185195800,10.71219580078125,0.3265779912471771,-1.2239810228347778,0.3962230086326599
1788164614195293000,10.72229296875,-0.416469007730484,-1.7014800310134888,0.25528401136398315
1788164614205386500,10.732386474609376,-0.4637629985809326,-2.1297121047973633,0.6878219842910767
1788164614215469000,10.742468994140625,0.3374660015106201,-1.8329659700393677,0.5044620037078857
1788164614225569800,10.75256982421875,0.9668319821357727,-1.4088369607925415,0.9143419861793518
1788164614235675000,10.7626748046875,0.9876829981803894,-0.9888499975204468,0.9674410223960876
1788164614245755000,10.7727548828125,0.23970800638198853,-0.49285799264907837,0.8104050159454346
1788164614255840500,10.782840576171875,-1.0415589809417725,-0.003329999977722764,0.6457080245018005
1788164614265935600,10.792935546875,-2.329638957977295,0.13659599423408508,0.4464550018310547
1788164614276023800,10.80302392578125,-2.493741035461426,0.3563370108604431,0.6715549826622009
1788164614286108400,10.8131083984375,-2.2778890132904053,0.7167559862136841,0.38783198595046997
1788164614296195000,10.823195068359375,-0.9465100169181824,0.5734710097312927,0.12359599769115448
1788164614306281000,10.833281005859375,0.8605380058288574,0.4555160105228424,0.48554301261901855
1788164614316371000,10.843370849609375,1.5002679824829102,0.4399470090866089,0.1207680031657219
1788164614326454500,10.85345458984375,1.8918739557266235,0.4753760099411011,0.17295999825000763
1788164614336535600,10.86353564453125,2.0631980895996094,0.2712770104408264,0.10232499986886978
1788164614346613500,10.873613525390626,1.9510910511016846,0.020152999088168144,0.19955000281333923
1788164614356703200,10.883703125,1.5866279602050781,-0.0826210007071495,0.8670579791069031
1788164614366782200,10.8937822265625,0.9969419836997986,-0.07225599884986877,0.8672320246696472
1788164614376876800,10.903876708984376,0.6233479976654053,-0.4111909866333008,1.5330959558486938
1788164614386958300,10.913958251953124,-0.9106640219688416,-0.9021279811859131,1.1736869812011719
1788164614397043500,10.92404345703125,-2.2235829830169678,-1.0264019966125488,0.7315679788589478
1788164614407122700,10.934122802734375,-2.8901419639587402,-0.8519619703292847,-0.10014700144529343
1788164614417205800,10.944205810546874,-2.0511159896850586,-0.5845959782600403,-1.3567999601364136
1788164614427295500,10.95429541015625,-0.436365008354187,-0.286404013633728,-0.9109910130500793
1788164614437375700,10.964375732421875,0.36114200949668884,-0.09431300312280655,-0.7912529706954956
1788164614447467000,10.974467041015625,1.2683759927749634,0.42224401235580444,-0.37568798661231995
1788164614457553700,10.9845537109375,1.2675479650497437,0.8354550004005432,0.20496800541877747
1788164614467638000,10.994637939453124,0.30107998847961426,0.5457919836044312,0.11173400282859802
1788164614477726000,11.004725830078126,-0.5628060102462769,0.2313929945230484,0.13635599613189697
1788164614487812000,11.01481201171875,-0.9243670105934143,-0.11609400063753128,0.3734390139579773
1788164614497896400,11.024896484375,-1.1668310165405273,-0.227183997631073,0.30012398958206177
1788164614507975400,11.034975341796875,-0.48170098662376404,-0.33522000908851624,0.5409340262413025
1788164614518061600,11.0450615234375,-0.1445470005273819,-0.16018399596214294,0.5479369759559631
1788164614528152300,11.05515234375,0.13179300725460052,-0.24120500683784485,0.46204501390457153
1788164614538242600,11.06524267578125,-0.22100099921226501,0.046535998582839966,-0.060610998421907425
1788164614548328400,11.075328369140625,-0.6861580014228821,0.2865450084209442,0.02100300043821335
1788164614558425600,11.085425537109375,-0.9251220226287842,0.044179998338222504,0.012253999710083008
1788164614568504300,11.09550439453125,-0.02765900082886219,-0.5808799862861633,-0.6386610269546509
1788164614578598000,11.105597900390626,1.0304960012435913,-0.37855300307273865,-0.677183985710144
1788164614588678700,11.1156787109375,2.7237300872802734,-0.3089990019798279,-1.261080026626587
1788164614598772700,11.125772705078125,2.244184970855713,-0.2763209939002991,-1.5957839488983154
1788164614608857900,11.13585791015625,1.2307510375976562,-0.5184419751167297,-1.8246690034866333
1788164614618949000,11.14594921875,-0.11787699908018112,-0.9281420111656189,-1.5093250274658203
1788164614629027300,11.15602734375,-0.9543409943580627,-1.0757499933242798,-0.5323529839515686
1788164614639110000,11.16610986328125,-1.7788840532302856,-0.47644099593162537,0.024246999993920326
1788164614649195800,11.17619580078125,-1.647078037261963,0.7353919744491577,0.6269930005073547
1788164614659294700,11.186294677734375,-2.0124499797821045,2.1092519760131836,0.8708800077438354
1788164614669379300,11.19637939453125,-2.1271169185638428,3.1898229122161865,0.15401700139045715
1788164614679471600,11.2064716796875,-1.2781059741973877,3.320265054702759,-0.7624009847640991
1788164614689567500,11.2165673828125,-0.1846179962158203,2.6226210594177246,-1.2772159576416016
1788164614699664100,11.2266640625,0.6144030094146729,2.0010790824890137,-1.4212249517440796
1788164614709749800,11.236749755859375,1.7961130142211914,1.322337031364441,-1.2714899778366089
1788164614719836400,11.24683642578125,2.9847168922424316,0.6049010157585144,-0.9388059973716736
1788164614729925000,11.256925048828125,3.16070294380188,0.25000301003456116,-1.003188967704773
1788164614740020200,11.267020263671874,2.381834030151367,0.06307899951934814,-0.7274680137634277
1788164614750111500,11.277111572265625,1.6628680229187012,-0.2836399972438812,0.577996015548706
1788164614760205800,11.287205810546874,0.7038729786872864,-0.8894680142402649,1.5921939611434937
1788164614770287900,11.297287841796875,-1.461277961730957,-1.4137810468673706,1.6967829465866089
1788164614780371200,11.30737109375,-2.827543020248413,-2.004455089569092,1.6063799858093262
1788164614790457600,11.31745751953125,-2.901412010192871,-1.943053960800171,0.6449329853057861
1788164614800546300,11.32754638671875,-1.0010370016098022,-1.439370036125183,-0.2342970073223114
1788164614810628400,11.33762841796875,1.011680006980896,-0.9448680281639099,-0.48384198546409607
1788164614820713200,11.347713134765625,1.7142670154571533,-0.9884830117225647,-0.0819230005145073
1788164614830801700,11.3578017578125,1.6428899765014648,-1.4442930221557617,0.6904079914093018
1788164614840895500,11.3678955078125,1.0297470092773438,-2.270435094833374,0.9587420225143433
1788164614850987800,11.37798779296875,1.1418399810791016,-2.811116933822632,1.9135019779205322
1788164614861079800,11.388079833984374,1.2211860418319702,-2.6317520141601562,2.119744062423706
1788164614871158300,11.398158203125,0.7107539772987366,-1.728646993637085,1.9273649454116821
1788164614881249800,11.408249755859375,-0.7153750061988831,-0.5474669933319092,2.2012360095977783
1788164614891335200,11.418335205078124,-2.1861820220947266,0.895576000213623,1.8045190572738647
1788164614901426700,11.4284267578125,-3.8658690452575684,1.9175219535827637,1.5146640539169312
1788164614911512600,11.4385126953125,-5.438043117523193,2.0453031063079834,1.370934009552002
1788164614921602600,11.4486025390625,-4.814109802246094,1.4877790212631226,0.9910619854927063
1788164614931682600,11.4586826171875,-3.0099799633026123,1.3251899480819702,0.1501069962978363
1788164614941768400,11.4687685546875,-0.5539309978485107,1.2847859859466553,-0.9825599789619446
1788164614951854800,11.478854736328126,1.4133800268173218,1.24468994140625,-1.1192140579223633
1788164614961942300,11.4889423828125,2.313591957092285,1.1707899570465088,-1.2697160243988037
1788164614972034800,11.499034912109375,2.2805469036102295,0.7971519827842712,-1.3499469757080078
1788164614982126600,11.509126708984375,1.3032759428024292,0.4341619908809662,-0.7902910113334656
1788164614992207600,11.51920751953125,-0.5379859805107117,-0.01735600084066391,-0.10121800005435944
1788164615002310000,11.529309814453125,-3.300757884979248,-0.012706000357866287,0.6836370229721069
1788164615012400000,11.539400146484375,-5.369651794433594,-0.42869898676872253,1.0097709894180298
1788164615022492200,11.5494921875,-5.083052158355713,-0.3149920105934143,1.3286869525909424
1788164615032584400,11.55958447265625,-3.033452033996582,0.3063589930534363,0.83405601978302
1788164615042676500,11.569676513671874,-1.067723035812378,0.5712990164756775,0.23325100541114807
1788164615052765000,11.579764892578124,0.421083003282547,0.3345879912376404,0.5864959955215454
1788164615062854100,11.589854248046874,0.951803982257843,-0.1350879967212677,0.5191130042076111
1788164615072945000,11.59994482421875,1.236899971961975,-0.6501039862632751,1.0208070278167725
1788164615083035100,11.61003515625,0.6276140213012695,-0.32250499725341797,0.9006530046463013
1788164615093114400,11.6201142578125,0.006461000069975853,0.26993298530578613,0.5918359756469727
1788164615103204400,11.630204345703126,-0.45166799426078796,0.6589959859848022,0.3681659996509552
1788164615113296100,11.640296142578125,-0.29124799370765686,0.8183240294456482,-0.471794992685318
1788164615123386600,11.65038671875,0.16856999695301056,1.2096530199050903,-0.6966050267219543
1788164615133464800,11.66046484375,-0.17201100289821625,1.323138952255249,-0.866582989692688
1788164615143556000,11.67055615234375,0.004625000059604645,1.0591109991073608,-0.21069000661373138
1788164615153643300,11.680643310546875,-0.09751199930906296,0.8389930129051208,0.3881079852581024
1788164615163736600,11.690736572265624,-0.6130939722061157,0.610958993434906,0.7605699896812439
1788164615173823200,11.7008232421875,-0.37108901143074036,0.4133610129356384,1.0970540046691895
1788164615183933700,11.71093359375,-0.1352670043706894,0.28091299533843994,0.45163899660110474
1788164615194033000,11.721032958984376,0.46807101368904114,0.4519529938697815,-0.3169170022010803
1788164615204120300,11.731120361328125,0.2967100143432617,0.9049090147018433,-0.9717910289764404
1788164615214212600,11.741212646484374,0.3351359963417053,1.0444560050964355,-1.357131004333496
1788164615224308500,11.75130859375,0.2554279863834381,0.6406980156898499,-1.0832979679107666
1788164615234389000,11.761388916015624,0.46466299891471863,-0.029954999685287476,-0.9575470089912415
1788164615244478500,11.771478515625,1.2856199741363525,-0.5950790047645569,-0.37470901012420654
1788164615254569500,11.781569580078125,2.080212116241455,-0.8194730281829834,0.1163410022854805
1788164615264658000,11.791657958984375,2.434072971343994,-0.9316070079803467,0.3915480077266693
1788164615274743600,11.80174365234375,2.724113941192627,-0.5723739862442017,0.750976026058197
1788164615284836000,11.811836181640626,3.0512208938598633,-0.49790099263191223,0.6009950041770935
1788164615294920400,11.82192041015625,1.3743360042572021,-0.4471609890460968,1.0157480239868164
1788164615305011000,11.832010986328125,-0.47771400213241577,-0.13597099483013153,0.6553130149841309
1788164615315098400,11.842098388671875,-2.191567897796631,-0.3450529873371124,0.4424940049648285
1788164615325183500,11.85218359375,-3.8222029209136963,-0.36800599098205566,0.4088830053806305
1788164615335272200,11.862272216796875,-4.373717784881592,-0.38122498989105225,-0.24550199508666992
1788164615345364500,11.872364501953125,-3.223123073577881,-0.10075700283050537,-0.5331779718399048
1788164615355457000,11.88245703125,-1.1271719932556152,-0.305294007062912,-0.775081992149353
1788164615365542100,11.892542236328126,-0.028024999424815178,-0.4914189875125885,-0.15196199715137482
1788164615375633200,11.902633056640624,0.7946249842643738,-0.30687201023101807,-0.15166699886322021
1788164615385720000,11.912719970703124,1.479619026184082,-0.30898699164390564,0.2527399957180023
1788164615395806700,11.922806640625,1.2755709886550903,-0.6271790266036987,0.6852920055389404
1788164615405898500,11.9328984375,0.5023599863052368,-0.888683021068573,0.38605400919914246
1788164615415987700,11.94298779296875,-0.3009290099143982,-0.9303110241889954,0.5689060091972351
1788164615426073300,11.9530732421875,-1.3181730508804321,-0.6489149928092957,0.5023880004882812
1788164615436161000,11.9631611328125,-2.1099069118499756,-0.0370200015604496,0.6625570058822632
1788164615446247000,11.973246826171875,-2.6357650756835938,0.3690919876098633,0.986844003200531
1788164615456338200,11.983338134765624,-3.609442949295044,0.8177750110626221,0.7077109813690186
1788164615466415400,11.993415283203126,-2.844446897506714,0.8629710078239441,0.3375970125198364
1788164615476500700,12.003500732421875,-2.0677649974823,0.9045469760894775,-0.5284540057182312
1788164615486584300,12.013584228515626,-0.7868080139160156,0.5644149780273438,-0.4085429906845093
1788164615496665600,12.02366552734375,0.001348000019788742,0.5291550159454346,-0.76460200548172
1788164615506748000,12.033747802734375,0.9222769737243652,0.4991999864578247,-1.1474299430847168
1788164615516833000,12.0438330078125,0.8484569787979126,0.1908860057592392,-0.12469200044870377
1788164615526914300,12.053914306640625,-0.2674039900302887,0.3254219889640808,-0.301813006401062
1788164615537002000,12.064001953125,-1.4070570468902588,0.5171030163764954,0.3810020089149475
1788164615547084300,12.074084228515625,-3.144871950149536,0.7530580163002014,0.4466019868850708
1788164615557173200,12.08417333984375,-3.3394269943237305,0.756371021270752,0.05278300121426582
1788164615567260700,12.0942607421875,-2.859273910522461,1.0730700492858887,-0.026009999215602875
1788164615577343000,12.104343017578126,-1.4546699523925781,0.9183850288391113,-0.8574349880218506
1788164615587425000,12.114425048828124,0.12776799499988556,0.27166101336479187,-1.062121033668518
1788164615597508600,12.124508544921875,2.3243420124053955,-0.26777300238609314,-1.1766619682312012
1788164615607598300,12.134598388671876,3.3371310234069824,-0.7480949759483337,-1.1796660423278809
1788164615617687800,12.144687744140626,4.5102620124816895,-0.7660920023918152,-0.7494789958000183
1788164615627764500,12.154764404296875,4.855984210968018,-0.34836798906326294,-0.8809239864349365
1788164615637854000,12.16485400390625,3.701103925704956,0.1873050034046173,0.1107420027256012
1788164615647937500,12.1749375,1.9405970573425293,0.8464800119400024,0.04847100004553795
1788164615658015500,12.185015380859374,-0.7448980212211609,0.8343330025672913,0.2978590130805969
1788164615668093700,12.19509375,-3.190764904022217,0.22781600058078766,1.2061920166015625
1788164615678178000,12.205177978515625,-4.8069539070129395,-0.24395200610160828,0.6615579724311829
1788164615688261600,12.21526171875,-4.714879989624023,-0.20229700207710266,-0.3354380130767822
1788164615698350600,12.2253505859375,-3.16772198677063,-0.4213240146636963,-1.3769880533218384
1788164615708423700,12.235423583984375,-0.521435022354126,-1.0250190496444702,-0.9139639735221863
1788164615718511600,12.24551171875,1.640184998512268,-1.345533013343811,-0.2218710035085678
1788164615728598300,12.255598388671874,3.5092689990997314,-1.5374950170516968,-0.2311369925737381
1788164615738689500,12.265689453125,4.692759990692139,-1.5422459840774536,0.3370159864425659
1788164615748779000,12.275779052734375,5.359568119049072,-1.0079959630966187,0.11683200299739838
1788164615758890800,12.285890869140625,5.351097106933594,-0.3093299865722656,0.21727299690246582
1788164615768978200,12.295978271484374,4.570371150970459,0.4340139925479889,-0.42608800530433655
1788164615779072300,12.306072265625,3.1859540939331055,0.5143370032310486,-0.3806909918785095
1788164615789161700,12.31616162109375,1.9573400020599365,0.4979499876499176,0.052411999553442
1788164615799248100,12.326248046875,-0.8342469930648804,0.4477280080318451,0.39788898825645447
1788164615809339000,12.3363388671875,-2.95558500289917,0.3600330054759979,0.7156090140342712
1788164615819428400,12.346428466796874,-4.894154071807861,0.28205201029777527,0.42875900864601135
1788164615829517000,12.35651708984375,-4.680111885070801,0.22124899923801422,-0.028246000409126282
1788164615839613000,12.366613037109374,-2.9842538833618164,0.41649699211120605,-0.9913120269775391
1788164615849700900,12.376700927734374,-1.038107991218567,0.13926100730895996,-1.353950023651123
1788164615859784400,12.386784423828125,0.937620997428894,-0.0933850035071373,-1.4715659618377686
1788164615869866000,12.396865966796875,2.265213966369629,-0.35697200894355774,-1.6489839553833008
1788164615879959800,12.406959716796875,3.155940055847168,-0.5636000037193298,-1.732951045036316
1788164615890050800,12.41705078125,3.460901975631714,-0.7218130230903625,-1.0649429559707642
1788164615900136400,12.427136474609375,3.7691190242767334,-1.190472960472107,-0.6085569858551025
1788164615910226400,12.437226318359375,2.959136962890625,-1.5897560119628906,0.22275100648403168
1788164615930411500,12.45741162109375,0.840802013874054,-1.8495819568634033,1.619791030883789
1788164615940493600,12.46749365234375,-0.654304027557373,-1.8958740234375,2.3563740253448486
1788164615950576000,12.477576171875,-1.7035640478134155,-1.8856450319290161,2.5941359996795654
1788164615960664800,12.487664794921875,-4.032626152038574,-1.4748350381851196,2.48647403717041
1788164615970752300,12.497752197265624,-5.121713161468506,-1.1275629997253418,2.088097095489502
1788164615980842800,12.5078427734375,-5.909023761749268,-1.1233450174331665,1.2617160081863403
1788164615990913300,12.517913330078125,-4.71416711807251,-1.5147720575332642,0.3902750015258789
1788164616001002000,12.528001953125,-1.7225379943847656,-1.8599690198898315,0.36526501178741455
1788164616011082500,12.53808251953125,0.7487940192222595,-2.085405111312866,0.1266220062971115
1788164616021175800,12.54817578125,2.1293420791625977,-1.896399974822998,-0.044447001069784164
1788164616031262000,12.558261962890626,2.8651719093322754,-1.6591440439224243,0.36088699102401733
1788164616041352700,12.568352783203125,2.500577926635742,-1.6939339637756348,0.5212600231170654
1788164616051436800,12.578436767578125,1.6473599672317505,-1.695235013961792,0.7697299718856812
1788164616061526000,12.588526123046876,-0.1356389969587326,-1.300413966178894,1.257220983505249
1788164616071613700,12.59861376953125,-2.8572559356689453,-1.056007981300354,2.0654730796813965
1788164616081703200,12.608703125,-3.8991429805755615,-1.0756449699401855,2.4441239833831787
1788164616091789600,12.61878955078125,-5.267581939697266,-1.1421200037002563,1.2496639490127563
1788164616101886700,12.62888671875,-5.096399784088135,-0.4858599901199341,-0.020015999674797058
1788164616111974000,12.638973876953125,-3.0169858932495117,-0.460332989692688,-0.391728013753891
1788164616122071600,12.649071533203125,-1.9038280248641968,-0.5666239857673645,-1.041964054107666
1788164616132153300,12.6591533203125,-0.9885079860687256,-1.0939840078353882,-1.2608200311660767
1788164616142243800,12.669243896484375,-0.1075190007686615,-1.6910990476608276,-0.9259799718856812
1788164616152328400,12.679328369140626,1.4014999866485596,-1.9863309860229492,-0.9803239703178406
1788164616162413000,12.6894130859375,3.037092924118042,-1.9041179418563843,-1.0140520334243774
1788164616172493300,12.699493408203125,3.968985080718994,-1.579591989517212,-0.265639990568161
1788164616182576600,12.70957666015625,2.429184913635254,-1.1477299928665161,-0.058949001133441925
1788164616192664000,12.7196640625,1.0372710227966309,-0.8671150207519531,-0.020545000210404396
1788164616202754800,12.7297548828125,-0.18832999467849731,-0.567113995552063,0.12967999279499054
1788164616212843800,12.73984375,-1.4906790256500244,-0.5974329710006714,0.701026976108551
1788164616222934500,12.7499345703125,-2.541421890258789,-0.8381279706954956,0.5118420124053955
1788164616233019400,12.760019287109374,-2.5626909732818604,-1.4651230573654175,0.7118449807167053
1788164616243109000,12.770109130859375,-1.1710599660873413,-1.9297670125961304,0.6151660084724426
1788164616253187000,12.78018701171875,0.20560799539089203,-1.9961329698562622,0.44106099009513855
1788164616263271000,12.79027099609375,1.6018680334091187,-1.8823269605636597,0.7717239856719971
1788164616273381000,12.800381103515624,1.3611940145492554,-1.734274983406067,0.9181380271911621
1788164616283474000,12.810473876953125,-0.2493859976530075,-1.7437039613723755,0.8855850100517273
1788164616293555500,12.820555419921876,-0.7947310209274292,-1.7992080450057983,0.7705829739570618
1788164616303646000,12.83064599609375,-0.5190989971160889,-1.558593988418579,0.3474520146846771
1788164616313729000,12.84072900390625,1.3128349781036377,-1.6088860034942627,0.626101016998291
1788164616323810800,12.850810791015626,1.5985480546951294,-1.6540759801864624,0.34182900190353394
1788164616333899500,12.8608994140625,2.394231081008911,-1.7447099685668945,0.7106689810752869
1788164616343993300,12.870993408203125,1.6287200450897217,-1.5275219678878784,0.8109909892082214
1788164616354081000,12.8810810546875,-0.11618400365114212,-1.62581205368042,1.4258029460906982
1788164616364174300,12.89117431640625,-2.309206962585449,-1.3653260469436646,1.5572669506072998
