time,seconds_elapsed,z,y,x
1788164603641168400,0.16816845703125,0.13378749787807465,0.4606249928474426,-0.20102499425411224
1788164603651255600,0.178255615234375,0.19483749568462372,0.6487249732017517,-0.29878750443458557
1788164603663369700,0.19036962890625,0.295074999332428,0.7880125045776367,-0.42707499861717224
1788164603673470200,0.20047021484375,0.40383750200271606,0.8210124969482422,-0.5479375123977661
1788164603683567600,0.210567626953125,0.4978874921798706,0.8442500233650208,-0.6664624810218811
1788164603693666600,0.22066650390625,0.5601750016212463,0.909012496471405,-0.7690374851226807
1788164603703762400,0.230762451171875,0.6529874801635742,0.9310125112533569,-0.8435624837875366
1788164603713852000,0.240851806640625,0.7177500128746033,0.9933000206947327,-0.9290875196456909
1788164603734034200,0.2610341796875,0.9486125111579895,0.9810624718666077,-1.0818500518798828
1788164603744125700,0.271125732421875,0.9755625128746033,0.9248250126838684,-1.2199000120162964
1788164603754208800,0.281208740234375,0.7727500200271606,0.31033748388290405,-1.0683749914169312
1788164603764297500,0.29129736328125,0.6591749787330627,0.5291000008583069,-0.6494125127792358
1788164603774380300,0.30138037109375,0.7434625029563904,1.2131625413894653,-0.6274124979972839
1788164603784465000,0.31146484375,0.9425625205039978,1.5492124557495117,-1.1856625080108643
1788164603794556400,0.321556396484375,0.9865624904632568,1.6677374839782715,-1.750100016593933
1788164603804640000,0.331639892578125,0.9560375213623047,1.8913124799728394,-2.0469624996185303
1788164603814728700,0.341728759765625,0.990274965763092,1.771549940109253,-2.314537525177002
1788164603824819500,0.3518193359375,0.7788000106811523,2.034174919128418,-2.1447250843048096
1788164603834905000,0.361905029296875,0.505174994468689,2.594899892807007,-2.0787250995635986
1788164603845006000,0.372006103515625,0.15950000286102295,2.0561749935150146,-2.004199981689453
1788164603855089400,0.38208935546875,-0.12402500212192535,-0.21615000069141388,-1.9175750017166138
1788164603865183500,0.39218359375,-0.05555000156164169,-1.2509750127792358,-1.570525050163269
1788164603875273000,0.40227294921875,-0.1093124970793724,-1.4916000366210938,-0.824037492275238
1788164603885362700,0.41236279296875,-0.07631249725818634,-1.347499966621399,-0.2083124965429306
1788164603895458600,0.42245849609375,0.2523125112056732,-1.3340250253677368,-0.04468749836087227
1788164603905542400,0.43254248046875,0.36465001106262207,-1.1666874885559082,0.08002500236034393
1788164603915624400,0.44262451171875,0.1863124966621399,-1.027400016784668,0.04331250116229057
1788164603925710600,0.452710693359375,0.04221250116825104,-0.9211124777793884,-0.15207499265670776
1788164603935799800,0.4627998046875,-0.141075000166893,-0.65972501039505,-0.2633124887943268
1788164603945888300,0.47288818359375,-0.4978874921798706,-0.5546749830245972,-0.17407499253749847
1788164603955967500,0.482967529296875,-0.7140374779701233,-0.4862000048160553,0.009074999950826168
1788164603966058800,0.493058837890625,0.7935125231742859,1.1166374683380127,-0.9230374693870544
1788164603976141800,0.503141845703125,2.4721124172210693,0.9822999835014343,-1.729337453842163
1788164603986229000,0.51322900390625,2.3500125408172607,-0.5900124907493591,-0.9828500151634216
1788164603996310000,0.52331005859375,1.7648124694824219,-1.2876875400543213,-0.5381749868392944
1788164604006393000,0.53339306640625,1.300475001335144,-1.5881249904632568,-0.9315624833106995
1788164604016473000,0.54347314453125,1.1526625156402588,-2.1612250804901123,-1.3029500246047974
1788164604026562300,0.553562255859375,1.0940874814987183,-2.416562557220459,-1.4557124376296997
1788164604036647700,0.563647705078125,1.117324948310852,-1.8997000455856323,-1.4924249649047852
1788164604046739500,0.573739501953125,1.2969000339508057,-1.1593999862670898,-1.4484249353408813
1788164604056821000,0.583821044921875,1.483762502670288,-0.5314375162124634,-1.2846624851226807
1788164604066912800,0.593912841796875,1.6169999837875366,0.1467124968767166,-1.0195624828338623
1788164604076996400,0.603996337890625,1.6010500192642212,0.9162999987602234,-0.7141749858856201
1788164604087089700,0.614089599609375,1.3384250402450562,1.617550015449524,-0.12773749232292175
1788164604097172700,0.6241728515625,1.1368499994277954,2.6536123752593994,0.2998875081539154
1788164604107263200,0.63426318359375,1.0928499698638916,3.661487579345703,0.5454624891281128
1788164604117344800,0.6443447265625,0.9975624680519104,1.8436000347137451,0.4244624972343445
1788164604127431200,0.65443115234375,0.8692749738693237,-0.10381250083446503,0.05431250110268593
1788164604137509400,0.66450927734375,0.7752249836921692,-1.700600028038025,-0.4160749912261963
1788164604147595800,0.674595703125,0.5796999931335449,-2.309037446975708,-0.7226999998092651
1788164604157686500,0.6846865234375,0.35007500648498535,-2.321274995803833,-0.6664624810218811
1788164604167774000,0.69477392578125,-0.08607500046491623,-3.6712498664855957,-0.6957499980926514
1788164604177859300,0.704859375,-0.522225022315979,-4.152500152587891,-0.9572749733924866
1788164604187950800,0.714950927734375,-0.8167499899864197,-3.7933499813079834,-0.7679374814033508
1788164604198033000,0.725032958984375,-0.9437999725341797,-2.9503374099731445,-0.5076500177383423
1788164604208118800,0.735118896484375,-1.0646624565124512,-1.5625499486923218,-0.07397499680519104
1788164604218197800,0.74519775390625,-1.1196625232696533,-0.2283875048160553,0.5271750092506409
1788164604228287000,0.755286865234375,-1.1563750505447388,0.6084374785423279,1.3505250215530396
1788164604238364000,0.765364013671875,-1.274899959564209,1.0665874481201172,2.330349922180176
1788164604248448800,0.77544873046875,-1.3334749937057495,1.8130749464035034,3.1073625087738037
1788164604258537500,0.785537353515625,-0.37441250681877136,3.475862503051758,3.0120749473571777
1788164604268627500,0.79562744140625,0.5442249774932861,4.177112579345703,2.907025098800659
1788164604278715100,0.805715087890625,0.8447999954223633,4.404262542724609,2.8727874755859375
1788164604288811800,0.815811767578125,0.8277499675750732,4.476449966430664,2.6211624145507812
1788164604298904300,0.825904296875,0.4916999936103821,3.9107749462127686,2.207012414932251
1788164604308977200,0.83597705078125,0.4661250114440918,3.5552000999450684,1.9052000045776367
1788164604319063000,0.84606298828125,0.513700008392334,3.6212000846862793,1.5900499820709229
1788164604329149700,0.856149658203125,0.5504124760627747,3.9645373821258545,1.3517625331878662
1788164604339240700,0.86624072265625,0.5174124836921692,4.333449840545654,1.2271875143051147
1788164604349337000,0.876337158203125,0.14231249690055847,5.01022481918335,1.09642493724823
1788164604359431000,0.886430908203125,0.09721250087022781,5.463562488555908,1.0561374425888062
1788164604369518300,0.896518310546875,0.15331250429153442,5.847187519073486,1.034137487411499
1788164604379603500,0.906603515625,0.022687500342726707,6.141574859619141,0.9229000210762024
1788164604389693700,0.916693603515625,-0.25712499022483826,6.434724807739258,0.7262749671936035
1788164604399777000,0.926777099609375,-0.5284125208854675,6.622962474822998,0.4954124987125397
1788164604409867500,0.936867431640625,-0.7042750120162964,6.6009626388549805,0.3096500039100647
1788164604419954200,0.9469541015625,-0.8203250169754028,6.291862487792969,0.18383750319480896
1788164604430046200,0.957046142578125,-0.8912749886512756,5.7934250831604,0.07507500052452087
1788164604440132000,0.967132080078125,-0.963325023651123,5.349850177764893,-0.026262499392032623
1788164604450225200,0.97722509765625,-1.1281875371932983,5.184987545013428,-0.09350000321865082
1788164604460316200,0.987316162109375,-1.3371875286102295,5.2790374755859375,0.015262499451637268
1788164604480485600,1.007485595703125,-1.4702874422073364,5.480612277984619,0.6089875102043152
1788164604490573600,1.017573486328125,-1.5387624502182007,5.4158501625061035,0.6945124864578247
1788164604500659000,1.027658935546875,-1.6035250425338745,5.308324813842773,0.6774625182151794
1788164604510743600,1.03774365234375,-1.6913875341415405,5.16298770904541,0.6797999739646912
1788164604520832500,1.04783251953125,-1.769624948501587,5.090937614440918,0.7628499865531921
1788164604530923000,1.057923095703125,-1.808674931526184,5.067699909210205,1.0194250345230103
1788164604541006300,1.06800634765625,-1.944387435913086,5.002937316894531,1.37128746509552
1788164604551095300,1.07809521484375,-2.2424874305725098,4.914937496185303,1.6351499557495117
1788164604561179600,1.0881796875,-2.1141998767852783,4.427499771118164,1.7659125328063965
1788164604571264300,1.09826416015625,-2.0554873943328857,4.020637512207031,1.712149977684021
1788164604581348600,1.1083486328125,-2.0897250175476074,3.918062448501587,1.6730999946594238
1788164604591440400,1.1184404296875,-1.9236249923706055,3.7530624866485596,1.7854374647140503
1788164604601519400,1.128519287109375,-1.7171000242233276,3.561387538909912,1.9711999893188477
1788164604611606500,1.1386064453125,-1.6035250425338745,3.2718124389648438,2.1984875202178955
1788164604621691600,1.148691650390625,-1.4972374439239502,2.8344249725341797,2.4354000091552734
1788164604631781400,1.158781494140625,-1.4262875318527222,2.2834625244140625,2.454925060272217
1788164604641875500,1.16887548828125,-1.3322374820709229,1.7740249633789062,2.177725076675415
1788164604651965200,1.178965087890625,-1.130662441253662,1.2742124795913696,1.807437539100647
1788164604662048300,1.18904833984375,-0.8875625133514404,0.8625375032424927,1.520337462425232
1788164604672144000,1.199143798828125,-0.6687999963760376,0.5889124870300293,1.4275250434875488
1788164604682231800,1.209231689453125,-0.5246999859809875,0.45938751101493835,1.5350500345230103
1788164604692328000,1.219327880859375,-0.41593748331069946,0.46915000677108765,1.7573875188827515
1788164604702417000,1.2294169921875,-0.3158375024795532,0.5388625264167786,1.9834375381469727
1788164604712499500,1.23949951171875,-0.1985500007867813,0.5583875179290771,2.126300096511841
1788164604722588000,1.249587890625,0.05197500064969063,0.64638751745224,2.2020626068115234
1788164604732681500,1.259681396484375,0.35612499713897705,0.8515374660491943,2.25211238861084
1788164604742767400,1.269767333984375,0.5198875069618225,0.9822999835014343,2.271775007247925
1788164604752858400,1.2798583984375,0.5174124836921692,0.9663500189781189,2.2985875606536865
1788164604762945800,1.28994580078125,0.5308874845504761,0.8405374884605408,2.346299886703491
1788164604773026800,1.30002685546875,0.5944125056266785,0.6804875135421753,2.4183499813079834
1788164604783116500,1.310116455078125,0.7006999850273132,0.6572499871253967,2.2558250427246094
1788164604793209600,1.320209716796875,0.7117000222206116,0.37014999985694885,2.0762500762939453
1788164604803293000,1.33029296875,0.7690374851226807,0.15028749406337738,1.7060999870300293
1788164604813389600,1.3403896484375,0.7812749743461609,0.023237500339746475,1.3347125053405762
1788164604823473000,1.350472900390625,0.7177500128746033,-0.3114374876022339,0.7788000106811523
1788164604833559600,1.3605595703125,0.6017000079154968,-0.14162500202655792,0.13378749787807465
1788164604843638000,1.370637939453125,0.5234624743461609,-0.25286251306533813,-0.42941248416900635
1788164604853725000,1.380724853515625,0.5454624891281128,-0.3236750066280365,-0.7507500052452087
1788164604863807200,1.39080712890625,0.7422249913215637,-0.35667499899864197,-0.8327000141143799
1788164604873897000,1.40089697265625,0.951087474822998,-0.2283875048160553,-0.7165125012397766
1788164604883983000,1.410983154296875,0.9585124850273132,0.0672374963760376,-0.6249374747276306
1788164604894074000,1.42107421875,0.8522250056266785,0.4008125066757202,-0.5333625078201294
1788164604904166000,1.431165771484375,0.6701750159263611,0.8124874830245972,-0.4404124915599823
1788164604914260500,1.441260498046875,0.4575999975204468,1.0726374387741089,-0.2938374876976013
1788164604924348700,1.4513486328125,0.22659999132156372,1.3036375045776367,-0.22783750295639038
1788164604934430700,1.4614306640625,0.021449999883770943,1.3879250288009644,-0.22055000066757202
1788164604944514300,1.471514404296875,-0.10449999570846558,1.530787467956543,-0.19978749752044678
1788164604954602000,1.48160205078125,-0.40136250853538513,1.6835500001907349,-0.14354999363422394
1788164604964691200,1.491691162109375,-0.6687999963760376,1.7495499849319458,-0.2718375027179718
1788164604974778400,1.5017783203125,-1.130662441253662,1.668837547302246,-0.4221250116825104
1788164604984897500,1.5118974609375,-1.5252875089645386,1.4880249500274658,-0.6676999926567078
1788164604994981600,1.521981689453125,-2.0017249584198,0.9860125184059143,-0.8692749738693237
1788164605005071000,1.532071044921875,-2.4378750324249268,0.734250009059906,-0.890037477016449
1788164605015160000,1.54216015625,-3.356649875640869,0.8747749924659729,-0.7482749819755554
1788164605025256200,1.552256103515625,-3.385937452316284,0.8710625171661377,-0.815512478351593
1788164605035347200,1.56234716796875,-3.0157876014709473,1.1985875368118286,-1.221137523651123
1788164605045442600,1.572442626953125,-2.9998373985290527,2.1869375705718994,-1.7586250305175781
1788164605055527200,1.582527099609375,-3.284600019454956,3.0494749546051025,-2.231487512588501
1788164605065614600,1.592614501953125,-3.4666500091552734,4.0390625,-2.547874927520752
1788164605075698200,1.6026982421875,-3.2528374195098877,4.919887542724609,-2.6749250888824463
1788164605085786400,1.612786376953125,-2.667637586593628,5.285087585449219,-2.2827749252319336
1788164605105956900,1.632956787109375,-0.8533250093460083,6.499487400054932,-0.5796999931335449
1788164605116041000,1.643041015625,-0.017737500369548798,4.547262668609619,0.6517499685287476
1788164605126119200,1.653119140625,0.7642250061035156,1.8118374347686768,1.4555749893188477
1788164605136205000,1.663205078125,1.0073250532150269,-0.32491248846054077,1.3114750385284424
1788164605146295300,1.67329541015625,0.7385125160217285,-1.1764500141143799,0.7165125012397766
1788164605156378400,1.68337841796875,0.41964998841285706,-1.153212547302246,0.16183750331401825
1788164605166471200,1.69347119140625,0.2437874972820282,-0.6682500243186951,-0.1839749962091446
1788164605176550100,1.703550048828125,0.16554999351501465,-0.10986249893903732,-0.27678748965263367
1788164605186635300,1.71363525390625,0.1190750002861023,0.2578125,-0.19978749752044678
1788164605196721700,1.7237216796875,0.17531250417232513,0.36781248450279236,-0.11055000126361847
1788164605206815000,1.73381494140625,0.41359999775886536,0.2040500044822693,-0.08249999582767487
1788164605216897000,1.74389697265625,0.6909375190734863,-0.3713875114917755,-0.1704999953508377
1788164605226978000,1.75397802734375,0.40617498755455017,-0.8148249983787537,-0.31459999084472656
1788164605237062700,1.764062744140625,-0.0005499999970197678,-1.1006875038146973,-0.557699978351593
1788164605247142700,1.774142578125,0.005499999970197678,-1.4635499715805054,-0.7251750230789185
1788164605257225200,1.78422509765625,0.19978749752044678,-1.7909375429153442,-0.5956500172615051
1788164605267320000,1.794320068359375,0.3843125104904175,-1.9327000379562378,-0.27678748965263367
1788164605277398800,1.804398681640625,0.5784624814987183,-1.6553624868392944,0.0518375001847744
1788164605287488500,1.814488525390625,0.6237000226974487,-1.0555875301361084,0.3891249895095825
1788164605297564200,1.824564208984375,0.38183748722076416,-0.48372501134872437,0.6652249693870544
1788164605307653600,1.834653564453125,-0.12278749793767929,-0.32133749127388,0.7995625138282776
1788164605317754000,1.844754150390625,-0.7690374851226807,-0.7770124673843384,0.9351375102996826
1788164605327842600,1.854842529296875,-1.4165250062942505,-1.2351624965667725,1.0353749990463257
1788164605337924600,1.864924560546875,-1.6633374691009521,-0.8893499970436096,0.5784624814987183
1788164605348015000,1.87501513671875,-1.0158499479293823,-0.5717250108718872,-0.28036248683929443
1788164605358100200,1.885100341796875,0.21683749556541443,-0.7378249764442444,-0.871749997138977
1788164605368187000,1.895186767578125,1.6035250425338745,-0.8100125193595886,-1.2223750352859497
1788164605378279400,1.905279541015625,2.232724905014038,-0.8160625100135803,-1.478950023651123
1788164605388365000,1.915364990234375,1.1393250226974487,0.15757499635219574,-1.3652374744415283
1788164605398452200,1.9254521484375,-0.890037477016449,1.4672625064849854,-0.7299875020980835
1788164605408539600,1.93553955078125,-1.732912540435791,0.8369625210762024,0.13612499833106995
1788164605418625500,1.94562548828125,-1.3822875022888184,0.18328750133514404,0.43188750743865967
1788164605428717300,1.95571728515625,-0.6029375195503235,0.15399999916553497,0.3694624900817871
1788164605438802200,1.96580224609375,-0.12031249701976776,0.24557499587535858,0.1667875051498413
1788164605448889900,1.975889892578125,-0.08607500046491623,0.515625,0.07507500052452087
1788164605458987000,1.985987060546875,-0.27912500500679016,1.310925006866455,0.1447875052690506
1788164605469074400,1.996074462890625,-0.2938374876976013,1.4624500274658203,0.2595999836921692
1788164605479155200,2.0061552734375,-0.2363625019788742,1.1923999786376953,0.16554999351501465
1788164605489252000,2.016252197265625,-0.2083124965429306,1.1961125135421753,0.172837495803833
1788164605499342800,2.0263427734375,-0.21559999883174896,1.4196875095367432,0.1093124970793724
1788164605509437700,2.036437744140625,-0.19607499241828918,2.0732250213623047,0.0873124971985817
1788164605519521500,2.046521484375,-0.20336249470710754,2.704900026321411,0.2730749845504761
1788164605529609200,2.056609130859375,-0.3158375024795532,2.798949956893921,0.6749874949455261
1788164605539694600,2.066694580078125,-0.33660000562667847,2.4275624752044678,1.1453750133514404
1788164605549785000,2.07678515625,-0.48317500948905945,1.822837471961975,1.4862375259399414
1788164605559868400,2.086868408203125,-0.8069875240325928,1.4794999361038208,1.475237488746643
1788164605569958700,2.096958740234375,-1.1978999376296997,1.726312518119812,1.1159499883651733
1788164605580043800,2.107043701171875,-1.3689500093460083,2.530137538909912,0.7189875245094299
1788164605590136600,2.117136474609375,-1.6401000022888184,3.79830002784729,0.8080874681472778
1788164605600219000,2.127218994140625,-1.9284374713897705,4.078112602233887,1.537524938583374
1788164605610310000,2.137309814453125,-1.9101499319076538,3.9253499507904053,2.403637409210205
1788164605620395800,2.147395751953125,-1.6816250085830688,3.7739624977111816,3.2124125957489014
1788164605630483700,2.157483642578125,-1.2101374864578247,4.440975189208984,3.6277999877929688
1788164605640568000,2.167568115234375,-0.8826124668121338,5.580850124359131,3.5924625396728516
1788164605650657500,2.177657470703125,0.06421250104904175,7.925224781036377,2.590637445449829
1788164605660743400,2.187743408203125,1.3151874542236328,8.776762008666992,1.5850999355316162
1788164605670832600,2.19783251953125,1.8515750169754028,6.856299877166748,1.2516624927520752
1788164605680919300,2.207919189453125,1.6193374395370483,5.2240376472473145,1.0401874780654907
1788164605691004400,2.21800439453125,1.0635625123977661,4.192924976348877,0.9180874824523926
1788164605701091300,2.22809130859375,0.5344625115394592,2.842949867248535,0.6945124864578247
1788164605711180500,2.2381806640625,0.026262499392032623,1.385450005531311,0.2741749882698059
1788164605721265400,2.248265380859375,-0.6762250065803528,0.10876250267028809,-0.2022625058889389
1788164605731358000,2.25835791015625,-1.1160874366760254,-0.9235875010490417,-0.6176499724388123
1788164605741439200,2.268439208984375,-1.1991374492645264,-1.8081250190734863,-0.8327000141143799
1788164605751528000,2.27852783203125,-1.0500874519348145,-2.45066237449646,-0.8447999954223633
1788164605761625000,2.288625,-0.9535624980926514,-2.9088125228881836,-0.7154124975204468
1788164605771716900,2.298716796875,-0.951087474822998,-3.5257749557495117,-0.6737499833106995
1788164605781798100,2.308798095703125,-0.9143750071525574,-4.33097505569458,-0.8839874863624573
1788164605791889400,2.318889404296875,-0.688462495803833,-5.274087429046631,-1.1356124877929688
1788164605801974000,2.32897412109375,-0.5319874882698059,-5.409662246704102,-1.3909499645233154
1788164605812069000,2.339069091796875,-0.5198875069618225,-5.5159502029418945,-1.3029500246047974
1788164605822146300,2.349146240234375,-0.5772249698638916,-4.839174747467041,-1.1625624895095825
1788164605832233200,2.359233154296875,-0.566224992275238,-3.6748249530792236,-1.1526625156402588
1788164605842317000,2.369317138671875,-0.48069998621940613,-2.7952375411987305,-1.1233749389648438
1788164605852419600,2.379419677734375,-0.2535499930381775,-2.445849895477295,-1.10385000705719
1788164605862504400,2.38950439453125,0.026262499392032623,-1.7408875226974487,-0.9157499670982361
1788164605872599800,2.399599853515625,0.20102499425411224,-0.15757499635219574,-0.5467000007629395
1788164605882690300,2.409690185546875,0.34031251072883606,0.3335750102996826,-0.15826250612735748
1788164605892780000,2.419780029296875,0.5431249737739563,0.08923749625682831,0.06902500241994858
1788164605902860800,2.42986083984375,0.7324625253677368,-0.37991249561309814,0.13378749787807465
1788164605912953900,2.439953857421875,0.6494125127792358,-0.4226749837398529,-0.02502499893307686
1788164605923041000,2.450041015625,-0.06902500241994858,2.070887565612793,-0.8998000025749207
1788164605933123000,2.460123046875,-0.5467000007629395,2.1881749629974365,-0.7117000222206116
1788164605943209500,2.47020947265625,-0.5174124836921692,1.0115875005722046,-0.6286500096321106
1788164605953300200,2.48030029296875,-0.5736500024795532,-0.813587486743927,-0.1313125044107437
1788164605963381500,2.490381591796875,-0.36588749289512634,-1.9217000007629395,0.048262499272823334
1788164605973475000,2.50047509765625,-0.20336249470710754,-1.4172124862670898,-0.30236250162124634
1788164605983558700,2.51055859375,-0.2180749922990799,-1.1764500141143799,-0.522362470626831
1788164605993652200,2.52065234375,-0.35241249203681946,-1.0676875114440918,-0.478362500667572
1788164606003737900,2.53073779296875,-0.3866499960422516,-0.8930624723434448,-0.2340250015258789
1788164606013828400,2.540828369140625,-0.42336249351501465,-0.695062518119812,0.04207500070333481
1788164606023927600,2.550927490234375,-0.8447999954223633,-0.49348750710487366,0.14231249690055847
1788164606034010600,2.5610107421875,-1.6878124475479126,-0.4006749987602234,0.14836250245571136
1788164606044092000,2.571091796875,-2.5038750171661377,-0.24310000240802765,0.1886499971151352
1788164606054189800,2.58118994140625,-2.9754998683929443,-0.010999999940395355,0.2303124964237213
1788164606064275200,2.591275146484375,-2.970550060272217,0.5216749906539917,0.21683749556541443
1788164606084447500,2.611447509765625,-2.632162570953369,0.7844374775886536,0.2363625019788742
1788164606094539800,2.621539794921875,-2.7579751014709473,0.6439124941825867,0.17765000462532043
1788164606104618500,2.631618408203125,-2.9742624759674072,0.5729625225067139,0.1373624950647354
1788164606114702800,2.641702880859375,-3.2271249294281006,0.35062500834465027,0.2204124927520752
1788164606124792600,2.65179248046875,-3.407937526702881,0.17352500557899475,0.3854124844074249
1788164606134881500,2.661881591796875,-3.301650047302246,-0.31638750433921814,0.6872249841690063
1788164606144977400,2.671977294921875,-2.750687599182129,-1.0078749656677246,1.0866625308990479
1788164606185345800,2.712345703125,0.13626250624656677,0.5669124722480774,0.596750020980835
1788164606195440000,2.722440185546875,0.47093749046325684,0.8637750148773193,0.566224992275238
1788164606205572600,2.732572509765625,0.605412483215332,0.9981124997138977,0.44288748502731323
1788164606215654000,2.74265380859375,0.6664624810218811,0.8369625210762024,0.3694624900817871
1788164606225747500,2.75274755859375,0.5784624814987183,0.7147250175476074,0.4452250003814697
1788164606235831300,2.762831298828125,0.2853125035762787,-0.023237500339746475,0.7299875020980835
1788164606256005000,2.783005126953125,-0.7970874905586243,-2.1550374031066895,1.6913875341415405
1788164606266090200,2.79309033203125,-0.890037477016449,-1.96322500705719,1.2955249547958374
1788164606286266400,2.813266357421875,-1.1539000272750854,-0.0952875018119812,-0.6859874725341797
1788164606306439200,2.833439208984375,-2.0201499462127686,1.731262445449829,-2.0506749153137207
1788164606316525300,2.843525390625,-1.8636749982833862,2.0916500091552734,-2.117912530899048
1788164606326610200,2.853610107421875,-1.1160874366760254,1.6457375288009644,-1.7672874927520752
1788164606336698000,2.863697998046875,0.02502499893307686,1.2474000453948975,-1.0696125030517578
1788164606346786300,2.873786376953125,0.97308748960495,1.9083625078201294,-0.3525499999523163
1788164606356873700,2.883873779296875,1.2992374897003174,3.0762875080108643,0.24131250381469727
1788164606366962000,2.8939619140625,1.4507625102996826,2.7439498901367188,0.2961750030517578
1788164606377046000,2.9040458984375,0.8105624914169312,5.09327507019043,0.4867500066757202
1788164606387134500,2.914134521484375,-0.33412501215934753,7.680887222290039,1.1037124395370483
1788164606397225200,2.92422509765625,-1.8111499547958374,8.613137245178223,0.7628499865531921
1788164606407320300,2.9343203125,-2.546637535095215,8.624137878417969,-0.04468749836087227
1788164606417400800,2.94440087890625,-2.95597505569458,7.834887504577637,-0.5589374899864197
1788164606427488000,2.954488037109375,-2.1923000812530518,5.531899929046631,-0.7226999998092651
1788164606437573600,2.96457373046875,-0.9498500227928162,3.3218624591827393,-0.544362485408783
1788164606447666200,2.974666259765625,0.05431250110268593,1.6627874374389648,-0.2890250086784363
1788164606457753600,2.984753662109375,0.23154999315738678,0.5424374938011169,0.10683749616146088
1788164606467844000,2.994843994140625,0.11783749610185623,-0.38967499136924744,0.30483749508857727
1788164606477923800,3.004923828125,-0.14836250245571136,-1.255924940109253,0.15331250429153442
1788164606488013800,3.015013916015625,-0.16307500004768372,-1.2167375087738037,-0.3623124957084656
1788164606498098000,3.025097900390625,-0.007974999956786633,-1.0836374759674072,-0.9072250127792358
1788164606508185000,3.03518505859375,0.12155000120401382,-1.3877874612808228,-1.269950032234192
1788164606518280400,3.045280517578125,0.30236250162124634,-3.2338624000549316,-1.3971375226974487
1788164606528370000,3.055369873046875,0.5504124760627747,-5.221562385559082,-1.1710875034332275
1788164606538457900,3.065457763671875,0.5846499800682068,-5.070037364959717,-0.5064125061035156
1788164606548544500,3.07554443359375,0.40012499690055847,-3.637012481689453,0.1508374959230423
1788164606558630100,3.085630126953125,0.15950000286102295,-2.995574951171875,0.35241249203681946
1788164606568718600,3.095718505859375,0.05678749829530716,-2.354137420654297,0.3694624900817871
1788164606578805000,3.105804931640625,0.10078749805688858,-1.2717374563217163,0.3511750102043152
1788164606588914400,3.11591455078125,0.16926249861717224,-0.16362500190734863,0.24736249446868896
1788164606598999300,3.125999267578125,0.31831249594688416,0.5779125094413757,0.12759999930858612
1788164606609088300,3.136088134765625,0.3218874931335449,0.9224874973297119,0.045787498354911804
1788164606619170300,3.14617041015625,0.22055000066757202,0.852774977684021,0.011549999937415123
1788164606629267200,3.15626708984375,0.08373750001192093,0.4703874886035919,0.03231250122189522
1788164606639351000,3.16635107421875,-0.021312499418854713,0.07823749631643295,0.07136250287294388
1788164606649439700,3.176439697265625,-0.10202500224113464,-0.12086249887943268,0.12155000120401382
1788164606659519000,3.18651904296875,-0.15826250612735748,-0.1368124932050705,0.1788875013589859
1788164606669608700,3.196608642578125,-0.1667875051498413,-0.14162500202655792,0.2241249978542328
1788164606679699200,3.20669921875,-0.09831249713897705,-0.16362500190734863,0.2180749922990799
1788164606689790000,3.2167900390625,0.012787500396370888,-0.17833749949932098,0.1373624950647354
1788164606699875300,3.226875244140625,0.1447875052690506,-0.1331000030040741,-0.016499999910593033
1788164606709966800,3.236966796875,0.2046000063419342,-0.010999999940395355,-0.19373749196529388
1788164606720055600,3.2470556640625,0.1508374959230423,-0.037812501192092896,-0.3011249899864197
1788164606730141400,3.257141357421875,0.0849749967455864,-0.023237500339746475,-0.3110249936580658
1788164606740229000,3.26722900390625,0.03244999796152115,-0.07933750003576279,-0.22055000066757202
1788164606750318000,3.277318115234375,0.011687500402331352,-0.030524998903274536,-0.06902500241994858
1788164606760404000,3.287404052734375,0.022549999877810478,-0.014574999921023846,0.0812624990940094
1788164606770493200,3.2974931640625,0.0849749967455864,-0.04881250113248825,0.15578749775886536
1788164606780574000,3.307573974609375,0.13255000114440918,0.02447500079870224,0.1350249946117401
1788164606790664200,3.317664306640625,0.18754999339580536,0.06847500056028366,0.05926249921321869
1788164606800748000,3.327748046875,0.21326249837875366,0.09404999762773514,-0.03973750025033951
1788164606810833000,3.3378330078125,0.19978749752044678,-0.032999999821186066,-0.058024998754262924
1788164606820915200,3.347915283203125,0.1288374960422516,-0.34209999442100525,0.07383749634027481
1788164606831003100,3.358003173828125,0.04702499881386757,-1.3963124752044678,0.5589374899864197
1788164606841091300,3.36809130859375,0.13983750343322754,-1.5735499858856201,0.596750020980835
1788164606851178500,3.378178466796875,0.148499995470047,-1.7568374872207642,0.6395124793052673
1788164606861266200,3.38826611328125,0.22426250576972961,-1.1593999862670898,0.4184125065803528
1788164606871356700,3.398356689453125,0.2595999836921692,-0.7158250212669373,0.19607499241828918
1788164606881440500,3.4084404296875,0.2560249865055084,-1.390262484550476,0.04207500070333481
1788164606891534600,3.41853466796875,0.141075000166893,-1.68464994430542,-0.12278749793767929
1788164606901614800,3.42861474609375,-0.045787498354911804,-1.2326874732971191,-0.22302499413490295
1788164606911704800,3.438704833984375,-0.14959999918937683,-0.6487249732017517,-0.24860000610351562
1788164606921784300,3.448784423828125,-0.1545500010251999,-0.12828749418258667,-0.25850000977516174
1788164606931872000,3.4588720703125,-0.13007499277591705,0.3470500111579895,-0.27431249618530273
1788164606941954800,3.468954833984375,-0.12636250257492065,0.6291999816894531,-0.303600013256073
1788164606952038000,3.479037841796875,-0.05926249921321869,0.5827249884605408,-0.28283751010894775
1788164606962133500,3.489133544921875,0.012787500396370888,-0.0695749968290329,-0.13255000114440918
1788164606972229400,3.4992294921875,-0.0030249999836087227,-0.9028249979019165,0.040837500244379044
1788164606982308000,3.50930810546875,-0.09955000132322311,-1.347499966621399,0.12636250257492065
1788164606992398800,3.51939892578125,-0.18878750503063202,-1.4330250024795532,0.141075000166893
1788164607002480600,3.529480712890625,-0.19359999895095825,-1.1764500141143799,0.1093124970793724
1788164607012571600,3.539571533203125,-0.1093124970793724,-0.5302000045776367,0.010312499478459358
1788164607022658000,3.549657958984375,0.0752125009894371,-0.13062499463558197,-0.058024998754262924
1788164607032747800,3.559747802734375,0.15207499265670776,0.2540999948978424,-0.0812624990940094
1788164607042835700,3.569835693359375,0.1264999955892563,0.6719624996185303,-0.09226249903440475
1788164607052928300,3.57992822265625,0.14973749220371246,0.8405374884605408,-0.12155000120401382
1788164607063007200,3.59000732421875,0.2340250015258789,0.9970124959945679,-0.19002500176429749
1788164607073097500,3.600097412109375,0.24255000054836273,1.310925006866455,-0.2730749845504761
1788164607083186700,3.610186767578125,0.1704999953508377,1.1618750095367432,-0.2780250012874603
1788164607093274000,3.620274169921875,0.06173750013113022,0.6243875026702881,-0.16554999351501465
1788164607103356200,3.630356201171875,0.0494999997317791,0.0611874982714653,-0.0019249999895691872
1788164607113445000,3.640445068359375,0.11302500218153,-0.282150000333786,0.11783749610185623
1788164607123523600,3.650523681640625,0.141075000166893,-0.2601499855518341,0.17159999907016754
1788164607133619200,3.660619140625,0.25478750467300415,0.07452499866485596,0.13612499833106995
1788164607143703300,3.670703369140625,0.22907499969005585,0.4081000089645386,0.053075000643730164
1788164607153793000,3.68079296875,0.22302499413490295,0.5291000008583069,-0.06544999778270721
1788164607163878400,3.69087841796875,0.23759999871253967,0.39338749647140503,-0.14354999363422394
1788164607173968600,3.70096875,0.3231250047683716,0.16747500002384186,-0.17902499437332153
1788164607184053000,3.711052978515625,0.4281750023365021,-0.045099999755620956,-0.1802625060081482
1788164607194142700,3.721142822265625,0.6224625110626221,-0.34814998507499695,-0.15097500383853912
1788164607204226800,3.731226806640625,0.8447999954223633,-0.5607249736785889,-0.10449999570846558
1788164607214322000,3.741322021484375,1.008562445640564,-0.5374875068664551,-0.08249999582767487
1788164607224405200,3.7514052734375,1.1991374492645264,-0.6707249879837036,-0.03492499887943268
1788164607234490600,3.76149072265625,1.3567124605178833,-0.9601625204086304,0.13612499833106995
1788164607244576500,3.771576416015625,1.3017125129699707,-0.5900124907493591,0.31459999084472656
1788164607254669300,3.78166943359375,1.1600874662399292,-0.054999999701976776,0.40988749265670776
1788164607264753700,3.791753662109375,1.0720875263214111,0.08552499860525131,0.3988874852657318
1788164607274838300,3.80183837890625,1.0231374502182007,0.17723749577999115,0.2913624942302704
1788164607284934400,3.811934326171875,0.9340375065803528,0.2993375062942505,0.15936249494552612
1788164607295024000,3.822024169921875,0.8007999658584595,0.4166249930858612,0.09707500040531158
1788164607305114400,3.8321142578125,0.7226999998092651,0.3983374834060669,0.19359999895095825
1788164607315204400,3.842204345703125,0.6774625182151794,0.1942874938249588,0.29260000586509705
1788164607325301200,3.85230126953125,0.6859874725341797,0.14657500386238098,0.3414124846458435
1788164607335384600,3.862384521484375,0.6224625110626221,0.2040500044822693,0.3634124994277954
1788164607345476600,3.8724765625,0.4489375054836273,0.3885749876499176,0.3511750102043152
1788164607355559400,3.882559326171875,0.05678749829530716,0.7464874982833862,0.31459999084472656
1788164607365665500,3.89266552734375,-0.31459999084472656,1.2583999633789062,0.29260000586509705
1788164607375746800,3.902746826171875,-0.39160001277923584,1.538212537765503,0.23388749361038208
1788164607385837600,3.912837646484375,-0.295074999332428,1.7323625087738037,0.12031249701976776
1788164607395921700,3.922921630859375,-0.1667875051498413,1.914412498474121,-0.015262499451637268
1788164607406013400,3.933013427734375,-0.026262499392032623,1.8778375387191772,-0.14121249318122864
1788164607416092200,3.943092041015625,0.09955000132322311,1.643262505531311,-0.22550000250339508
1788164607426175000,3.953175048828125,-0.18507499992847443,1.2071125507354736,-0.20954999327659607
1788164607436269300,3.963269287109375,-0.6065124869346619,0.5498625040054321,-0.12044999748468399
1788164607446361900,3.97336181640625,-0.5637499690055847,-0.16005000472068787,-0.014024999924004078
1788164607456448800,3.98344873046875,-0.27912500500679016,-0.8648750185966492,0.0775500014424324
1788164607466536400,3.993536376953125,-0.03231250122189522,-1.144687533378601,0.07383749634027481
1788164607476618500,4.003618408203125,-0.23278750479221344,-0.996874988079071,-0.13378749787807465
1788164607486705400,4.013705322265625,-0.6102250218391418,-0.6902499794960022,-0.47464999556541443
1788164607496785400,4.023785400390625,-0.8007999658584595,-0.24681249260902405,-0.7336999773979187
1788164607506871600,4.03387158203125,-0.6224625110626221,0.2578125,-0.6029375195503235
1788164607516966000,4.0439658203125,-0.31831249594688416,0.39338749647140503,-0.2498375028371811
1788164607527054000,4.05405419921875,-0.048262499272823334,0.11976250261068344,0.06655000150203705
1788164607537133300,4.06413330078125,0.15702499449253082,-0.1013374999165535,0.22907499969005585
1788164607547222500,4.074222412109375,0.20336249470710754,-0.16005000472068787,0.21559999883174896
1788164607557307600,4.0843076171875,0.18507499992847443,-0.14657500386238098,0.1093124970793724
1788164607567398400,4.0943984375,0.17159999907016754,-0.10257499665021896,-0.012924999929964542
1788164607577475800,4.104475830078125,0.1704999953508377,-0.05609999969601631,-0.10573749989271164
1788164607587562500,4.1145625,0.16802500188350677,-0.006049999967217445,-0.16431249678134918
1788164607597640400,4.124640380859375,0.1545500010251999,0.04152499884366989,-0.1765500009059906
1788164607607730700,4.134730712890625,0.141075000166893,0.10999999940395355,-0.16197499632835388
1788164607617814500,4.144814453125,0.13626250624656677,0.1942874938249588,-0.13378749787807465
1788164607627901400,4.1549013671875,0.1350249946117401,0.26276248693466187,-0.09955000132322311
1788164607637986000,4.164986083984375,0.14602500200271606,0.30662500858306885,-0.06173750013113022
1788164607648078300,4.175078369140625,0.1765500009059906,0.3128125071525574,-0.03726249933242798
1788164607658177800,4.185177734375,0.22302499413490295,0.3030500113964081,-0.010449999943375587
1788164607668265000,4.195264892578125,0.2633124887943268,0.28462499380111694,0.015262499451637268
1788164607678352000,4.205351806640625,0.2853125035762787,0.28228750824928284,0.02502499893307686
1788164607688435200,4.215435302734375,0.30483749508857727,0.305525004863739,0.027499999850988388
1788164607698523000,4.22552294921875,0.3293125033378601,0.3433375060558319,0.028599999845027924
1788164607708611800,4.23561181640625,0.3548874855041504,0.38733750581741333,0.03478749841451645
1788164607718697200,4.245697265625,0.37441250681877136,0.4203374981880188,0.03231250122189522
1788164607728786200,4.2557861328125,0.3830749988555908,0.44110000133514404,0.02983750030398369
1788164607738868500,4.265868408203125,0.37812501192092896,0.45691248774528503,0.021312499418854713
1788164607748962600,4.275962646484375,0.35612499713897705,0.47533750534057617,0.006737499963492155
1788164607759048700,4.286048583984375,0.3316499888896942,0.48743748664855957,-0.012924999929964542
1788164607769130000,4.2961298828125,0.30855000019073486,0.48262500762939453,-0.03244999796152115
1788164607779217200,4.306217041015625,0.2853125035762787,0.42157500982284546,-0.03244999796152115
1788164607789312000,4.31631201171875,0.26083749532699585,0.3018124997615814,-0.028737500309944153
1788164607799395300,4.326395263671875,0.2303124964237213,0.1882375031709671,-0.006737499963492155
1788164607809488100,4.336488037109375,0.17778749763965607,0.07823749631643295,0.031075000762939453
1788164607819575800,4.346575927734375,0.11302500218153,0,0.05926249921321869
1788164607829657900,4.356657958984375,0.05073750019073486,-0.032999999821186066,0.07507500052452087
1788164607839742000,4.366741943359375,-0.021312499418854713,-0.04881250113248825,0.07507500052452087
1788164607849834200,4.376834228515625,-0.08002500236034393,-0.047575000673532486,0.06531249731779099
1788164607859915300,4.386915283203125,-0.10807500034570694,0.00976249948143959,0.04702499881386757
1788164607870008600,4.397008544921875,-0.12155000120401382,0.07699999958276749,0.03478749841451645
1788164607880096300,4.40709619140625,-0.141075000166893,0.06599999964237213,0.02983750030398369
1788164607890184200,4.41718408203125,-0.16554999351501465,-0.02433750033378601,0.018837500363588333
1788164607900274200,4.427274169921875,-0.1985500007867813,-0.12952500581741333,0.007837500423192978
1788164607910361900,4.43736181640625,-0.2535499930381775,-0.2063875049352646,0.011549999937415123
1788164607920438500,4.4474384765625,-0.30717501044273376,-0.2675749957561493,0.036024998873472214
1788164607930530800,4.45753076171875,-0.34759998321533203,-0.282150000333786,0.06159999966621399
1788164607940610300,4.4676103515625,-0.37564998865127563,-0.22357499599456787,0.09459999948740005
1788164607950699300,4.47769921875,-0.4049375057220459,-0.1551000028848648,0.11412499845027924
1788164607960779300,4.487779296875,-0.4281750023365021,-0.1050499975681305,0.07259999960660934
1788164607970861600,4.497861572265625,-0.43188750743865967,-0.047575000673532486,-0.014024999924004078
1788164607980947200,4.507947265625,-0.41593748331069946,-0.02928750030696392,-0.10944999754428864
1788164607991038700,4.518038818359375,-0.36465001106262207,-0.06476250290870667,-0.1704999953508377
1788164608001118000,4.528117919921875,-0.29260000586509705,-0.15386250615119934,-0.18507499992847443
1788164608011209000,4.538208984375,-0.22055000066757202,-0.24310000240802765,-0.13997499644756317
1788164608021290200,4.548290283203125,-0.17407499253749847,-0.329862505197525,-0.07150000333786011
1788164608031381000,4.558381103515625,-0.13859999179840088,-0.36643749475479126,-0.017737500369548798
1788164608041468400,4.568468505859375,-0.09831249713897705,-0.32615000009536743,0.0042624999769032
1788164608051550200,4.57855029296875,-0.06173750013113022,-0.24557499587535858,0.005499999970197678
1788164608061632800,4.5886328125,-0.022549999877810478,-0.16609999537467957,-0.009212499484419823
1788164608071723500,4.5987236328125,0.010449999943375587,-0.11110000312328339,-0.03726249933242798
1788164608081803500,4.608803466796875,0.023787500336766243,-0.08910000324249268,-0.05321250110864639
1788164608091887000,4.61888720703125,0.010449999943375587,-0.08786249905824661,-0.045787498354911804
1788164608101975800,4.628975830078125,-0.0017874999903142452,-0.05252499878406525,-0.04097500070929527
1788164608112068900,4.63906884765625,0.0006874999962747097,0.002474999986588955,-0.03492499887943268
1788164608122175700,4.64917578125,0.0006874999962747097,0.03918749839067459,-0.020212499424815178
1788164608132271000,4.65927099609375,0.0042624999769032,0.05128749832510948,-0.0006874999962747097
1788164608142368300,4.6693681640625,0.010449999943375587,0.037950001657009125,0.006737499963492155
1788164608152454400,4.679454345703125,0.021449999883770943,0.01718750037252903,0.018837500363588333
1788164608162543600,4.689543701171875,0.02502499893307686,0.002474999986588955,0.02983750030398369
1788164608172635400,4.699635498046875,0.026262499392032623,0.045237500220537186,0.020075000822544098
1788164608182725600,4.7097255859375,0.031212499365210533,0.12099999934434891,0.012787500396370888
1788164608192820000,4.719820068359375,0.028737500309944153,0.14176249504089355,0.010312499478459358
1788164608202897700,4.729897705078125,0.03478749841451645,0.11247500032186508,0.020075000822544098
1788164608212990500,4.739990478515625,0.048262499272823334,0.042762499302625656,0.03478749841451645
1788164608223077000,4.7500771484375,0.05321250110864639,-0.03904999792575836,0.05678749829530716
1788164608233170000,4.760169921875,0.04455000162124634,-0.09033749997615814,0.07026249915361404
1788164608243260700,4.7702607421875,0.031212499365210533,-0.0635249987244606,0.050599999725818634
1788164608253352400,4.7803525390625,0.029975000768899918,0.045237500220537186,0.014024999924004078
1788164608263445000,4.790445068359375,0.028737500309944153,0.11852499842643738,-0.009212499484419823
1788164608273539800,4.800539794921875,0.04097500070929527,0.1344749927520752,-0.010449999943375587
1788164608283623700,4.810623779296875,0.05073750019073486,0.09404999762773514,0.017737500369548798
1788164608293715500,4.820715576171875,0.04097500070929527,0.01952499896287918,0.07631249725818634
1788164608303825700,4.83082568359375,-0.012787500396370888,-0.07576250284910202,0.1153625026345253
1788164608313907200,4.8409072265625,-0.05073750019073486,-0.037812501192092896,0.11783749610185623
1788164608324003300,4.85100341796875,-0.07383749634027481,0.0989999994635582,0.10312499850988388
1788164608334091800,4.861091796875,-0.11659999936819077,0.1685750037431717,0.07507500052452087
1788164608344183000,4.87118310546875,-0.14836250245571136,0.1942874938249588,0.04207500070333481
1788164608354273500,4.8812734375,-0.15702499449253082,0.20652499794960022,0.0518375001847744
1788164608364361500,4.891361572265625,-0.18754999339580536,0.10876250267028809,0.06283749639987946
1788164608374441500,4.90144140625,-0.19359999895095825,0.015949999913573265,0.06283749639987946
1788164608384531700,4.91153173828125,-0.172837495803833,-0.002337499987334013,0.06283749639987946
1788164608394619000,4.921618896484375,-0.16060000658035278,0.01347499992698431,0.04702499881386757
1788164608404706800,4.931706787109375,-0.14354999363422394,0.09652499854564667,0.018837500363588333
1788164608414794200,4.941794189453125,-0.1508374959230423,0.14423750340938568,-0.012924999929964542
1788164608424886300,4.95188623046875,-0.15331250429153442,0.1368124932050705,-0.04468749836087227
1788164608434973700,4.9619736328125,-0.13007499277591705,0.11852499842643738,-0.05197500064969063
1788164608445066500,4.97206640625,-0.0873124971985817,0.10147500038146973,-0.03492499887943268
1788164608455161900,4.982161865234375,-0.036024998873472214,0.11852499842643738,0.0030249999836087227
1788164608465246500,4.99224658203125,-0.009212499484419823,0.12223749607801437,0.023787500336766243
1788164608475341000,5.002341064453125,0.018975000828504562,0.15399999916553497,0.03478749841451645
1788164608485424400,5.01242431640625,0.03726249933242798,0.13571250438690186,0.04331250116229057
1788164608495513900,5.022513916015625,0.05321250110864639,0.10147500038146973,0.053075000643730164
1788164608505595400,5.032595458984375,0.05678749829530716,0.08071249723434448,0.05926249921321869
1788164608515687700,5.042687744140625,0.06421250104904175,0.10628750175237656,0.060499999672174454
1788164608525767200,5.05276708984375,0.06297499686479568,0.15523749589920044,0.0518375001847744
1788164608535859500,5.062859375,0.058024998754262924,0.13805000483989716,0.026262499392032623
1788164608545941500,5.07294140625,0.0812624990940094,0.12581250071525574,0.0030249999836087227
1788164608556034600,5.08303466796875,0.10202500224113464,0.11976250261068344,-0.007974999956786633
1788164608566110000,5.09310986328125,0.09350000321865082,0.02694999985396862,-0.036024998873472214
1788164608576201700,5.10320166015625,0.1264999955892563,0.07204999774694443,-0.031212499365210533
1788164608586286800,5.113286865234375,0.1387374997138977,0.07699999958276749,-0.006737499963492155
1788164608596366800,5.123366943359375,0.09102500230073929,-0.05857500061392784,-0.029975000768899918
1788164608606447400,5.133447265625,0.09955000132322311,-0.01223750039935112,-0.03244999796152115
1788164608616531000,5.143531005859375,0.1313125044107437,0.13571250438690186,-0.0006874999962747097
1788164608626609700,5.153609619140625,0.07878749817609787,0.08799999952316284,-0.011687500402331352
1788164608636694800,5.16369482421875,0.05321250110864639,0.08552499860525131,-0.03492499887943268
1788164608646777900,5.17377783203125,0.0775500014424324,0.19923749566078186,-0.0031624999828636646
1788164608656866000,5.183865966796875,0.05926249921321869,0.20899999141693115,0.007837500423192978
1788164608666949600,5.19394970703125,0.03478749841451645,0.2199999988079071,-0.02502499893307686
1788164608677040600,5.20404052734375,0.05444999784231186,0.3091000020503998,-0.03244999796152115
1788164608687118800,5.214118896484375,0.07273750007152557,0.369049996137619,-0.04702499881386757
1788164608697200000,5.2242001953125,0.05197500064969063,0.36162498593330383,-0.1069749966263771
1788164608707309600,5.2343095703125,0.045787498354911804,0.35557499527931213,-0.13750000298023224
1788164608717394700,5.244394775390625,0.048262499272823334,0.29205000400543213,-0.09721250087022781
1788164608727471000,5.25447119140625,0.009212499484419823,0.1307625025510788,-0.026262499392032623
1788164608737562400,5.264562255859375,-0.021312499418854713,0.0037124999798834324,0.07136250287294388
1788164608747644700,5.274644775390625,0.007974999956786633,0.07947500050067902,0.1313125044107437
1788164608757724000,5.284723876953125,0.04702499881386757,0.16747500002384186,0.07631249725818634
1788164608767814000,5.29481396484375,0.10573749989271164,0.1845249980688095,-0.021449999883770943
1788164608777892600,5.304892578125,0.1667875051498413,0.2737624943256378,-0.06421250104904175
1788164608787982800,5.31498291015625,0.17407499253749847,0.3115749955177307,-0.06173750013113022
1788164608798061300,5.325061279296875,0.1289750039577484,0.22852499783039093,-0.012924999929964542
1788164608808141600,5.3351416015625,0.09226249903440475,0.14423750340938568,0.08002500236034393
1788164608818245600,5.34524560546875,0.06173750013113022,0.1247124969959259,0.16060000658035278
1788164608828338200,5.355338134765625,0.006737499963492155,0.07452499866485596,0.19112500548362732
1788164608838415000,5.3654150390625,-0.036024998873472214,0.050187498331069946,0.18988749384880066
1788164608848506400,5.37550634765625,-0.028737500309944153,0.14423750340938568,0.141075000166893
1788164608858591200,5.38559130859375,-0.03231250122189522,0.20899999141693115,0.05555000156164169
1788164608868676000,5.395676025390625,-0.027499999850988388,0.1979999989271164,-0.012924999929964542
1788164608878762200,5.40576220703125,0.028737500309944153,0.23952500522136688,-0.036024998873472214
1788164608888852500,5.4158525390625,0.060499999672174454,0.23333749175071716,-0.05073750019073486
1788164608898940400,5.4259404296875,0.06421250104904175,0.12952500581741333,-0.05197500064969063
1788164608909030400,5.436030517578125,0.12155000120401382,0.2003374993801117,-0.03368749842047691
1788164608919107300,5.446107421875,0.14973749220371246,0.27252501249313354,-0.018975000828504562
1788164608929194200,5.4561943359375,0.11302500218153,0.20776249468326569,-0.03368749842047691
1788164608939280100,5.466280029296875,0.12031249701976776,0.23333749175071716,-0.06421250104904175
1788164608949375500,5.47637548828125,0.12773749232292175,0.27252501249313354,-0.1069749966263771
1788164608959458300,5.486458251953125,0.1069749966263771,0.2320999950170517,-0.1545500010251999
1788164608969545200,5.496545166015625,0.13007499277591705,0.24681249260902405,-0.18273749947547913
1788164608979630600,5.506630615234375,0.19126249849796295,0.2932874858379364,-0.1802625060081482
1788164608989720600,5.516720458984375,0.22055000066757202,0.23100000619888306,-0.19002500176429749
1788164608999807700,5.526807861328125,0.28036248683929443,0.1979999989271164,-0.2022625058889389
1788164609009896700,5.536896728515625,0.37207499146461487,0.3018124997615814,-0.20707499980926514
1788164609019985000,5.54698486328125,0.3964124917984009,0.2993375062942505,-0.21326249837875366
1788164609030075600,5.55707568359375,0.3768875002861023,0.22728750109672546,-0.21449999511241913
1788164609040156000,5.567156005859375,0.40012499690055847,0.27486249804496765,-0.18383750319480896
1788164609050249200,5.577249267578125,0.44165000319480896,0.340862512588501,-0.1447875052690506
1788164609060338000,5.587337890625,0.489362508058548,0.42281249165534973,-0.09597499668598175
1788164609070419200,5.597419189453125,0.5601750016212463,0.6329125165939331,-0.036024998873472214
1788164609080499000,5.6074990234375,0.6297500133514404,0.8503000140190125,0.011549999937415123
1788164609090589400,5.61758935546875,0.6725124716758728,0.8992499709129333,0.010312499478459358
1788164609100674600,5.627674560546875,0.6982250213623047,0.7294374704360962,-0.021449999883770943
1788164609110763000,5.637762939453125,0.7129374742507935,0.5119125247001648,-0.055687498301267624
1788164609120849400,5.647849365234375,0.6897000074386597,0.4068624973297119,-0.06297499686479568
1788164609130940000,5.65793994140625,0.6274124979972839,0.4166249930858612,-0.029975000768899918
1788164609141027000,5.668027099609375,0.5809375047683716,0.5094375014305115,0.011549999937415123
1788164609151111200,5.678111083984375,0.5284125208854675,0.571862518787384,0.03959999978542328
1788164609161191200,5.688191162109375,0.43793749809265137,0.5278624892234802,0.027499999850988388
1788164609171283500,5.698283447265625,0.3525499999523163,0.4361499845981598,-0.03244999796152115
1788164609181368600,5.70836865234375,0.2730749845504761,0.3115749955177307,-0.09473749995231628
1788164609191459600,5.71845947265625,0.22302499413490295,0.18205000460147858,-0.11550000309944153
1788164609201539300,5.728539306640625,0.21559999883174896,0.12347500026226044,-0.10449999570846558
1788164609211628500,5.738628662109375,0.22907499969005585,0.18205000460147858,-0.08002500236034393
1788164609221706200,5.748706298828125,0.22302499413490295,0.2638624906539917,-0.05197500064969063
1788164609231797000,5.758796875,0.21449999511241913,0.26633748412132263,-0.027499999850988388
1788164609241881300,5.76888134765625,0.19978749752044678,0.19552500545978546,0.010312499478459358
1788164609251965400,5.77896533203125,0.16073749959468842,0.0611874982714653,0.06655000150203705
1788164609262057500,5.789057373046875,0.12031249701976776,-0.020762499421834946,0.08483749628067017
1788164609272148500,5.7991484375,0.10573749989271164,0.12347500026226044,0.03726249933242798
1788164609282234000,5.809234130859375,0.08249999582767487,0.30662500858306885,-0.048262499272823334
1788164609292324400,5.819324462890625,0.05678749829530716,0.32257500290870667,-0.13378749787807465
1788164609302410200,5.82941015625,0.03726249933242798,0.2517625093460083,-0.15331250429153442
1788164609312494000,5.839494140625,0.022687500342726707,0.24076250195503235,-0.08744999766349792
1788164609322580500,5.84958056640625,0.009212499484419823,0.24199999868869781,-0.015262499451637268
1788164609332668200,5.859668212890625,0.036024998873472214,0.28476250171661377,-0.021449999883770943
1788164609342754800,5.8697548828125,0.0812624990940094,0.42391249537467957,-0.08249999582767487
1788164609352842000,5.879842041015625,0.12526249885559082,0.5461499691009521,-0.14726249873638153
1788164609362925600,5.889925537109375,0.19249999523162842,0.5229125022888184,-0.21683749556541443
1788164609373008100,5.900008056640625,0.24502499401569366,0.3091000020503998,-0.2400749921798706
1788164609383093000,5.910093017578125,0.26083749532699585,0.12223749607801437,-0.2022625058889389
1788164609393181700,5.920181640625,0.28654998540878296,0.12581250071525574,-0.14726249873638153
1788164609403267300,5.930267333984375,0.31212499737739563,0.22357499599456787,-0.12773749232292175
1788164609413358600,5.940358642578125,0.34031251072883606,0.3445749878883362,-0.13750000298023224
1788164609423444200,5.9504443359375,0.3623124957084656,0.4618625044822693,-0.12526249885559082
1788164609433531400,5.960531494140625,0.3854124844074249,0.5266249775886536,-0.1093124970793724
1788164609443612400,5.9706123046875,0.40012499690055847,0.634149968624115,-0.08621250092983246
1788164609453702100,5.9807021484375,0.40507498383522034,0.7745375037193298,-0.026262499392032623
1788164609463783700,5.99078369140625,0.40988749265670776,0.7977749705314636,0.009074999950826168
1788164609473873200,6.000873046875,0.4489375054836273,0.7404375076293945,-0.026262499392032623
1788164609483961300,6.01096142578125,0.5126000046730042,0.6451500058174133,-0.09955000132322311
1788164609494053000,6.02105322265625,0.5809375047683716,0.48743748664855957,-0.16554999351501465
1788164609504151300,6.0311513671875,0.6456999778747559,0.3445749878883362,-0.2083124965429306
1788164609514246100,6.04124609375,0.6384124755859375,0.2540999948978424,-0.20583750307559967
1788164609524328000,6.051327880859375,0.644462525844574,0.3592875003814697,-0.1863124966621399
1788164609534423300,6.06142333984375,0.6419875025749207,0.35062500834465027,-0.17778749763965607
1788164609544506600,6.071506591796875,0.6517499685287476,0.23457500338554382,-0.20473749935626984
1788164609554593300,6.08159326171875,0.6994624733924866,0.1905750036239624,-0.24255000054836273
1788164609564681500,6.091681396484375,0.8032749891281128,0.11852499842643738,-0.25107499957084656
1788164609574774300,6.101774169921875,0.9218000173568726,0.04152499884366989,-0.22302499413490295
1788164609584859600,6.111859619140625,0.9805124998092651,-0.030524998903274536,-0.18273749947547913
1788164609594954800,6.121954833984375,1.0000375509262085,0.037950001657009125,-0.12526249885559082
1788164609605048800,6.132048828125,0.9926124811172485,0.1247124969959259,-0.07273750007152557
1788164609615137300,6.14213720703125,0.9596124887466431,0.2700499892234802,-0.03973750025033951
1788164609625231000,6.152231201171875,0.9047499895095825,0.5046250224113464,-0.016499999910593033
1788164609635323400,6.162323486328125,0.8424624800682068,0.5741999745368958,-0.005499999970197678
1788164609645406000,6.172406005859375,0.8069875240325928,0.4838624894618988,-0.04097500070929527
1788164609655539700,6.182539794921875,0.780037522315979,0.39586248993873596,-0.08373750001192093
1788164609665632300,6.19263232421875,0.7642250061035156,0.33233749866485596,-0.11055000126361847
1788164609675709700,6.202709716796875,0.7654625177383423,0.2932874858379364,-0.15097500383853912
1788164609685798000,6.2127978515625,0.7825124859809875,0.26881250739097595,-0.2022625058889389
1788164609695880200,6.222880126953125,0.7947499752044678,0.29081249237060547,-0.23154999315738678
1788164609705975300,6.232975341796875,0.824037492275238,0.2615250051021576,-0.2180749922990799
1788164609716061200,6.243061279296875,0.8460375070571899,0.20899999141693115,-0.19483749568462372
1788164609726150100,6.253150146484375,0.863224983215332,0.19676250219345093,-0.1545500010251999
1788164609736234500,6.263234375,0.8643249869346619,0.22481249272823334,-0.09844999760389328
1788164609746323200,6.2733232421875,0.8643249869346619,0.2125750035047531,-0.07878749817609787
1788164609756399600,6.283399658203125,0.871749997138977,0.24557499587535858,-0.10202500224113464
1788164609766485500,6.293485595703125,0.8655624985694885,0.3702875077724457,-0.12278749793767929
1788164609776569900,6.30356982421875,0.8338000178337097,0.3433375060558319,-0.12402500212192535
1788164609786659000,6.3136591796875,0.7935125231742859,0.21876250207424164,-0.148499995470047
1788164609796737300,6.3237373046875,0.7459374666213989,0.18205000460147858,-0.16307500004768372
1788164609806821600,6.333821533203125,0.6749874949455261,0.12952500581741333,-0.14726249873638153
1788164609816904400,6.343904541015625,0.5992249846458435,0.05871250107884407,-0.1667875051498413
1788164609826993200,6.3539931640625,0.5235999822616577,0.12952500581741333,-0.20102499425411224
1788164609837085000,6.3640849609375,0.4441249966621399,0.2615250051021576,-0.18878750503063202
1788164609847172600,6.374172607421875,0.39765000343322754,0.2957625091075897,-0.16554999351501465
1788164609857255200,6.384255126953125,0.3928374946117401,0.1905750036239624,-0.16197499632835388
1788164609867346200,6.39434619140625,0.40012499690055847,0.11123749613761902,-0.14354999363422394
1788164609877422300,6.40442236328125,0.40136250853538513,0.10628750175237656,-0.12031249701976776
1788164609887515600,6.414515625,0.414837509393692,0.10023749619722366,-0.10202500224113464
1788164609897591600,6.424591552734375,0.4404124915599823,0.15399999916553497,-0.09955000132322311
1788164609907681800,6.434681884765625,0.439175009727478,0.31652501225471497,-0.09350000321865082
1788164609917767400,6.444767333984375,0.4221250116825104,0.4361499845981598,-0.0775500014424324
1788164609927855600,6.454855712890625,0.4355999827384949,0.4581499993801117,-0.0812624990940094
1788164609937932500,6.4649326171875,0.4465999901294708,0.42391249537467957,-0.08621250092983246
1788164609948021000,6.47502099609375,0.43683749437332153,0.3445749878883362,-0.08249999582767487
1788164609958098400,6.485098388671875,0.4501749873161316,0.2529999911785126,-0.09597499668598175
1788164609968190200,6.495190185546875,0.49912500381469727,0.18947499990463257,-0.10202500224113464
1788164609978277400,6.50527734375,0.5454624891281128,0.27486249804496765,-0.07150000333786011
1788164609988371500,6.515371337890625,0.596887469291687,0.4618625044822693,-0.03973750025033951
1788164609998449700,6.52544970703125,0.6652249693870544,0.5631999969482422,-0.029975000768899918
1788164610008544800,6.535544677734375,0.7409874796867371,0.524150013923645,-0.026262499392032623
1788164610018630400,6.54563037109375,0.7935125231742859,0.3543374836444855,-0.06544999778270721
1788164610028715800,6.5557158203125,0.8387500047683716,0.20776249468326569,-0.11178749799728394
1788164610038800400,6.56580029296875,0.871749997138977,0.2223374992609024,-0.11302500218153
1788164610048891400,6.575891357421875,0.863224983215332,0.2712875008583069,-0.0849749967455864
1788164610058977000,6.58597705078125,0.8435624837875366,0.3482874929904938,-0.0849749967455864
1788164610069061400,6.596061279296875,0.8265125155448914,0.4899125099182129,-0.08002500236034393
1788164610079143400,6.606143310546875,0.7862250208854675,0.571862518787384,-0.05678749829530716
1788164610089244200,6.616244140625,0.7239375114440918,0.5486249923706055,-0.055687498301267624
1788164610099333600,6.626333740234375,0.6542249917984009,0.46915000677108765,-0.0752125009894371
1788164610109424000,6.636424072265625,0.5871250033378601,0.48867499828338623,-0.07397499680519104
1788164610119510300,6.64651025390625,0.505174994468689,0.5498625040054321,-0.04468749836087227
1788164610129598700,6.6565986328125,0.43683749437332153,0.6133875250816345,-0.03368749842047691
1788164610139676400,6.666676513671875,0.36959999799728394,0.6487249732017517,-0.03368749842047691
1788164610149768700,6.676768798828125,0.30002498626708984,0.6353874802589417,-0.04702499881386757
1788164610159852500,6.6868525390625,0.23883749544620514,0.5766749978065491,-0.08373750001192093
1788164610169936100,6.69693603515625,0.19978749752044678,0.5021499991416931,-0.12278749793767929
1788164610180024600,6.707024658203125,0.17173749208450317,0.4643374979496002,-0.141075000166893
1788164610190111200,6.717111328125,0.14231249690055847,0.4483875036239624,-0.13378749787807465
1788164610200200000,6.727199951171875,0.1387374997138977,0.4923875033855438,-0.12278749793767929
1788164610210288000,6.7372880859375,0.15950000286102295,0.5864375233650208,-0.1069749966263771
1788164610220380400,6.74738037109375,0.1802625060081482,0.6683874726295471,-0.08855000138282776
1788164610230474500,6.757474609375,0.17778749763965607,0.64638751745224,-0.06655000150203705
1788164610244587500,6.77158740234375,0.22426250576972961,0.5693874955177307,-0.0494999997317791
1788164610254672600,6.781672607421875,0.2853125035762787,0.5131499767303467,-0.03478749841451645
1788164610264757000,6.791757080078125,0.33178749680519104,0.4068624973297119,-0.03368749842047691
1788164610274844400,6.801844482421875,0.3988874852657318,0.32628750801086426,-0.05197500064969063
1788164610284927200,6.81192724609375,0.4954124987125397,0.2639999985694885,-0.05926249921321869
1788164610295019500,6.82201953125,0.5674625039100647,0.1527625024318695,-0.05073750019073486
1788164610305104400,6.8321044921875,0.6102250218391418,0.06599999964237213,-0.04221250116825104
1788164610315193300,6.842193359375,0.6481750011444092,0.04895000159740448,-0.027499999850988388
1788164610325284900,6.852284912109375,0.683650016784668,0.0672374963760376,-0.006737499963492155
1788164610335375600,6.862375732421875,0.7067499756813049,0.09404999762773514,-0.014024999924004078
1788164610345457400,6.87245751953125,0.7397499680519104,0.17476250231266022,-0.03368749842047691
1788164610355549000,6.882548828125,0.7837499976158142,0.28833749890327454,-0.03973750025033951
1788164610365635300,6.89263525390625,0.7947499752044678,0.3250499963760376,-0.03244999796152115
1788164610375720200,6.90272021484375,0.7886999845504761,0.3128125071525574,-0.026262499392032623
1788164610385806800,6.912806884765625,0.7959874868392944,0.3067624866962433,-0.011687500402331352
1788164610395892000,6.92289208984375,0.819225013256073,0.340862512588501,0.010312499478459358
1788164610405979000,6.932978759765625,0.8302249908447266,0.34581249952316284,0.031075000762939453
1788164610416074200,6.94307421875,0.8497499823570251,0.3445749878883362,0.020075000822544098
1788164610426159600,6.95315966796875,0.8777999877929688,0.36410000920295715,0.0005499999970197678
1788164610436243000,6.963242919921875,0.8925125002861023,0.3335750102996826,0.006737499963492155
1788164610446335500,6.97333544921875,0.9255124926567078,0.3372874855995178,0.0042624999769032
1788164610456419800,6.983419921875,0.9755625128746033,0.4483875036239624,-0.015262499451637268
1788164610466510600,6.993510498046875,1.0048500299453735,0.5388625264167786,-0.03849999979138374
1788164610476596700,7.0035966796875,1.0390875339508057,0.524150013923645,-0.08002500236034393
1788164610486685700,7.013685791015625,1.10756254196167,0.5216749906539917,-0.12278749793767929
1788164610496770300,7.023770263671875,1.1648999452590942,0.5278624892234802,-0.14354999363422394
1788164610506860800,7.03386083984375,1.1588499546051025,0.4973374903202057,-0.1350249946117401
1788164610516946700,7.04394677734375,1.1393250226974487,0.5229125022888184,-0.13255000114440918
1788164610527032800,7.05403271484375,1.1283249855041504,0.5583875179290771,-0.141075000166893
1788164610537113000,7.064113037109375,1.0867999792099,0.47891250252723694,-0.15207499265670776
1788164610547205600,7.07420556640625,1.0525624752044678,0.3910500109195709,-0.1802625060081482
1788164610557293600,7.08429345703125,1.0671374797821045,0.3971000015735626,-0.21559999883174896
1788164610567381200,7.09438134765625,1.0880374908447266,0.4558124840259552,-0.21683749556541443
1788164610577466600,7.104466552734375,1.10013747215271,0.4776749908924103,-0.19002500176429749
1788164610587562200,7.114562255859375,1.1197999715805054,0.467912495136261,-0.1704999953508377
1788164610597648000,7.12464794921875,1.1318999528884888,0.4716250002384186,-0.14726249873638153
1788164610607734000,7.134734130859375,1.1063250303268433,0.41786250472068787,-0.11921250075101852
1788164610617819600,7.144819580078125,1.0770374536514282,0.3445749878883362,-0.12031249701976776
1788164610627911400,7.154911376953125,1.0623250007629395,0.38733750581741333,-0.1545500010251999
1788164610637998600,7.16499853515625,1.0440374612808228,0.48138749599456787,-0.17531250417232513
1788164610648091000,7.1750908203125,1.0110374689102173,0.43738749623298645,-0.19731250405311584
1788164610658182100,7.18518212890625,1.0025124549865723,0.36162498593330383,-0.24502499401569366
1788164610668278800,7.19527880859375,0.9987999796867371,0.31652501225471497,-0.2535499930381775
1788164610678370000,7.2053701171875,0.9572749733924866,0.23100000619888306,-0.21326249837875366
1788164610688459800,7.215459716796875,0.9279875159263611,0.2297624945640564,-0.1863124966621399
1788164610698552300,7.22555224609375,0.9059875011444092,0.305525004863739,-0.172837495803833
1788164610708648000,7.23564794921875,0.8570374846458435,0.3788124918937683,-0.15097500383853912
1788164610718727400,7.2457275390625,0.7911750078201294,0.41786250472068787,-0.1387374997138977
1788164610728819700,7.25581982421875,0.7324625253677368,0.41909998655319214,-0.15826250612735748
1788164610738907600,7.26590771484375,0.6774625182151794,0.4801499843597412,-0.16802500188350677
1788164610748998400,7.275998291015625,0.6126999855041504,0.5058624744415283,-0.14602500200271606
1788164610759078100,7.286078125,0.5711749792098999,0.48262500762939453,-0.141075000166893
1788164610769171700,7.296171630859375,0.5601750016212463,0.5033875107765198,-0.1545500010251999
1788164610779260200,7.30626025390625,0.5418875217437744,0.520437479019165,-0.1350249946117401
1788164610789355800,7.316355712890625,0.5248374938964844,0.47533750534057617,-0.11178749799728394
1788164610799441700,7.326441650390625,0.5369374752044678,0.4618625044822693,-0.1069749966263771
1788164610809531600,7.33653173828125,0.5676000118255615,0.5083374977111816,-0.09226249903440475
1788164610819620000,7.3466201171875,0.5687000155448914,0.48867499828338623,-0.07026249915361404
1788164610829710300,7.35671044921875,0.6004624962806702,0.4606249928474426,-0.05444999784231186
1788164610839796500,7.36679638671875,0.6506500244140625,0.4899125099182129,-0.048262499272823334
1788164610849884400,7.376884521484375,0.6701750159263611,0.5351499915122986,-0.03368749842047691
1788164610859970600,7.386970458984375,0.679937481880188,0.5168625116348267,-0.023787500336766243
1788164610870062600,7.3970625,0.6824125051498413,0.45691248774528503,-0.023787500336766243
1788164610880144100,7.40714404296875,0.6689375042915344,0.467912495136261,-0.011687500402331352
1788164610890236200,7.417236083984375,0.6286500096321106,0.4618625044822693,0.010312499478459358
1788164610900320800,7.42732080078125,0.6151750087738037,0.5046250224113464,0.018975000828504562
1788164610910419200,7.437419189453125,0.605412483215332,0.594962477684021,0.02502499893307686
1788164610920500700,7.447500732421875,0.5663625001907349,0.5974375009536743,0.018975000828504562
1788164610930587400,7.45758740234375,0.5321249961853027,0.568149983882904,-0.014024999924004078
1788164610940678100,7.46767822265625,0.5161749720573425,0.5559124946594238,-0.03726249933242798
1788164610950770000,7.47777001953125,0.5076500177383423,0.5534374713897705,-0.03726249933242798
1788164610960855600,7.48785546875,0.4930749833583832,0.5303375124931335,-0.043449997901916504
1788164610970940000,7.49793994140625,0.4954124987125397,0.5094375014305115,-0.06421250104904175
1788164610981027000,7.508027099609375,0.5028374791145325,0.559624969959259,-0.08249999582767487
1788164610991112700,7.51811279296875,0.5003625154495239,0.5376250147819519,-0.10078749805688858
1788164611001194500,7.528194580078125,0.5161749720573425,0.4558124840259552,-0.11302500218153
1788164611011287300,7.538287353515625,0.5406500101089478,0.4105750024318695,-0.11550000309944153
1788164611021384700,7.548384765625,0.5724124908447266,0.5131499767303467,-0.11426249891519547
1788164611031479000,7.55847900390625,0.5871250033378601,0.607200026512146,-0.10821250081062317
1788164611041564000,7.56856396484375,0.5981249809265137,0.6573874950408936,-0.1093124970793724
1788164611051658200,7.578658203125,0.6176499724388123,0.7440124750137329,-0.10326249897480011
1788164611061730600,7.58873046875,0.6334624886512756,0.7429124712944031,-0.09226249903440475
1788164611071821000,7.598821044921875,0.6652249693870544,0.6951999664306641,-0.09226249903440475
1788164611081902000,7.608902099609375,0.6934124827384949,0.6536750197410583,-0.0873124971985817
1788164611091998000,7.618998046875,0.7202249765396118,0.6573874950408936,-0.08373750001192093
1788164611102078200,7.629078125,0.7397499680519104,0.6329125165939331,-0.08855000138282776
1788164611112161300,7.639161376953125,0.7654625177383423,0.5961999893188477,-0.10326249897480011
1788164611122241500,7.649241455078125,0.8119375109672546,0.64267498254776,-0.09473749995231628
1788164611132334800,7.6593349609375,0.8412249684333801,0.6377249956130981,-0.08621250092983246
1788164611142420500,7.66942041015625,0.8839874863624573,0.6329125165939331,-0.0849749967455864
1788164611152508400,7.67950830078125,0.9450374841690063,0.6182000041007996,-0.08978749811649323
1788164611162598000,7.689597900390625,1.0110374689102173,0.6146249771118164,-0.09597499668598175
1788164611172691000,7.69969091796875,1.0586124658584595,0.5852000117301941,-0.10573749989271164
1788164611182774500,7.7097744140625,1.10013747215271,0.5351499915122986,-0.12278749793767929
1788164611192868600,7.71986865234375,1.1515624523162842,0.5424374938011169,-0.14602500200271606
1788164611202960100,7.729960205078125,1.1771374940872192,0.5339124798774719,-0.15331250429153442
1788164611213050600,7.740050537109375,1.1966625452041626,0.5009124875068665,-0.1447875052690506
1788164611223151400,7.7501513671875,1.2431374788284302,0.48633748292922974,-0.12773749232292175
1788164611233247000,7.7602470703125,1.2736624479293823,0.49114999175071716,-0.10078749805688858
1788164611243335400,7.77033544921875,1.283424973487854,0.4936249852180481,-0.08621250092983246
1788164611253430800,7.7804306640625,1.2846624851226807,0.5094375014305115,-0.09955000132322311
1788164611263511000,7.790510986328125,1.2724249362945557,0.5938624739646912,-0.11797499656677246
1788164611273602300,7.800602294921875,1.2309000492095947,0.64638751745224,-0.12773749232292175
1788164611283687400,7.8106875,1.1943249702453613,0.6499624848365784,-0.15826250612735748
1788164611293779700,7.82077978515625,1.166137456893921,0.64638751745224,-0.18878750503063202
1788164611303869700,7.83086962890625,1.1233749389648438,0.634149968624115,-0.19731250405311584
1788164611313963500,7.840963623046875,1.0843249559402466,0.6291999816894531,-0.21449999511241913
1788164611324060200,7.85106005859375,1.0708500146865845,0.6584874987602234,-0.2400749921798706
1788164611334152000,7.86115185546875,1.0806125402450562,0.7037249803543091,-0.2498375028371811
1788164611344237600,7.871237548828125,1.0855624675750732,0.6866750121116638,-0.26455000042915344
1788164611354330000,7.881330078125,1.1221375465393066,0.64267498254776,-0.29260000586509705
1788164611364416800,7.891416748046875,1.1906124353408813,0.6231499910354614,-0.3133625090122223
1788164611374495000,7.901494873046875,1.2321374416351318,0.5644375085830688,-0.33178749680519104
1788164611384583200,7.911583251953125,1.2590874433517456,0.49857500195503235,-0.3525499999523163
1788164611394667000,7.9216669921875,1.3018499612808228,0.4740999937057495,-0.37207499146461487
1788164611404754200,7.931754150390625,1.3433749675750732,0.5009124875068665,-0.3768875002861023
1788164611414838300,7.94183837890625,1.353137493133545,0.49114999175071716,-0.37812501192092896
1788164611424927700,7.951927734375,1.3433749675750732,0.4801499843597412,-0.38183748722076416
1788164611435019500,7.96201953125,1.3188999891281128,0.5522000193595886,-0.36959999799728394
1788164611445105200,7.972105224609375,1.2736624479293823,0.6549124717712402,-0.34264999628067017
1788164611455191800,7.98219189453125,1.204087495803833,0.7134875059127808,-0.33412501215934753
1788164611465275100,7.992275146484375,1.1441375017166138,0.7379624843597412,-0.34759998321533203
1788164611475364000,8.002364013671874,1.0928499698638916,0.7452499866485596,-0.3525499999523163
1788164611485444600,8.012444580078125,1.0355124473571777,0.6646749973297119,-0.3806000053882599
1788164611495535600,8.02253564453125,1.0060875415802002,0.5168625116348267,-0.4281750023365021
1788164611505622500,8.03262255859375,1.0158499479293823,0.45086249709129333,-0.4489375054836273
1788164611515711200,8.042711181640625,1.0220375061035156,0.47891250252723694,-0.4184125065803528
1788164611525797000,8.052797119140624,1.0390875339508057,0.5314375162124634,-0.37331250309944153
1788164611535929900,8.062929931640625,1.0855624675750732,0.5766749978065491,-0.3207874894142151
1788164611546026200,8.073026123046875,1.108799934387207,0.64267498254776,-0.26936250925064087
1788164611556112400,8.0831123046875,1.10013747215271,0.5999125242233276,-0.2560249865055084
1788164611566199600,8.093199462890626,1.0892750024795532,0.5571500062942505,-0.2815999984741211
1788164611576290300,8.103290283203124,1.0745625495910645,0.5656750202178955,-0.2877874970436096
1788164611586391300,8.113391357421875,1.0147500038146973,0.5449125170707703,-0.2913624942302704
1788164611596477700,8.123477783203125,1.0000375509262085,0.4973374903202057,-0.2890250086784363
1788164611606564000,8.133564208984374,0.963325023651123,0.515625,-0.2572624981403351
1788164611616651800,8.14365185546875,0.9242749810218811,0.5278624892234802,-0.20954999327659607
1788164611626739700,8.15373974609375,0.8888000249862671,0.5193374752998352,-0.19359999895095825
1788164611636825900,8.163825927734376,0.8742250204086304,0.507099986076355,-0.19483749568462372
1788164611646918000,8.17391796875,0.8864625096321106,0.5522000193595886,-0.18754999339580536
1788164611657003800,8.184003662109374,0.9084625244140625,0.5706250071525574,-0.19978749752044678
1788164611667105000,8.19410498046875,0.9487500190734863,0.5400999784469604,-0.23154999315738678
1788164611677195800,8.20419580078125,1.0097999572753906,0.5376250147819519,-0.2718375027179718
1788164611687286800,8.214286865234374,1.0623250007629395,0.5058624744415283,-0.2938374876976013
1788164611697372700,8.22437255859375,1.1308000087738037,0.4141499996185303,-0.30855000019073486
1788164611707464200,8.234464111328125,1.204087495803833,0.3287625014781952,-0.30483749508857727
1788164611717547000,8.244547119140625,1.2761374711990356,0.35557499527931213,-0.29878750443458557
1788164611727641300,8.254641357421875,1.3421374559402466,0.36410000920295715,-0.3218874931335449
1788164611737726200,8.264726318359376,1.3689500093460083,0.35062500834465027,-0.36959999799728394
1788164611747814000,8.27481396484375,1.4031875133514404,0.32257500290870667,-0.42707499861717224
1788164611757900500,8.284900634765625,1.388474941253662,0.3188624978065491,-0.478362500667572
1788164611767987000,8.294987060546875,1.395900011062622,0.3470500111579895,-0.5369374752044678
1788164611778066700,8.305066650390625,1.4202375411987305,0.38128748536109924,-0.6004624962806702
1788164611788163000,8.3151630859375,1.444712519645691,0.4740999937057495,-0.6529874801635742
1788164611798247000,8.325246826171876,1.4337124824523926,0.5058624744415283,-0.7262749671936035
1788164611808334000,8.335333984375,1.4386625289916992,0.48510000109672546,-0.8094624876976013
1788164611818414600,8.34541455078125,1.475237488746643,0.4618625044822693,-0.8570374846458435
1788164611828508200,8.355508056640625,1.496000051498413,0.38362500071525574,-0.8680375218391418
1788164611838591700,8.365591796875,1.4997124671936035,0.3750999867916107,-0.8509874939918518
1788164611848677000,8.375677001953125,1.5254249572753906,0.524150013923645,-0.8399875164031982
1788164611858771000,8.38577099609375,1.5351874828338623,0.7636749744415283,-0.8338000178337097
1788164611868863000,8.395863037109375,1.5302374362945557,0.9688249826431274,-0.8472750186920166
1788164611878947600,8.405947509765625,1.5387624502182007,1.1423499584197998,-0.9596124887466431
1788164611889041700,8.416041748046876,1.5314749479293823,1.3378750085830688,-1.1393250226974487
1788164611899131400,8.42613134765625,1.432474970817566,1.4574999809265137,-1.2271875143051147
1788164611909218800,8.43621875,1.3469499349594116,1.5699750185012817,-1.2553750276565552
1788164611919309300,8.446309326171875,1.3249499797821045,1.639549970626831,-1.2614250183105469
1788164611929401600,8.456401611328126,1.3078999519348145,1.6102625131607056,-1.279712438583374
1788164611939487500,8.466487548828125,1.3176624774932861,1.5284500122070312,-1.387237548828125
1788164611949578500,8.47657861328125,1.3446124792099,1.4355000257492065,-1.5290000438690186
1788164611959676200,8.48667626953125,1.3249499797821045,1.3928749561309814,-1.61576247215271
1788164611969766000,8.496765869140624,1.2358499765396118,1.3952125310897827,-1.6315749883651733
1788164611979850000,8.50685009765625,1.138087511062622,1.3048750162124634,-1.6303374767303467
1788164611989940500,8.5169404296875,1.0720875263214111,1.2291125059127808,-1.6610000133514404
1788164612000031500,8.527031494140624,0.9878000020980835,1.1448249816894531,-1.7256250381469727
1788164612010128000,8.5371279296875,0.9365124702453613,1.0665874481201172,-1.785575032234192
1788164612020218600,8.547218505859375,0.9059875011444092,1.0727750062942505,-1.8356249332427979
1788164612030312700,8.557312744140624,0.9035124778747559,1.1508749723434448,-1.8833374977111816
1788164612040398800,8.56739892578125,0.8362749814987183,1.0983500480651855,-1.8613375425338745
1788164612050482200,8.577482177734375,0.7972249984741211,1.0042999982833862,-1.7891499996185303
1788164612060565800,8.587565673828125,0.7837499976158142,0.9457250237464905,-1.7390999794006348
1788164612070681300,8.597681396484376,0.7666999697685242,0.9480624794960022,-1.715862512588501
1788164612080769000,8.60776904296875,0.7777000069618225,0.8809624910354614,-1.719575047492981
1788164612090863900,8.61786376953125,0.7141749858856201,0.7001500129699707,-1.711050033569336
1788164612100955000,8.627954833984376,0.6237000226974487,0.5974375009536743,-1.6730999946594238
1788164612111040000,8.6380400390625,0.5638874769210815,0.5608624815940857,-1.6425750255584717
1788164612121120000,8.6481201171875,0.478362500667572,0.5266249775886536,-1.6340500116348267
1788164612131208700,8.658208740234375,0.3806000053882599,0.48633748292922974,-1.61204993724823
1788164612141291000,8.668291015625,0.3255999982357025,0.47891250252723694,-1.5962375402450562
1788164612151382800,8.6783828125,0.2780250012874603,0.3848625123500824,-1.5570499897003174
1788164612161467400,8.68846728515625,0.23154999315738678,0.26028749346733093,-1.5338125228881836
1788164612171552500,8.698552490234375,0.23278750479221344,0.2810499966144562,-1.4727624654769897
1788164612181635000,8.708635009765626,0.21931250393390656,0.29205000400543213,-1.4141875505447388
1788164612191721700,8.7187216796875,0.18150000274181366,0.22852499783039093,-1.36166250705719
1788164612201809400,8.728809326171875,0.15578749775886536,0.13199999928474426,-1.2894749641418457
1788164612211903000,8.738903076171875,0.1387374997138977,0.042762499302625656,-1.2309000492095947
1788164612221988600,8.748988525390626,0.13021250069141388,-0.0085249999538064,-1.208899974822998
1788164612232072200,8.759072265625,0.1667875051498413,-0.030524998903274536,-1.1771374940872192
1788164612242146000,8.76914599609375,0.2022625058889389,-0.07933750003576279,-1.1563750505447388
1788164612252235000,8.779235107421876,0.23526249825954437,-0.07809999585151672,-1.0843249559402466
1788164612262323000,8.789322998046876,0.27678748965263367,-0.015812499448657036,-0.9596124887466431
1788164612272422400,8.79942236328125,0.30483749508857727,0.008662499487400055,-0.8692749738693237
1788164612282504700,8.809504638671875,0.3207874894142151,0.006187499966472387,-0.8362749814987183
1788164612292593000,8.819593017578125,0.2975499927997589,0.08552499860525131,-0.7837499976158142
1788164612302679800,8.8296796875,0.22302499413490295,0.10999999940395355,-0.7189875245094299
1788164612312777000,8.83977685546875,0.1106875017285347,0.008662499487400055,-0.6786999702453613
1788164612322867500,8.849867431640625,0.017737500369548798,-0.12828749418258667,-0.635937511920929
1788164612332958000,8.8599580078125,-0.015262499451637268,-0.28338751196861267,-0.5333625078201294
1788164612343046400,8.87004638671875,-0.023787500336766243,-0.39943748712539673,-0.414837509393692
1788164612353137000,8.880136962890624,-0.010312499478459358,-0.4164874851703644,-0.303600013256073
1788164612363222000,8.890221923828125,0.028737500309944153,-0.3811500072479248,-0.2180749922990799
1788164612373324500,8.900324462890625,0.06297499686479568,-0.47891250252723694,-0.1545500010251999
1788164612383421400,8.91042138671875,0.05197500064969063,-0.5655375123023987,-0.07631249725818634
1788164612393518000,8.92051806640625,0.04097500070929527,-0.5216749906539917,0.07273750007152557
1788164612403606500,8.9306064453125,0.018975000828504562,-0.5631999969482422,0.18878750503063202
1788164612413697000,8.940697021484375,-0.014024999924004078,-0.6389625072479248,0.2583625018596649
1788164612423791600,8.95079150390625,0.009212499484419823,-0.6070625185966492,0.3548874855041504
1788164612433883400,8.96088330078125,0.016499999910593033,-0.6547750234603882,0.439175009727478
1788164612443972000,8.97097216796875,0.0019249999895691872,-0.739062488079071,0.5076500177383423
1788164612454066400,8.98106640625,0.020212499424815178,-0.7158250212669373,0.566224992275238
1788164612464155600,8.99115576171875,0.043449997901916504,-0.7623000144958496,0.5882250070571899
1788164612474243800,9.001243896484375,0.0494999997317791,-0.8416374921798706,0.5687000155448914
1788164612484327200,9.0113271484375,0.09473749995231628,-0.9638749957084656,0.45512500405311584
1788164612494405400,9.0214052734375,0.19497500360012054,-1.1764500141143799,0.20336249470710754
1788164612504494000,9.031494140625,0.3965499997138977,-1.272974967956543,-0.13997499644756317
1788164612514582300,9.041582275390626,0.6347000002861023,-0.8600624799728394,-0.4465999901294708
1788164612524660200,9.05166015625,0.8142749667167664,-0.20514999330043793,-0.6494125127792358
1788164612534752500,9.06175244140625,0.9230374693870544,0.2932874858379364,-0.7202249765396118
1788164612544836600,9.071836669921876,0.9560375213623047,0.5546749830245972,-0.6494125127792358
1788164612554924500,9.081924560546875,0.8888000249862671,0.5779125094413757,-0.522362470626831
1788164612565009200,9.092009033203125,0.7862250208854675,0.49486249685287476,-0.3293125033378601
1788164612575096600,9.1020966796875,0.6604124903678894,0.29809999465942383,-0.1264999955892563
1788164612585185000,9.11218505859375,0.5418875217437744,0.08552499860525131,-0.0006874999962747097
1788164612595275800,9.12227587890625,0.45883750915527344,-0.0010999999940395355,0.053075000643730164
1788164612605361000,9.13236083984375,0.3770250082015991,-0.07809999585151672,0.058024998754262924
1788164612615454000,9.142453857421875,0.295074999332428,-0.15138749778270721,0.04331250116229057
1788164612625541600,9.152541748046875,0.19373749196529388,-0.2576749920845032,0.04331250116229057
1788164612635621600,9.16262158203125,0.10573749989271164,-0.3969624936580658,0.06283749639987946
1788164612645708000,9.1727080078125,0.06916250288486481,-0.4092000126838684,0.07026249915361404
1788164612655799600,9.182799560546876,0.08249999582767487,-0.3689124882221222,0.028737500309944153
1788164612665890600,9.192890625,0.12278749793767929,-0.3091000020503998,-0.07397499680519104
1788164612675978800,9.202978759765625,0.1667875051498413,-0.1368124932050705,-0.15950000286102295
1788164612686069200,9.2130693359375,0.17173749208450317,-0.0340999998152256,-0.19359999895095825
1788164612696162600,9.22316259765625,0.14602500200271606,0.050187498331069946,-0.15207499265670776
1788164612706251500,9.23325146484375,0.08744999766349792,0.12594999372959137,-0.07397499680519104
1788164612716347400,9.243347412109374,0.0006874999962747097,0.09418749809265137,-0.05073750019073486
1788164612726434300,9.253434326171876,-0.0775500014424324,0.10395000129938126,-0.08373750001192093
1788164612736519200,9.263519287109375,-0.14231249690055847,0.02447500079870224,-0.11178749799728394
1788164612746612700,9.27361279296875,-0.1886499971151352,-0.14038750529289246,-0.11426249891519547
1788164612756700200,9.2837001953125,-0.20583750307559967,-0.14781250059604645,-0.058024998754262924
1788164612766792700,9.293792724609375,-0.21683749556541443,-0.13805000483989716,0.010312499478459358
1788164612776878300,9.30387841796875,-0.22536249458789825,-0.05486249923706055,0.048262499272823334
1788164612786963700,9.313963623046876,-0.20941250026226044,0.11618749797344208,0.029975000768899918
1788164612797049600,9.324049560546875,-0.1886499971151352,0.13695000112056732,-0.012787500396370888
1788164612807154200,9.334154296875,-0.133650004863739,0.17352500557899475,0.0005499999970197678
1788164612817239800,9.34423974609375,-0.0835999995470047,0.14423750340938568,0.07507500052452087
1788164612827321300,9.3543212890625,-0.060362499207258224,0.0317624993622303,0.17159999907016754
1788164612837407700,9.36440771484375,-0.057887498289346695,0.0317624993622303,0.23759999871253967
1788164612847497500,9.37449755859375,-0.0873124971985817,0.057475000619888306,0.19607499241828918
1788164612857585400,9.38458544921875,-0.14464999735355377,0.16128750145435333,0.06407500058412552
1788164612867679200,9.39467919921875,-0.20336249470710754,0.26881250739097595,-0.0775500014424324
1788164612877756700,9.404756591796875,-0.2644124925136566,0.24323749542236328,-0.1765500009059906
1788164612887851500,9.4148515625,-0.2937000095844269,0.20652499794960022,-0.1667875051498413
1788164612897937400,9.4249375,-0.319412499666214,0.20652499794960022,-0.08978749811649323
1788164612908029700,9.43502978515625,-0.34017500281333923,0.1467124968767166,0.007974999956786633
1788164612918106600,9.445106689453125,-0.3316499888896942,0.16981250047683716,0.08373750001192093
1788164612928202000,9.455201904296874,-0.3022249937057495,0.14423750340938568,0.07878749817609787
1788164612938292200,9.465292236328125,-0.25712499022483826,0.13323749601840973,0.016499999910593033
1788164612948375600,9.47537548828125,-0.19841249287128448,0.1247124969959259,-0.048262499272823334
1788164612958461700,9.485461669921875,-0.14959999918937683,0.029424998909235,-0.05926249921321869
1788164612968554500,9.495554443359374,-0.09212499856948853,-0.030524998903274536,0.020075000822544098
1788164612978636300,9.50563623046875,-0.07507500052452087,-0.0952875018119812,0.12031249701976776
1788164612988726300,9.515726318359375,-0.08112499862909317,-0.15138749778270721,0.16554999351501465
1788164612998815500,9.5258154296875,-0.10312499850988388,-0.2125750035047531,0.14354999363422394
1788164613008909800,9.535909912109375,-0.16060000658035278,-0.3371500074863434,0.06173750013113022
1788164613019004000,9.54600390625,-0.19965000450611115,-0.42748749256134033,-0.014024999924004078
1788164613029095000,9.556094970703125,-0.22893749177455902,-0.4666749835014343,-0.07397499680519104
1788164613039187200,9.566187255859376,-0.2326499968767166,-0.4349125027656555,-0.15207499265670776
1788164613049282600,9.576282470703125,-0.23141250014305115,-0.17710000276565552,-0.21559999883174896
1788164613059369000,9.586368896484375,-0.23759999871253967,0.07452499866485596,-0.27059999108314514
1788164613069464800,9.59646484375,-0.23388749361038208,0.23457500338554382,-0.32436248660087585
1788164613079553300,9.60655322265625,-0.20817500352859497,0.36162498593330383,-0.36588749289512634
1788164613089643800,9.616643798828125,-0.16060000658035278,0.33976250886917114,-0.35983750224113464
1788164613099727600,9.6267275390625,-0.09583749622106552,0.28833749890327454,-0.28654998540878296
1788164613109812200,9.636812255859375,-0.06283749639987946,0.16871249675750732,-0.10807500034570694
1788164613119901000,9.64690087890625,-0.07507500052452087,-0.010862499475479126,0.07631249725818634
1788164613130006800,9.6570068359375,-0.14464999735355377,-0.18081249296665192,0.1350249946117401
1788164613140083200,9.667083251953125,-0.2937000095844269,-0.20886249840259552,0.0005499999970197678
1788164613150168800,9.6771689453125,-0.4402749836444855,0.006187499966472387,-0.2633124887943268
1788164613160255200,9.687255126953126,-0.4819374978542328,0.37757501006126404,-0.4661250114440918
1788164613170344200,9.69734423828125,-0.3548874855041504,0.690387487411499,-0.40617498755455017
1788164613180428000,9.707427978515625,-0.11041250079870224,0.7159624695777893,-0.09955000132322311
1788164613190512000,9.71751220703125,0.1350249946117401,0.5779125094413757,0.26083749532699585
1788164613200595200,9.72759521484375,0.3073124885559082,0.5486249923706055,0.5076500177383423
1788164613210681600,9.737681640625,0.3268375098705292,0.5315750241279602,0.5332249999046326
1788164613220770000,9.74777001953125,0.21449999511241913,0.5339124798774719,0.42941248416900635
1788164613230853000,9.75785302734375,0.12773749232292175,0.5730999708175659,0.31088748574256897
1788164613240963800,9.7679638671875,0.11426249891519547,0.5534374713897705,0.2853125035762787
1788164613251052500,9.778052490234375,0.18150000274181366,0.45333749055862427,0.3291749954223633
1788164613261133000,9.788133056640625,0.2523125112056732,0.3385249972343445,0.3683624863624573
1788164613271221800,9.7982216796875,0.27073749899864197,0.21876250207424164,0.35241249203681946
1788164613281299700,9.8082998046875,0.27197501063346863,0.07699999958276749,0.30236250162124634
1788164613291390200,9.81839013671875,0.284074991941452,-0.0317624993622303,0.23512500524520874
1788164613301469400,9.828469482421875,0.30483749508857727,-0.15633749961853027,0.1691250056028366
1788164613311555600,9.8385556640625,0.32573750615119934,-0.2796750068664551,0.09350000321865082
1788164613321647000,9.848647216796875,0.32807499170303345,-0.3969624936580658,0.022549999877810478
1788164613331739000,9.85873876953125,0.3195500075817108,-0.48977500200271606,-0.05555000156164169
1788164613341830000,9.868829833984375,0.3097875118255615,-0.555774986743927,-0.1264999955892563
1788164613351916300,9.878916259765624,0.3207874894142151,-0.6327750086784363,-0.20954999327659607
1788164613362003000,9.8890029296875,0.33550000190734863,-0.742775022983551,-0.26936250925064087
1788164613372093700,9.89909375,0.3293125033378601,-0.8600624799728394,-0.2975499927997589
1788164613382169000,9.909169189453126,0.2890250086784363,-0.9150624871253967,-0.30607500672340393
1788164613392262700,9.9192626953125,0.19744999706745148,-0.9724000096321106,-0.303600013256073
1788164613402358000,9.92935791015625,0.1069749966263771,-0.9638749957084656,-0.2998875081539154
1788164613412443400,9.939443359375,0.0752125009894371,-0.940637469291687,-0.2461249977350235
1788164613422532000,9.949531982421876,0.116737499833107,-0.9663500189781189,-0.11550000309944153
1788164613432618500,9.959618408203125,0.19126249849796295,-1.0286375284194946,0.07026249915361404
1788164613442694000,9.96969384765625,0.21326249837875366,-1.1044000387191772,0.24131250381469727
1788164613452781800,9.97978173828125,0.17902499437332153,-1.1141624450683594,0.26688748598098755
1788164613462873300,9.989873291015625,0.08373750001192093,-1.0286375284194946,0.12402500212192535
1788164613472963000,9.999963134765625,0.021449999883770943,-0.7965375185012817,-0.08249999582767487
1788164613483060500,10.010060546875,0.020212499424815178,-0.5570124983787537,-0.22659999132156372
1788164613493152500,10.020152587890625,0.09597499668598175,-0.3871999979019165,-0.2657875120639801
1788164613503242000,10.030241943359375,0.18878750503063202,-0.2858625054359436,-0.23278750479221344
1788164613513331500,10.04033154296875,0.22550000250339508,-0.22591249644756317,-0.16431249678134918
1788164613523418400,10.05041845703125,0.21326249837875366,-0.0695749968290329,-0.1288374960422516
1788164613533502200,10.060502197265626,0.12773749232292175,0.09542500227689743,-0.11178749799728394
1788164613543588600,10.070588623046875,0.018975000828504562,0.28228750824928284,-0.05926249921321869
1788164613553678600,10.0806787109375,-0.060362499207258224,0.41304999589920044,0.02502499893307686
1788164613563767600,10.090767578125,-0.10188750177621841,0.3750999867916107,0.1447875052690506
1788164613573858600,10.100858642578125,-0.07864999771118164,0.305525004863739,0.22055000066757202
1788164613583941000,10.110941162109375,-0.045787498354911804,0.1564749926328659,0.2217874974012375
1788164613594033700,10.12103369140625,-0.009074999950826168,-0.0340999998152256,0.18507499992847443
1788164613604123600,10.13112353515625,0.016637500375509262,-0.16733749210834503,0.14231249690055847
1788164613614213400,10.14121337890625,0.009212499484419823,-0.2564375102519989,0.09955000132322311
1788164613624299300,10.15129931640625,-0.005362499970942736,-0.1929125040769577,0.010312499478459358
1788164613634385200,10.16138525390625,-0.021312499418854713,-0.002337499987334013,-0.116737499833107
1788164613644482600,10.171482666015624,0.021449999883770943,0.2297624945640564,-0.15331250429153442
1788164613654572800,10.18157275390625,0.08868750184774399,0.16499999165534973,-0.06655000150203705
1788164613664661800,10.191661865234375,0.1424500048160553,-0.07081250101327896,0.10449999570846558
1788164613674756600,10.201756591796874,0.13750000298023224,-0.2699125111103058,0.2876499891281128
1788164613684843000,10.211843017578126,0.027637500315904617,-0.39214998483657837,0.3451249897480011
1788164613694928100,10.22192822265625,-0.13612499833106995,-0.297962486743927,0.24131250381469727
1788164613705009700,10.232009765625,-0.28146249055862427,-0.2320999950170517,0.06531249731779099
1788164613715096000,10.242095947265625,-0.319412499666214,-0.26592499017715454,-0.02227500081062317
1788164613725184800,10.252184814453125,-0.23512500524520874,-0.37950000166893005,0.004674999974668026
1788164613735274200,10.262274169921875,-0.13612499833106995,-0.5640249848365784,0.08291249722242355
1788164613745363200,10.27236328125,-0.04207500070333481,-0.5200250148773193,0.10848750174045563
1788164613755453700,10.28245361328125,-0.012787500396370888,-0.20858749747276306,0.04496249929070473
1788164613765535200,10.29253515625,-0.010312499478459358,0.19470000267028809,-0.011274999938905239
1788164613775626500,10.30262646484375,-0.03355000168085098,0.34251248836517334,0.005912499967962503
1788164613785708500,10.31270849609375,-0.06655000150203705,0.11275000125169754,0.09872499853372574
1788164613795801000,10.322801025390625,-0.0798875018954277,-0.2512125074863434,0.2465374916791916
1788164613805889800,10.332889892578125,-0.16307500004768372,-0.5897374749183655,0.42858749628067017
1788164613815978000,10.34297802734375,-0.23993749916553497,-0.6752625107765198,0.5458750128746033
1788164613826065000,10.35306494140625,-0.29260000586509705,-0.5347374677658081,0.49211248755455017
1788164613836143900,10.363143798828125,-0.27059999108314514,-0.2171124964952469,0.27582499384880066
1788164613846233000,10.373233154296875,-0.14464999735355377,0.16046249866485596,0.05348749831318855
1788164613856321500,10.383321533203125,-0.0042624999769032,0.37661248445510864,-0.08084999769926071
1788164613866413600,10.39341357421875,0.12044999748468399,0.4010874927043915,-0.038087498396635056
1788164613876499700,10.403499755859375,0.19002500176429749,0.20198750495910645,0.11824999749660492
1788164613886585900,10.4135859375,0.19731250405311584,-0.06063750013709068,0.2917749881744385
1788164613896666400,10.423666259765625,0.1704999953508377,-0.1755875051021576,0.4151124954223633
1788164613906754600,10.433754638671875,0.06668750196695328,-0.26963749527931213,0.405349999666214
1788164613916832500,10.44383251953125,-0.005499999970197678,-0.2611125111579895,0.27348750829696655
1788164613926929000,10.453928955078124,-0.045787498354911804,-0.26840001344680786,0.09748750180006027
1788164613937014500,10.4640146484375,-0.020075000822544098,-0.2488749921321869,-0.028324998915195465
1788164613947106000,10.47410595703125,0.05816249921917915,-0.22068749368190765,-0.07232499867677689
1788164613957192200,10.484192138671874,0.1447875052690506,-0.10711249709129333,-0.0845625028014183
1788164613967277000,10.494277099609375,0.22426250576972961,0.13227500021457672,-0.05637500062584877
1788164613977365800,10.50436572265625,0.24873749911785126,0.1849374920129776,-0.02461249940097332
1788164613987456000,10.5144560546875,0.24131250381469727,0.11151249706745148,-0.023512499406933784
1788164613997539000,10.5245390625,0.18150000274181366,-0.004537499975413084,-0.02956249937415123
1788164614007634700,10.534634765625,0.07644999772310257,-0.2194499969482422,-0.0015124999918043613
1788164614017723000,10.544722900390624,-0.007837500423192978,-0.4296875,0.08648750185966492
1788164614027808300,10.554808349609376,-0.06159999966621399,-0.6300249695777893,0.21601249277591705
1788164614037895400,10.5648955078125,-0.05678749829530716,-0.7082625031471252,0.33701249957084656
1788164614047982600,10.574982666015625,-0.09088750183582306,-0.6690750122070312,0.30277499556541443
1788164614058074000,10.58507421875,-0.1691250056028366,-0.6117374897003174,0.11577499657869339
1788164614068155000,10.59515478515625,-0.22536249458789825,-0.39668750762939453,-0.09308750182390213
1788164614078241300,10.6052412109375,-0.255887508392334,-0.27445000410079956,-0.19085000455379486
1788164614088328400,10.615328369140625,-0.22659999132156372,-0.19263750314712524,-0.1480875015258789
1788164614098413000,10.6254130859375,-0.16183750331401825,-0.18892499804496765,-0.0015124999918043613
1788164614108502500,10.63550244140625,-0.11288750171661377,-0.10106249898672104,0.16472500562667847
1788164614118591500,10.645591552734375,-0.0873124971985817,0.0004124999977648258,0.2770625054836273
1788164614128692200,10.655692138671874,-0.08236250281333923,0.021175000816583633,0.28558748960494995
1788164614138776600,10.665776611328125,-0.060362499207258224,0.052937500178813934,0.23801249265670776
1788164614148875000,10.675875,-0.04936249926686287,0.05169999971985817,0.20624999701976776
1788164614158961700,10.685961669921875,-0.05678749829530716,0.06393750011920929,0.195250004529953
1788164614169060600,10.696060546875,-0.048124998807907104,0.1555124968290329,0.2087250053882599
1788164614179140000,10.70614013671875,-0.04207500070333481,0.16169999539852142,0.1989624947309494
1788164614189236200,10.716236328125,-0.014024999924004078,0.3057999908924103,0.14643749594688416
1788164614199327200,10.7263271484375,-0.0042624999769032,0.38403749465942383,0.07067500054836273
1788164614209418500,10.73641845703125,0.015399999916553497,0.35103750228881836,0.013199999928474426
1788164614219507500,10.746507568359375,0.022687500342726707,0.17627499997615814,-0.01484999991953373
1788164614229602600,10.7566025390625,0.0006874999962747097,-0.08511249721050262,-0.030799999833106995
1788164614239704800,10.766704833984376,-0.012787500396370888,-0.23292499780654907,-0.0038499999791383743
1788164614249789400,10.77678955078125,-0.009074999950826168,-0.28421249985694885,-0.0038499999791383743
1788164614259872500,10.78687255859375,0.027499999850988388,-0.10216250270605087,-0.021037500351667404
1788164614269971500,10.796971435546874,0.048262499272823334,0.055412501096725464,-0.08813749998807907
1788164614280057900,10.807057861328126,0.07768750190734863,0.1775124967098236,-0.1615625023841858
1788164614290143200,10.817143310546875,0.1264999955892563,0.22151249647140503,-0.18837499618530273
1788164614300228000,10.82722802734375,0.14121249318122864,0.1335124969482422,-0.1223749965429306
1788164614310318800,10.83731884765625,0.15950000286102295,0.09075000137090683,0.018149999901652336
1788164614320403500,10.847403564453124,0.17173749208450317,0.09941250085830688,0.17448750138282776
1788164614330482000,10.85748193359375,0.15468749403953552,0.035887498408555984,0.3003000020980835
1788164614340567800,10.86756787109375,0.1326874941587448,-0.05335000157356262,0.3455374836921692
1788164614350646300,10.877646240234375,0.055687498301267624,-0.23416249454021454,0.2917749881744385
1788164614360735700,10.88773583984375,-0.02502499893307686,-0.2866874933242798,0.21601249277591705
1788164614370824400,10.897824462890625,-0.133650004863739,-0.40149998664855957,0.14643749594688416
1788164614380909600,10.90790966796875,-0.24117499589920044,-0.5457375049591064,0.04619999974966049
1788164614390990600,10.917990478515625,-0.3096500039100647,-0.3856875002384186,-0.007562499959021807
1788164614401075500,10.928075439453124,-0.3316499888896942,-0.09487500041723251,-0.047849997878074646
1788164614411153400,10.9381533203125,-0.2326499968767166,0.23856249451637268,-0.05637500062584877
1788164614421241900,10.948241943359376,-0.1190750002861023,0.34127500653266907,-0.025849999859929085
1788164614431326500,10.958326416015625,-0.04331250116229057,0.2923249900341034,0.03148749843239784
1788164614441408800,10.96840869140625,0.012924999929964542,0.13598750531673431,0.12072499841451645
1788164614451499500,10.97849951171875,0.029975000768899918,-0.1975875049829483,0.227012500166893
1788164614461585400,10.98858544921875,0.05444999784231186,-0.3844499886035919,0.28929999470710754
1788164614471671800,10.998671875,0.06421250104904175,-0.3722124993801117,0.26124998927116394
1788164614481758200,11.00875830078125,0.06544999778270721,-0.2793999910354614,0.1574375033378601
1788164614491842800,11.0188427734375,0.06544999778270721,-0.19016249477863312,-0.013612499460577965
1788164614501929200,11.02892919921875,0.0494999997317791,-0.22192500531673431,-0.11990000307559967
1788164614512002800,11.0390029296875,0.03244999796152115,-0.3306874930858612,-0.08813749998807907
1788164614522097200,11.04909716796875,-0.021312499418854713,-0.46268749237060547,0.027912499383091927
1788164614532185000,11.05918505859375,-0.07012499868869781,-0.4772624969482422,0.1597750037908554
1788164614542275300,11.069275390625,-0.10312499850988388,-0.390500009059906,0.22948749363422394
1788164614552369200,11.079369140625,-0.15331250429153442,-0.2611125111579895,0.18796250224113464
1788164614562452500,11.089452392578124,-0.21188749372959137,-0.12182500213384628,0.11467500030994415
1788164614572538400,11.099538330078126,-0.29493749141693115,-0.10106249898672104,0.0644875019788742
1788164614582632400,11.109632568359375,-0.35846251249313354,-0.32339999079704285,0.09267500042915344
1788164614592714000,11.1197138671875,-0.382937490940094,-0.5372124910354614,0.1317249983549118
1788164614602803200,11.12980322265625,-0.3596999943256378,-0.6410250067710876,0.13296249508857727
1788164614612891000,11.139890869140626,-0.28888750076293945,-0.5579749941825867,0.09624999761581421
1788164614622980600,11.149980712890626,-0.2326499968767166,-0.46873748302459717,0.018149999901652336
1788164614633060000,11.16006005859375,-0.2046000063419342,-0.37345001101493835,-0.03684999793767929
1788164614643143200,11.17014306640625,-0.18012499809265137,-0.31968748569488525,-0.016087500378489494
1788164614653231900,11.18023193359375,-0.15441249310970306,-0.3172124922275543,0.05719999969005585
1788164614663327000,11.190326904296874,-0.07507500052452087,-0.17434999346733093,0.1671999990940094
1788164614673414100,11.2004140625,0.07644999772310257,0.07864999771118164,0.267300009727478
1788164614683507700,11.2105078125,0.2120250016450882,0.28380000591278076,0.31501248478889465
1788164614693600800,11.220600830078125,0.3268375098705292,0.3657499849796295,0.28806251287460327
1788164614703699200,11.23069921875,0.39902499318122864,0.35708749294281006,0.27101248502731323
1788164614713784800,11.240784912109374,0.4258374869823456,0.10051249712705612,0.25148749351501465
1788164614723869200,11.250869140625,0.406312495470047,-0.2316875010728836,0.21353749930858612
1788164614733960400,11.26096044921875,0.39778751134872437,-0.3343999981880188,0.18177500367164612
1788164614744056300,11.271056396484376,0.3683624863624573,-0.34773749113082886,0.15853749215602875
1788164614754147800,11.28114794921875,0.2657875120639801,-0.46873748302459717,0.09872499853372574
1788164614764236500,11.291236572265625,0.16802500188350677,-0.45045000314712524,0.03396249935030937
1788164614774319900,11.30131982421875,0.11921250075101852,-0.2391124963760376,-0.08084999769926071
1788164614784398800,11.31139892578125,0.11302500218153,0.14217500388622284,-0.17489999532699585
1788164614794487600,11.321487548828125,0.16926249861717224,0.4866124987602234,-0.18713749945163727
1788164614804572400,11.331572509765625,0.2572624981403351,0.5550875067710876,-0.1163249984383583
1788164614814658300,11.341658203125,0.3207874894142151,0.431612491607666,-0.0015124999918043613
1788164614824741600,11.35174169921875,0.34031251072883606,0.21422499418258667,0.07301250100135803
1788164614834832400,11.361832275390626,0.33178749680519104,0.11646249890327454,0.03148749843239784
1788164614844930000,11.371929931640626,0.24502499401569366,-0.06187500059604645,-0.07479999959468842
1788164614855017200,11.382017333984376,0.11302500218153,-0.3465000092983246,-0.23361249268054962
1788164614865106000,11.39210595703125,0.04221250116825104,-0.5335000157356262,-0.33137500286102295
1788164614875188500,11.4021884765625,-0.020075000822544098,-0.6654999852180481,-0.35571250319480896
1788164614885279000,11.412279052734375,-0.04331250116229057,-0.5933125019073486,-0.29589998722076416
1788164614895362300,11.4223623046875,-0.038362499326467514,-0.3979249894618988,-0.19689999520778656
1788164614905454600,11.43245458984375,-0.060362499207258224,-0.06929999589920044,-0.16032500565052032
1788164614915540200,11.442540283203124,-0.11288750171661377,0.24227499961853027,-0.1896124929189682
1788164614925630500,11.45263037109375,-0.17407499253749847,0.3913249969482422,-0.23966249823570251
1788164614935712000,11.4627119140625,-0.15812499821186066,0.41827499866485596,-0.25189998745918274
1788164614945798000,11.4727978515625,-0.15565000474452972,0.28132501244544983,-0.18108749389648438
1788164614955884800,11.482884765625,-0.15207499265670776,0.050462499260902405,-0.050324998795986176
1788164614965975600,11.4929755859375,-0.16788749396800995,-0.15963749587535858,0.08167500048875809
1788164614976070400,11.5030703125,-0.1886499971151352,-0.30744999647140503,0.1915374994277954
1788164614986155000,11.513155029296875,-0.22769999504089355,-0.445499986410141,0.21601249277591705
1788164614996249300,11.523249267578125,-0.2778874933719635,-0.521262526512146,0.09872499853372574
1788164615006340600,11.533340576171875,-0.3438875079154968,-0.44673749804496765,-0.10889999568462372
1788164615016431000,11.54343115234375,-0.41222500801086426,-0.09116250276565552,-0.2886124849319458
1788164615026521300,11.553521240234375,-0.4464625120162964,0.2899875044822693,-0.3324750065803528
1788164615036614400,11.563614501953126,-0.42570000886917114,0.6429499983787537,-0.24695000052452087
1788164615046703900,11.573703857421876,-0.4305124878883362,0.7224249839782715,-0.11137499660253525
1788164615056796700,11.583796630859375,-0.44151249527931213,0.6528499722480774,-0.005087499972432852
1788164615066882600,11.593882568359374,-0.4819374978542328,0.38279998302459717,0.02914999984204769
1788164615076974800,11.603974853515625,-0.509987473487854,0.02488750033080578,0.0034374999813735485
1788164615087058200,11.61405810546875,-0.5075125098228455,-0.2806375026702881,-0.060087498277425766
1788164615097142800,11.624142822265625,-0.4819374978542328,-0.3404499888420105,-0.10037499666213989
1788164615107233000,11.63423291015625,-0.4452250003814697,-0.15839999914169312,-0.06613750010728836
1788164615117325300,11.6443251953125,-0.3964124917984009,-0.0057749999687075615,0.013199999928474426
1788164615127408000,11.654408203125,-0.34498751163482666,0.17022499442100525,0.08291249722242355
1788164615137494500,11.66449462890625,-0.33041250705718994,0.23003749549388885,0.14396250247955322
1788164615147584500,11.67458447265625,-0.37193748354911804,0.11522500216960907,0.17077499628067017
1788164615157675300,11.68467529296875,-0.41346248984336853,0.018699999898672104,0.17201249301433563
1788164615167761200,11.69476123046875,-0.4587000012397766,-0.022824998944997787,0.0742499977350235
1788164615177851400,11.704851318359376,-0.47574999928474426,-0.016637500375509262,-0.04661250114440918
1788164615187971300,11.714971435546875,-0.46117499470710754,0.06270000338554382,-0.10161250084638596
1788164615198062600,11.7250625,-0.4012250006198883,0.14327499270439148,-0.07713750004768372
1788164615208149500,11.7351494140625,-0.31693750619888306,0.22151249647140503,-0.0015124999918043613
1788164615218246700,11.74524658203125,-0.24736249446868896,0.20198750495910645,0.06091250106692314
1788164615228332500,11.75533251953125,-0.18617500364780426,0.31556248664855957,0.09267500042915344
1788164615238419200,11.765419189453125,-0.16183750331401825,0.33274999260902405,0.0644875019788742
1788164615248510700,11.7755107421875,-0.15441249310970306,0.30332499742507935,0.03519999980926514
1788164615258600000,11.785599853515626,-0.1508374959230423,0.18975000083446503,0.0009624999947845936
1788164615268684800,11.795684814453125,-0.15441249310970306,0.057887498289346695,-0.0015124999918043613
1788164615278778600,11.805778564453124,-0.13612499833106995,-0.05582499876618385,0.06091250106692314
1788164615288864300,11.8158642578125,-0.1531749963760376,-0.17668749392032623,0.12196250259876251
1788164615298952700,11.82595263671875,-0.18012499809265137,-0.16568750143051147,0.13048750162124634
1788164615309047600,11.836047607421875,-0.18617500364780426,-0.08635000139474869,0.06696250289678574
1788164615319127300,11.846127197265625,-0.19483749568462372,-0.024062499403953552,-0.07713750004768372
1788164615329216500,11.856216552734375,-0.17159999907016754,0.06517499685287476,-0.2591874897480011
1788164615339314200,11.866314208984376,-0.1313125044107437,0.2190375030040741,-0.36918750405311584
1788164615349398500,11.8763984375,-0.08236250281333923,0.37056249380111694,-0.3544749915599823
1788164615359489500,11.886489501953125,-0.08483749628067017,0.45003750920295715,-0.2934249937534332
1788164615369572600,11.896572509765624,-0.11659999936819077,0.45980000495910645,-0.20913749933242798
1788164615379669000,11.9066689453125,-0.1568875014781952,0.39861249923706055,-0.08937499672174454
1788164615389753600,11.916753662109375,-0.19593749940395355,0.12993749976158142,-0.043037500232458115
1788164615399841300,11.92684130859375,-0.19112500548362732,-0.030112499371170998,-0.06132499873638153
1788164615409932300,11.936932373046876,-0.16183750331401825,-0.17311249673366547,-0.0943249985575676
1788164615420021500,11.947021484375,-0.1373624950647354,-0.15482500195503235,-0.15166249871253967
1788164615430106000,11.957106201171875,-0.09831249713897705,-0.0032999999821186066,-0.13461250066757202
1788164615440194600,11.967194580078125,-0.13612499833106995,0.055412501096725464,-0.09679999947547913
1788164615450279700,11.97727978515625,-0.16183750331401825,0.21422499418258667,-0.07479999959468842
1788164615460370000,11.987369873046875,-0.20212499797344208,0.37674999237060547,-0.10889999568462372
1788164615470449700,11.99744970703125,-0.19593749940395355,0.3950375020503998,-0.13461250066757202
1788164615480538600,12.00753857421875,-0.17641249299049377,0.36451250314712524,-0.18108749389648438
1788164615490615600,12.017615478515625,-0.14836250245571136,0.1970375031232834,-0.2274249941110611
1788164615500696600,12.027696533203125,-0.07383749634027481,0.03946249932050705,-0.1639000028371811
1788164615510781700,12.03778173828125,-0.050599999725818634,-0.17063750326633453,-0.038087498396635056
1788164615520864800,12.04786474609375,-0.018837500363588333,-0.1999250054359436,0.09019999951124191
1788164615530948600,12.057948486328126,-0.0042624999769032,-0.23787499964237213,0.18301250040531158
1788164615541036300,12.068036376953126,-0.0030249999836087227,-0.18658749759197235,0.1891999989748001
1788164615551117000,12.078116943359374,0.023924998939037323,0.02969999983906746,0.1451999992132187
1788164615561207300,12.088207275390625,0.043449997901916504,0.13474999368190765,0.07067500054836273
1788164615571293700,12.098293701171874,0.08744999766349792,0.24351249635219574,-0.010037500411272049
1788164615581375700,12.108375732421875,0.12773749232292175,0.3975124955177307,-0.07108750194311142
1788164615591457300,12.118457275390625,0.1350249946117401,0.4035624861717224,-0.07356250286102295
1788164615601550000,12.128550048828124,0.12292499840259552,0.35708749294281006,-0.012374999932944775
1788164615611630600,12.138630615234375,0.09597499668598175,0.2227499932050705,0.06943749636411667
1788164615621716700,12.148716796875,0.1069749966263771,-0.05458749830722809,0.2367749959230423
1788164615631799000,12.158799072265625,0.12773749232292175,-0.3111625015735626,0.405349999666214
1788164615641891600,12.1688916015625,0.16321249306201935,-0.5347374677658081,0.516587495803833
1788164615651968800,12.17896875,0.22055000066757202,-0.5982624888420105,0.5495874881744385
1788164615662050300,12.18905029296875,0.20350000262260437,-0.5627874732017517,0.4078249931335449
1788164615672128300,12.199128173828125,0.17297500371932983,-0.40892499685287476,0.14272500574588776
1788164615682209800,12.209209716796876,0.1742125004529953,-0.12058749794960022,-0.14685000479221344
1788164615692295000,12.219294921875,0.20954999327659607,0.23980000615119934,-0.2946625053882599
1788164615702384600,12.229384521484375,0.22673749923706055,0.5048999786376953,-0.2666124999523163
1788164615712457000,12.23945703125,0.18521249294281006,0.5795624852180481,-0.2274249941110611
1788164615722546700,12.249546630859374,0.14121249318122864,0.5330874919891357,-0.11866249889135361
1788164615732629000,12.25962890625,0.08621250092983246,0.3975124955177307,-0.011274999938905239
1788164615742723600,12.2697236328125,0.05073750019073486,0.09693749994039536,0.08772499859333038
1788164615752810500,12.279810546875,0.04963750019669533,-0.23663750290870667,0.17943750321865082
1788164615762925000,12.289925048828126,0.08249999582767487,-0.5054500102996826,0.2807750105857849
1788164615773012500,12.300012451171876,0.16926249861717224,-0.6153125166893005,0.3675374984741211
1788164615783103200,12.310103271484374,0.19978749752044678,-0.7045499682426453,0.42377498745918274
1788164615793193000,12.32019287109375,0.18273749947547913,-0.6360750198364258,0.4371125102043152
1788164615803280600,12.33028076171875,0.11550000309944153,-0.46021249890327454,0.36629998683929443
1788164615813372700,12.34037255859375,0.022687500342726707,-0.2414499968290329,0.21972499787807465
1788164615823464400,12.35046435546875,-0.022549999877810478,0.05898749828338623,0.022962499409914017
1788164615833553400,12.360553466796874,-0.015124999918043613,0.2899875044822693,-0.14066250622272491
1788164615843647500,12.3706474609375,0.011687500402331352,0.426800012588501,-0.20418749749660492
1788164615853726000,12.380725830078125,0.031212499365210533,0.4646124839782715,-0.20418749749660492
1788164615863818000,12.39081787109375,0.03739999979734421,0.37908750772476196,-0.11013749986886978
1788164615873899800,12.400899658203125,0.05197500064969063,0.28751251101493835,0.0424874983727932
1788164615883995400,12.410995361328125,0.07397499680519104,0.1849374920129776,0.20996250212192535
1788164615894083300,12.421083251953124,0.08744999766349792,0.12017499655485153,0.3198249936103821
1788164615904173000,12.431173095703125,0.08868750184774399,-0.0056374999694526196,0.33701249957084656
1788164615914259000,12.441259033203124,0.09116250276565552,-0.15234999358654022,0.29782500863075256
1788164615924357400,12.451357421875,0.08992499858140945,-0.24639999866485596,0.19277499616146088
1788164615934438000,12.46143798828125,0.06173750013113022,-0.2732124924659729,0.10848750174045563
1788164615944519400,12.47151953125,0.015399999916553497,-0.21216249465942383,0.02914999984204769
1788164615954604000,12.48160400390625,-0.05431250110268593,-0.0668250024318695,-0.06737499684095383
1788164615964694500,12.491694580078125,-0.10188750177621841,0.2287999987602234,-0.09790000319480896
1788164615974781000,12.501781005859375,-0.12759999930858612,0.5318499803543091,-0.1358499974012375
1788164615984866600,12.511866455078126,-0.10683749616146088,0.7004249691963196,-0.21642500162124634
1788164615994939600,12.521939697265625,-0.07631249725818634,0.7028999924659729,-0.25671249628067017
1788164616005031400,12.532031494140625,-0.06159999966621399,0.5636125206947327,-0.25189998745918274
1788164616015112000,12.54211181640625,-0.02736249938607216,0.42803749442100525,-0.15166249871253967
1788164616025204000,12.552203857421874,-0.018837500363588333,0.17627499997615814,0.009487500414252281
1788164616035289000,12.5622890625,-0.03712499886751175,-0.10216250270605087,0.14396250247955322
1788164616045380400,12.57238037109375,-0.0775500014424324,-0.3636874854564667,0.2307250052690506
1788164616055464400,12.58246435546875,-0.11659999936819077,-0.5970249772071838,0.27101248502731323
1788164616065556000,12.592555908203124,-0.14836250245571136,-0.6080250144004822,0.21848750114440918
1788164616075644700,12.602644775390624,-0.17036250233650208,-0.5908374786376953,0.09267500042915344
1788164616085732400,12.612732421875,-0.16788749396800995,-0.3881624937057495,-0.04908749833703041
1788164616095825700,12.62282568359375,-0.11659999936819077,0.16417500376701355,-0.052799999713897705
1788164616105915100,12.6329150390625,-0.09941250085830688,0.6466624736785889,0.04496249929070473
1788164616116008400,12.643008544921875,-0.09459999948740005,0.7688999772071838,0.11577499657869339
1788164616126098200,12.65309814453125,-0.09212499856948853,0.6736124753952026,0.12443749606609344
1788164616136182300,12.663182373046874,-0.08236250281333923,0.45608749985694885,0.02667500078678131
1788164616146274600,12.673274658203125,-0.06888750195503235,0.17270000278949738,-0.08937499672174454
1788164616156349700,12.683349609375,-0.026124998927116394,0.01746249943971634,-0.12361250072717667
1788164616166436000,12.69343603515625,-0.009074999950826168,-0.19511249661445618,-0.04908749833703041
1788164616176516000,12.70351611328125,-0.018837500363588333,-0.2891624867916107,0.05719999969005585
1788164616186601500,12.7136015625,-0.021312499418854713,-0.1498750001192093,0.17572499811649323
1788164616196697600,12.723697509765625,-0.02983750030398369,-0.030112499371170998,0.227012500166893
1788164616206780400,12.733780517578126,-0.045787498354911804,0.045649997889995575,0.1671999990940094
1788164616216872200,12.7438720703125,-0.03231250122189522,0.2264624983072281,0.040150001645088196
