time,seconds_elapsed,z,y,x
1788164788761190000,0.14718994140625,-0.6043829917907715,-0.175245001912117,-1.0518139600753784
1788164788771292200,0.157292236328125,-0.9893530011177063,-0.4295499920845032,-1.239603042602539
1788164788781386200,0.16738623046875,-1.1186439990997314,-0.7651979923248291,-1.9456820487976074
1788164788791462000,0.1774619140625,-0.8747509717941284,-0.7780889868736267,-2.8435659408569336
1788164788801547500,0.187547607421875,-0.7340090274810791,-0.3665199875831604,-3.440269947052002
1788164788811636500,0.197636474609375,-0.6517990231513977,-0.0007070000283420086,-3.7157421112060547
1788164788831812000,0.21781201171875,-0.4070110023021698,-0.3314889967441559,-3.8541269302368164
1788164788862091000,0.248091064453125,-0.5966119766235352,-0.44593098759651184,-3.2046759128570557
1788164788872186000,0.25818603515625,-1.2544740438461304,-0.6465820074081421,-2.6820080280303955
1788164788882270000,0.26827001953125,-1.9679290056228638,-0.8746100068092346,-1.9623860120773315
1788164788892358000,0.27835791015625,-2.3724639415740967,-0.9960290193557739,-1.1926120519638062
1788164788902444000,0.288444091796875,-2.327570915222168,-1.1724369525909424,-0.7530829906463623
1788164788912531500,0.298531494140625,-1.8990119695663452,-1.021530032157898,-0.6305369734764099
1788164788932706800,0.318706787109375,-1.3508319854736328,-0.2632859945297241,-0.9878649711608887
1788164788942790000,0.328789794921875,-1.28227698802948,-0.11165399849414825,-0.923334002494812
1788164788952884500,0.338884521484375,-1.3179240226745605,-0.11960799992084503,-0.8928700089454651
1788164788962970000,0.34897021484375,-1.3443130254745483,-0.31635499000549316,-0.42433199286460876
1788164788973056800,0.359056884765625,-1.7009929418563843,-0.8398110270500183,0.29182401299476624
1788164788993231600,0.379231689453125,-1.6037030220031738,-1.1647080183029175,0.8433099985122681
1788164789003317000,0.38931689453125,-1.363204002380371,-1.6528929471969604,0.44513699412345886
1788164789023492600,0.40949267578125,0.17049700021743774,-1.2985199689865112,0.38590899109840393
1788164789033581800,0.419581787109375,0.6268889904022217,-1.0910860300064087,0.6295740008354187
1788164789043659300,0.4296591796875,0.5020650029182434,-0.9140049815177917,0.4524979889392853
1788164789053754600,0.439754638671875,0.3129909932613373,-0.7350350022315979,0.12135899811983109
1788164789063843300,0.44984326171875,0.08890599757432938,-0.8596969842910767,0.009696000255644321
1788164789073932000,0.45993212890625,-1.3538479804992676,-2.0678820610046387,0.5399720072746277
1788164789084017000,0.470016845703125,0.2685900032520294,-1.4808640480041504,1.2977080345153809
1788164789094102000,0.48010205078125,-0.40653499960899353,-1.8846869468688965,2.5715179443359375
1788164789104203300,0.490203369140625,-0.7550989985466003,-2.4865028858184814,2.7232449054718018
1788164789114288600,0.50028857421875,-1.739758014678955,-2.846374988555908,2.929853916168213
1788164789124377000,0.510377197265625,-2.400852918624878,-2.7701170444488525,2.3896241188049316
1788164789134468000,0.520468017578125,-1.256430983543396,-1.9210350513458252,0.9903889894485474
1788164789144559400,0.530559326171875,-0.7917190194129944,-1.0231139659881592,0.9269009828567505
1788164789154649900,0.54064990234375,-1.3184490203857422,-0.9379130005836487,1.2222169637680054
1788164789164738000,0.550738037109375,-1.6811180114746094,-0.9320369958877563,1.6787320375442505
1788164789174827800,0.560827880859375,-1.55635404586792,-1.0036499500274658,2.1557540893554688
1788164789184909300,0.570909423828125,-0.32295700907707214,-0.6732929944992065,0.7053290009498596
1788164789194999800,0.580999755859375,-1.227504014968872,-1.9348989725112915,2.2692461013793945
1788164789205080000,0.591080078125,-0.7317519783973694,-2.860888957977295,3.458185911178589
1788164789215171600,0.601171630859375,-1.0604259967803955,-4.006265163421631,4.067897796630859
1788164789225259500,0.611259521484375,-1.1165310144424438,-4.182488918304443,3.505620002746582
1788164789235347200,0.62134716796875,-1.2464900016784668,-3.5885090827941895,2.43731689453125
1788164789245433000,0.63143310546875,-0.06023000180721283,-3.0215001106262207,0.8815810084342957
1788164789255526100,0.641526123046875,2.0369579792022705,-2.3877599239349365,-0.6308550238609314
1788164789265611500,0.651611572265625,3.4356369972229004,-1.8865419626235962,-1.6055699586868286
1788164789275700500,0.661700439453125,3.8032779693603516,-1.9641430377960205,-1.6536569595336914
1788164789285786600,0.67178662109375,3.14148211479187,-1.629202961921692,0.9887019991874695
1788164789295888600,0.681888671875,2.40344500541687,-1.832716941833496,1.36456298828125
1788164789305984800,0.69198486328125,1.8391599655151367,-1.3530360460281372,0.06317999958992004
1788164789316079600,0.70207958984375,3.4457180500030518,-0.3314779996871948,-1.2032049894332886
1788164789326164200,0.712164306640625,5.2375569343566895,0.16927999258041382,-2.6908299922943115
1788164789336256500,0.722256591796875,5.82112979888916,0.7426789999008179,-3.0015130043029785
1788164789346351000,0.73235107421875,5.670223236083984,1.3186229467391968,-2.5840179920196533
1788164789356435500,0.742435546875,4.692710876464844,1.6550439596176147,-3.3159608840942383
1788164789366527000,0.75252685546875,3.7746269702911377,2.1669869422912598,-4.180181980133057
1788164789376610300,0.7626103515625,4.138289928436279,2.5057570934295654,-4.3564372062683105
1788164789386700800,0.77270068359375,4.575636863708496,2.394037961959839,-4.053876876831055
1788164789396780500,0.782780517578125,4.511935234069824,2.7771430015563965,-3.9893479347229004
1788164789406871300,0.792871337890625,3.514230966567993,3.4434750080108643,-4.257167816162109
1788164789416965000,0.802965087890625,1.4226219654083252,3.4407689571380615,-4.868224143981934
1788164789427059200,0.81305908203125,0.6979100108146667,4.046505928039551,-4.925858020782471
1788164789437147400,0.8231474609375,1.0718669891357422,4.828845024108887,-5.345643043518066
1788164789447243500,0.833243408203125,1.224848985671997,5.127608776092529,-5.348671913146973
1788164789457331500,0.84333154296875,1.0083359479904175,4.956501007080078,-4.914277076721191
1788164789467424800,0.8534248046875,0.4635330140590668,4.422637939453125,-4.29061222076416
1788164789477512700,0.8635126953125,0.8496860265731812,3.1833560466766357,-2.6990320682525635
1788164789487598600,0.8735986328125,0.7747319936752319,3.3865649700164795,-1.9559669494628906
1788164789497690000,0.883690185546875,0.001183000043965876,4.918725967407227,-2.238961935043335
1788164789507784700,0.89378466796875,-0.6781880259513855,5.226578235626221,-2.691309928894043
1788164789517870000,0.9038701171875,-1.0685579776763916,4.596724033355713,-3.1154119968414307
1788164789527958800,0.913958740234375,-2.289741039276123,2.2778799533843994,-3.2349679470062256
1788164789538047200,0.924047119140625,-1.7124170064926147,0.7936800122261047,-3.806886911392212
1788164789548134400,0.934134521484375,-1.0923570394515991,2.054069995880127,0.6362130045890808
1788164789558211300,0.94421142578125,-1.3399039506912231,2.280829906463623,-0.0845939964056015
1788164789568304600,0.9543046875,-2.490678071975708,2.404884099960327,-0.9755560159683228
1788164789578399200,0.964399169921875,-2.508992910385132,1.75252103805542,0.1752929985523224
1788164789588493000,0.9744931640625,-3.8256781101226807,1.215857982635498,0.11955799907445908
1788164789598601700,0.984601806640625,-2.2761569023132324,1.2035319805145264,0.557682991027832
1788164789608688400,0.9946884765625,-1.9757779836654663,0.18040400743484497,0.44928398728370667
1788164789618772200,1.004772216796875,-2.8190860748291016,0.7112950086593628,-0.49870699644088745
1788164789628862000,1.014862060546875,-2.9573099613189697,1.4269390106201172,-0.6377530097961426
1788164789638954800,1.024954833984375,-3.5003209114074707,2.141688108444214,1.6545929908752441
1788164789649049600,1.035049560546875,-2.4588921070098877,-1.548799991607666,-0.5859689712524414
1788164789659135200,1.04513525390625,-0.9835559725761414,-0.9233530163764954,0.30183500051498413
1788164789669222400,1.055222412109375,-1.2892260551452637,0.28131699562072754,-0.36508598923683167
1788164789679307500,1.0653076171875,-1.5473430156707764,0.8929910063743591,-2.233027935028076
1788164789689393400,1.075393310546875,-0.6411569714546204,1.6951630115509033,-1.675246000289917
1788164789699475500,1.085475341796875,-0.009882999584078789,0.40856701135635376,-1.705265998840332
1788164789709566500,1.09556640625,1.226248025894165,-0.855862021446228,-0.45037901401519775
1788164789719643100,1.10564306640625,2.208275079727173,-2.132996082305908,0.4410499930381775
1788164789729732600,1.115732666015625,2.3996710777282715,-2.515803098678589,0.4281330108642578
1788164789739821000,1.125821044921875,1.8234729766845703,-2.4989829063415527,0.6324560046195984
1788164789749911300,1.135911376953125,0.7360479831695557,-2.180840015411377,0.7240269780158997
1788164789759985200,1.145985107421875,0.564283013343811,-1.766867995262146,0.6345289945602417
1788164789770076400,1.156076416015625,0.8848509788513184,-1.50832200050354,0.7346659898757935
1788164789780160000,1.166159912109375,0.4296639859676361,-1.5248149633407593,1.3204350471496582
1788164789790259500,1.176259521484375,0.0012509999796748161,-1.206699013710022,1.443585991859436
1788164789800344300,1.18634423828125,-0.6000360250473022,-0.7938529849052429,0.9471449851989746
1788164789810439700,1.196439697265625,-0.29200199246406555,-0.10689499974250793,0.4546689987182617
1788164789820520400,1.2065205078125,0.37950599193573,-0.17587600648403168,0.6424090266227722
1788164789830610700,1.216610595703125,1.0742050409317017,-0.48155999183654785,0.42398300766944885
1788164789840691000,1.22669091796875,1.4007110595703125,-0.10941000282764435,-0.2921440005302429
1788164789850781200,1.23678125,0.8485640287399292,0.9342929720878601,-2.0761220455169678
1788164789860867600,1.24686767578125,0.5021169781684875,2.0762269496917725,-2.158489942550659
1788164789870960600,1.256960693359375,-0.049858998507261276,2.0305590629577637,-2.270172119140625
1788164789881039000,1.2670390625,-0.11907800287008286,2.2238869667053223,-2.370965003967285
1788164789891134000,1.277134033203125,0.13910600543022156,2.2481260299682617,-2.1646931171417236
1788164789901215200,1.28721533203125,1.4795279502868652,2.218031883239746,-3.6382269859313965
1788164789911310600,1.297310546875,3.3618669509887695,3.150048017501831,-5.161308765411377
1788164789921399300,1.3073994140625,2.518048048019409,3.72845196723938,-4.386658191680908
1788164789931487000,1.317487060546875,0.391184002161026,3.2392590045928955,-2.735917091369629
1788164789941574100,1.32757421875,-2.3227028846740723,1.5367720127105713,-0.689860999584198
1788164789951670300,1.337670166015625,-1.9333900213241577,2.6635138988494873,-0.9371150135993958
1788164789961753000,1.347753173828125,-0.31162598729133606,3.564769983291626,-1.8647520542144775
1788164789971844400,1.35784423828125,0.4924199879169464,2.646294116973877,-1.5515429973602295
1788164789981923600,1.367923583984375,0.3804289996623993,1.7396329641342163,-0.4060100018978119
1788164789992015400,1.378015380859375,0.23021599650382996,1.1710619926452637,1.467782974243164
1788164790002100000,1.388099853515625,0.29690900444984436,0.403872013092041,2.7475199699401855
1788164790012190200,1.398190185546875,0.4096750020980835,0.2657960057258606,3.5468409061431885
1788164790022280200,1.4082802734375,0.4303379952907562,0.4385479986667633,3.5249030590057373
1788164790032371000,1.418370849609375,-0.6363720297813416,1.1703170537948608,4.45987606048584
1788164790042457300,1.428457275390625,-2.8524580001831055,1.7845070362091064,4.0215559005737305
1788164790052543000,1.43854296875,-4.428178787231445,1.0134090185165405,3.6803810596466064
1788164790062630400,1.44863037109375,-5.4440131187438965,1.25655996799469,3.8087220191955566
1788164790072720400,1.458720458984375,-5.045942783355713,0.18430399894714355,2.9388809204101562
1788164790082804000,1.468803955078125,-3.0095510482788086,-1.268928050994873,5.035295009613037
1788164790092900900,1.47890087890625,-3.33683705329895,-2.2933340072631836,6.1008758544921875
1788164790102982700,1.488982666015625,-2.486121892929077,-3.494468927383423,6.203581809997559
1788164790113073700,1.49907373046875,-0.7266070246696472,-3.914803981781006,5.611104965209961
1788164790123152100,1.509152099609375,-1.402629017829895,-4.329895973205566,4.3896708488464355
1788164790133248500,1.51924853515625,0.3204379975795746,-4.546408176422119,4.0570387840271
1788164790143334700,1.529334716796875,1.1314040422439575,-4.0691070556640625,2.559114933013916
1788164790153418500,1.53941845703125,2.344266891479492,-4.3081231117248535,-1.5240659713745117
1788164790163508000,1.549508056640625,2.67562198638916,-3.5625228881835938,-5.082831859588623
1788164790173601000,1.55960107421875,1.294739007949829,-4.381402969360352,-8.410358428955078
1788164790183680800,1.5696806640625,1.8463579416275024,-5.631833076477051,-8.433236122131348
1788164790193770000,1.57977001953125,3.6096420288085938,-5.672673225402832,-6.368006229400635
1788164790203856100,1.589856201171875,4.024980068206787,-4.658316135406494,-4.462634086608887
1788164790213951500,1.599951416015625,3.65712308883667,-2.7584569454193115,-4.451355934143066
1788164790224036600,1.61003662109375,2.4050450325012207,-1.2648869752883911,-3.6577980518341064
1788164790234124800,1.620124755859375,2.4353840351104736,0.32192501425743103,-2.8733949661254883
1788164790244214000,1.630214111328125,1.9533950090408325,0.6358320116996765,-1.0524070262908936
1788164790254297000,1.640297119140625,1.5276219844818115,0.5615350008010864,-0.7628009915351868
1788164790264383000,1.650383056640625,-1.051650047302246,0.7465429902076721,-2.109829902648926
1788164790274503700,1.660503662109375,-2.7229061126708984,0.5355749726295471,-3.8533101081848145
1788164790284588300,1.67058837890625,-2.4347920417785645,-0.6050519943237305,-4.367753982543945
1788164790294679600,1.680679443359375,-1.1707550287246704,-1.5060739517211914,-4.174106121063232
1788164790304766700,1.6907666015625,0.2988319993019104,-0.1371929943561554,-3.088408946990967
1788164790314850000,1.70085009765625,2.318535089492798,-0.09509699791669846,-0.8361350297927856
1788164790324929800,1.7109296875,3.3673999309539795,-1.0430439710617065,1.5201799869537354
1788164790335023900,1.72102392578125,3.0448920726776123,-1.8035930395126343,3.169840097427368
1788164790345106400,1.7311064453125,1.7683360576629639,-2.523444890975952,4.138670921325684
1788164790355197000,1.741197021484375,0.09349499642848969,-2.41369891166687,4.274901866912842
1788164790365285400,1.751285400390625,0.5998759865760803,-1.6331449747085571,3.8332910537719727
1788164790375378400,1.76137841796875,2.3358240127563477,-1.9076579809188843,3.4521729946136475
1788164790385458000,1.7714580078125,3.8881349563598633,-2.8708078861236572,3.0494730472564697
1788164790395551200,1.78155126953125,4.74864387512207,-2.5291879177093506,2.920258045196533
1788164790405638000,1.791637939453125,4.200048923492432,-2.068742036819458,3.1825621128082275
1788164790415730000,1.80172998046875,-4.245725154876709,-0.6991180181503296,0.43519899249076843
1788164790425813200,1.811813232421875,-13.845256805419922,1.379472017288208,-3.5759549140930176
1788164790435908000,1.821908203125,-10.398319244384766,1.7414649724960327,-3.1728498935699463
1788164790445996800,1.831996826171875,-4.196570873260498,1.306607961654663,-0.7111070156097412
1788164790456098800,1.842098876953125,0.9839860200881958,0.012267000041902065,0.974776029586792
1788164790466184400,1.852184326171875,7.950940132141113,-0.3625189960002899,1.5815110206604004
1788164790476273700,1.862273681640625,4.142006874084473,0.3764140009880066,1.3558030128479004
1788164790486369500,1.87236962890625,1.0185250043869019,2.8114569187164307,-1.26636803150177
1788164790496457700,1.882457763671875,-2.084662914276123,3.8356270790100098,-1.6889640092849731
1788164790506543000,1.892543212890625,-1.1447670459747314,6.159755229949951,-2.8785359859466553
1788164790516629800,1.902629638671875,-0.20094400644302368,7.452484130859375,-3.680382013320923
1788164790526715100,1.912715087890625,-2.4937970638275146,7.963654041290283,-4.734500885009766
1788164790536802600,1.922802490234375,-3.193416118621826,5.73121976852417,-3.757711887359619
1788164790546893800,1.932893798828125,-3.732438087463379,2.4859108924865723,-1.4658340215682983
1788164790556982500,1.942982421875,0.09359099715948105,2.4341111183166504,0.746254026889801
1788164790567073300,1.9530732421875,-4.033616065979004,3.653165102005005,0.7814019918441772
1788164790577162200,1.963162353515625,-6.160076141357422,4.601499080657959,1.3891509771347046
1788164790587254300,1.973254150390625,-2.615557909011841,4.50117301940918,4.8429341316223145
1788164790597350100,1.98335009765625,-2.146451950073242,4.658584117889404,5.925095081329346
1788164790607440400,1.9934404296875,-3.790678024291992,5.127224922180176,3.3482940196990967
1788164790617527800,2.00352783203125,-3.7325949668884277,4.1254119873046875,0.22860600054264069
1788164790627618600,2.01361865234375,-1.825821042060852,2.523772954940796,-2.7094900608062744
1788164790637706500,2.02370654296875,0.18388999998569489,1.5620319843292236,-3.401963949203491
1788164790647791600,2.03379150390625,2.0638010501861572,1.364801049232483,-3.538925886154175
1788164790657874000,2.0438740234375,3.5753629207611084,-0.2181120067834854,-2.897157907485962
1788164790667966500,2.053966552734375,3.9862959384918213,-3.238152027130127,-3.486931085586548
1788164790678049300,2.06404931640625,4.466970920562744,-3.2767961025238037,-3.1414220333099365
1788164790688139300,2.07413916015625,5.530354022979736,-2.5505449771881104,-0.9727810025215149
1788164790698227200,2.084227294921875,5.260243892669678,-1.0736310482025146,-1.0644370317459106
1788164790708320500,2.094320556640625,5.615145206451416,-0.7478730082511902,-1.7904809713363647
1788164790718405000,2.104405029296875,6.041469097137451,-0.3944149911403656,-2.0591089725494385
1788164790728485600,2.114485595703125,5.2807769775390625,-0.1118599995970726,-2.8987419605255127
1788164790738564000,2.124564208984375,2.5645530223846436,0.38080400228500366,-3.818276882171631
1788164790748649200,2.134649169921875,0.7804989814758301,0.1372849941253662,-3.9457991123199463
1788164790758733300,2.1447333984375,0.8007609844207764,-1.1092770099639893,-3.4324610233306885
1788164790768818700,2.154818603515625,0.49931100010871887,-3.1735761165618896,-1.7650749683380127
1788164790778894600,2.16489453125,0.02015399932861328,-5.254654884338379,-0.30104801058769226
1788164790788978000,2.17497802734375,-0.3984149992465973,-6.494124889373779,0.2808130085468292
1788164790799059000,2.185058837890625,0.9432709813117981,-6.190080165863037,0.2900629937648773
1788164790809155800,2.19515576171875,1.8449610471725464,-5.602402210235596,0.8440430164337158
1788164790819241500,2.205241455078125,2.675908088684082,-4.770854949951172,1.155817985534668
1788164790829328400,2.215328369140625,2.09689998626709,-3.9167110919952393,1.201712965965271
1788164790839417000,2.2254169921875,1.2362159490585327,-2.8537309169769287,1.3361049890518188
1788164790849502200,2.235502197265625,-6.4161601066589355,-1.2435729503631592,2.413662910461426
1788164790859581200,2.245581298828125,-8.871664047241211,0.6562790274620056,1.8052209615707397
1788164790869669600,2.255669677734375,-7.304801940917969,0.804843008518219,1.3121099472045898
1788164790879752000,2.265751953125,-4.199048042297363,0.24305100739002228,1.4594990015029907
1788164790889844700,2.2758447265625,-1.8436830043792725,-0.488178014755249,2.3043720722198486
1788164790899927600,2.285927490234375,-0.5031669735908508,-1.0571650266647339,2.989201068878174
1788164790910017800,2.296017822265625,-0.86598801612854,0.3269830048084259,4.478598117828369
1788164790920105500,2.30610546875,-0.3350900113582611,-0.2792060077190399,2.179079055786133
1788164790930187500,2.3161875,-0.8401740193367004,1.276149034500122,1.970376968383789
1788164790940273400,2.3262734375,0.18535000085830688,0.4102430045604706,-1.4935059547424316
1788164790950367200,2.3363671875,-0.7919089794158936,-0.5776180028915405,-2.59940505027771
1788164790960467500,2.346467529296875,-2.432687997817993,0.06756199896335602,-2.370266914367676
1788164790970556200,2.35655615234375,-2.3380329608917236,0.7872790098190308,-1.2673989534378052
1788164790980673800,2.366673828125,-0.5023990273475647,2.2280330657958984,-1.1159909963607788
1788164790990766800,2.376766845703125,1.3422600030899048,3.4119670391082764,-1.030094027519226
1788164791000849000,2.386848876953125,2.7283010482788086,3.980247974395752,-2.459346055984497
1788164791010938000,2.396938232421875,2.0194809436798096,2.480787992477417,-2.3626620769500732
1788164791021024500,2.4070244140625,0.9396330118179321,0.428070992231369,-2.0353269577026367
1788164791031116500,2.417116455078125,0.5365980267524719,-0.11074600368738174,-2.14041805267334
1788164791041195500,2.427195556640625,0.8804739713668823,-0.6432979702949524,-1.8646739721298218
1788164791051283000,2.437282958984375,-0.45679301023483276,-0.16596199572086334,0.9295669794082642
1788164791061372400,2.447372314453125,1.3761719465255737,2.834146022796631,3.125235080718994
1788164791071465200,2.45746533203125,0.7279509902000427,3.7298269271850586,4.198314189910889
1788164791081545000,2.467544921875,-1.540840983390808,2.3425960540771484,4.299116134643555
1788164791091636000,2.477635986328125,-4.595298767089844,2.460477113723755,3.3793249130249023
1788164791101722400,2.487722412109375,-4.830864906311035,3.084671974182129,1.7241580486297607
1788164791111815400,2.4978154296875,-3.663604974746704,2.317965030670166,1.6375290155410767
1788164791121900300,2.507900390625,-2.6091411113739014,2.735076904296875,0.6355389952659607
1788164791131999000,2.5179990234375,-1.8323169946670532,2.1528871059417725,1.049767017364502
1788164791142087400,2.52808740234375,-2.2731399536132812,-0.35602501034736633,3.543297052383423
1788164791152177000,2.538177001953125,-2.4252490997314453,-0.49642500281333923,4.522715091705322
1788164791162267000,2.548266845703125,-1.8427159786224365,-0.033031001687049866,4.651678085327148
1788164791172359700,2.558359619140625,-1.3775229454040527,0.1639229953289032,4.466174125671387
1788164791182446000,2.568446044921875,-1.723667025566101,0.0997529998421669,3.988647937774658
1788164791192532200,2.5785322265625,-2.01127290725708,-1.1553620100021362,4.187682151794434
1788164791202615300,2.588615234375,-0.11618199944496155,-1.7820930480957031,5.099767208099365
1788164791212701000,2.598700927734375,2.0132579803466797,-4.108825206756592,1.265671968460083
1788164791222790400,2.608790283203125,1.8789650201797485,-4.259530067443848,-1.3520660400390625
1788164791232881700,2.618881591796875,2.66477108001709,-3.0016050338745117,-4.506656169891357
1788164791242964200,2.628964111328125,4.121140003204346,-0.7739109992980957,-5.180523872375488
1788164791253054700,2.6390546875,5.367416858673096,0.8780109882354736,-3.8312690258026123
1788164791263147800,2.649147705078125,5.0857110023498535,-1.2946640253067017,-0.9959920048713684
1788164791273233200,2.659233154296875,4.769710063934326,-1.0885289907455444,0.033153001219034195
1788164791283322000,2.669322021484375,2.8059120178222656,-0.6156989932060242,0.7050939798355103
1788164791293407500,2.679407470703125,-0.4889880120754242,1.8749829530715942,-0.27523601055145264
1788164791303499500,2.68949951171875,-3.4988629817962646,2.208127021789551,-2.8785619735717773
1788164791313582800,2.699582763671875,-2.6735999584198,-0.1378529965877533,-8.500404357910156
1788164791323666700,2.709666748046875,-3.735914945602417,-3.6045780181884766,-10.827630996704102
1788164791333754600,2.719754638671875,-1.12568199634552,-3.667642116546631,-5.728322982788086
1788164791343832600,2.72983251953125,1.63931405544281,-3.408540964126587,-2.6280810832977295
1788164791353923000,2.739923095703125,0.9569939970970154,-0.9508860111236572,0.9972839951515198
1788164791364008000,2.750008056640625,-2.0789129734039307,-1.277696967124939,-0.18632900714874268
1788164791374091300,2.76009130859375,-3.082581043243408,-0.6074540019035339,-1.640637993812561
1788164791384179200,2.77017919921875,-3.3701610565185547,-0.7417140007019043,-1.0140639543533325
1788164791394271000,2.78027099609375,-2.621735095977783,-0.7178099751472473,-0.06917600333690643
1788164791404357400,2.790357421875,-1.0938470363616943,-1.0081950426101685,0.44329699873924255
1788164791414443300,2.800443359375,-0.8560230135917664,-1.8410429954528809,1.3809880018234253
1788164791424531000,2.810531005859375,-0.6786800026893616,-2.800755023956299,2.399545907974243
1788164791434621400,2.820621337890625,-0.5182769894599915,-3.0068199634552,2.4354469776153564
1788164791444708600,2.83070849609375,0.056866999715566635,-2.1656041145324707,1.3644859790802002
1788164791454803500,2.840803466796875,0.9539890289306641,-1.1121759414672852,0.2811860144138336
1788164791464884500,2.850884521484375,0.1348389983177185,-0.400162011384964,0.4493759870529175
1788164791474976300,2.860976318359375,-0.19396500289440155,-0.05697600170969963,0.6006739735603333
1788164791485056000,2.871055908203125,-0.08803299814462662,-0.4432379901409149,0.23565299808979034
1788164791495145200,2.881145263671875,-0.8599770069122314,-1.570462942123413,-0.26076701283454895
1788164791505230800,2.89123095703125,-0.08738899976015091,-1.1670889854431152,-1.7809319496154785
1788164791515326000,2.901325927734375,-0.07419399917125702,-0.7705789804458618,-2.9058289527893066
1788164791525412000,2.911412109375,0.6818699836730957,-0.1458750069141388,-3.253074884414673
1788164791535505200,2.921505126953125,0.24825799465179443,1.9846220016479492,-2.031301975250244
1788164791545589500,2.931589599609375,-0.6232939958572388,3.0507209300994873,-0.7856990098953247
1788164791555681000,2.941680908203125,0.3519209921360016,4.5034098625183105,-0.7140070199966431
1788164791565768400,2.9517685546875,-1.7981610298156738,4.959659099578857,0.2061070054769516
1788164791575854800,2.961854736328125,-2.119765043258667,3.73490309715271,1.5372949838638306
1788164791585943000,2.971943115234375,-1.744150996208191,2.36924409866333,1.6083810329437256
1788164791596038400,2.982038330078125,-0.850521981716156,2.0611400604248047,0.024429000914096832
1788164791606120000,2.992119873046875,-0.12342199683189392,2.2226080894470215,-1.158107042312622
1788164791616211500,3.00221142578125,-0.16567300260066986,2.6575520038604736,-1.7728650569915771
1788164791626308000,3.01230810546875,-0.412088006734848,2.401434898376465,-1.8561300039291382
1788164791636396300,3.022396240234375,-1.0978319644927979,3.1287479400634766,-2.158674955368042
1788164791646493400,3.032493408203125,-0.291471004486084,2.541224956512451,-1.4054609537124634
1788164791656575500,3.042575439453125,-0.30044201016426086,2.932948112487793,-1.923050045967102
1788164791666665000,3.0526650390625,1.3091729879379272,4.268293857574463,-2.526352882385254
1788164791676749000,3.0627490234375,-0.5339319705963135,6.493441104888916,0.4241200089454651
1788164791686840300,3.07284033203125,0.09362500160932541,4.87782096862793,3.604559898376465
1788164791696927200,3.08292724609375,2.44809889793396,1.5803190469741821,5.989738941192627
1788164791707016000,3.093015869140625,3.4048850536346436,-0.33458301424980164,6.287096977233887
1788164791717101600,3.1031015625,3.227632999420166,-3.1370139122009277,3.8359010219573975
1788164791727187000,3.11318701171875,3.0994300842285156,-1.43326997756958,-1.6417219638824463
1788164791737277700,3.123277587890625,0.5270439982414246,-0.2587670087814331,-3.2887909412384033
1788164791747368400,3.133368408203125,-0.01666400022804737,-3.0306739807128906,-0.8752120137214661
1788164791757455600,3.14345556640625,-1.5505239963531494,-1.5076340436935425,0.03803599998354912
1788164791767544800,3.153544921875,-2.2029459476470947,-1.284693956375122,1.5509610176086426
1788164791777628200,3.163628173828125,-1.083770990371704,-2.3168540000915527,0.6937170028686523
1788164791787714000,3.173714111328125,0.10479199886322021,1.2308239936828613,-0.506708025932312
1788164791797800000,3.183800048828125,-0.5295330286026001,6.479269981384277,-2.6434109210968018
1788164791807890000,3.193889892578125,2.3657009601593018,3.458169937133789,-1.4683879613876343
1788164791817967400,3.20396728515625,10.538368225097656,0.033225998282432556,-1.1304270029067993
1788164791828066600,3.214066650390625,6.956930160522461,-3.8298070430755615,3.19114089012146
1788164791838152200,3.224152099609375,-13.754823684692383,-7.67443323135376,3.904917001724243
1788164791848242700,3.23424267578125,-10.153205871582031,-1.5948779582977295,-0.6896100044250488
1788164791858349300,3.244349365234375,-1.2565820217132568,-4.084517955780029,0.12939399480819702
1788164791868433200,3.25443310546875,2.367403030395508,-4.861371040344238,-0.2051600068807602
1788164791878512600,3.2645126953125,1.6847059726715088,-4.111763000488281,-1.0305310487747192
1788164791888599800,3.274599853515625,0.39992401003837585,-3.27070689201355,-0.5223910212516785
1788164791898680300,3.284680419921875,-0.8486189842224121,-2.1743290424346924,-0.2602980136871338
1788164791908773000,3.294773193359375,-0.7157989740371704,-1.6626909971237183,0.23492200672626495
1788164791918866200,3.3048662109375,-0.44221198558807373,-1.3585530519485474,0.19708900153636932
1788164791939043800,3.3250439453125,0.30401599407196045,-0.7236530184745789,0.5474089980125427
1788164791949128700,3.335128662109375,0.29924601316452026,0.06787300109863281,0.0982389971613884
1788164791959198000,3.345197998046875,-0.22571800649166107,0.475257009267807,0.13458499312400818
1788164791969294800,3.355294921875,-0.32776200771331787,0.11304599791765213,0.14236700534820557
1788164791979380200,3.365380126953125,-0.5275400280952454,-1.4078240394592285,0.09002599865198135
1788164791989468400,3.375468505859375,-0.23388999700546265,-2.5161750316619873,-0.35036200284957886
1788164791999543300,3.385543212890625,0.14298799633979797,-3.8213698863983154,-0.327908992767334
1788164792009625000,3.395625,0.1446390002965927,-3.7914791107177734,-0.47065699100494385
1788164792019711000,3.4057109375,-1.1599010229110718,-6.541121959686279,-1.501376986503601
1788164792029796000,3.415796142578125,-1.9961780309677124,-0.27837198972702026,-8.617661476135254
1788164792039887400,3.425887451171875,3.7846949100494385,1.5552220344543457,-8.587438583374023
1788164792049980400,3.43598046875,-3.5009820461273193,-2.4924609661102295,-1.471506953239441
1788164792060070100,3.446070068359375,-0.742451012134552,-5.586668968200684,0.5023009777069092
1788164792070161400,3.456161376953125,2.819390058517456,-3.449700117111206,-0.3343549966812134
1788164792080243200,3.4662431640625,2.526923894882202,0.31589001417160034,0.47618699073791504
1788164792090339600,3.476339599609375,0.017707999795675278,0.8450829982757568,2.3510260581970215
1788164792100432600,3.4864326171875,0.29190200567245483,1.6058460474014282,3.2214460372924805
1788164792110532600,3.49653271484375,-2.5093140602111816,3.5128118991851807,4.905163764953613
1788164792120618000,3.506617919921875,-1.4737279415130615,2.748745918273926,4.12140417098999
1788164792130705400,3.516705322265625,-1.430145025253296,1.7816590070724487,3.175107955932617
1788164792140792800,3.526792724609375,-0.8305339813232422,1.8763229846954346,2.38002610206604
1788164792150881500,3.536881591796875,-0.15172800421714783,1.9385420083999634,1.4840259552001953
1788164792160962800,3.546962890625,0.9923629760742188,2.1326630115509033,1.396209955215454
1788164792171055600,3.5570556640625,1.8770309686660767,3.1846840381622314,1.4715399742126465
1788164792181145600,3.5671455078125,2.0863089561462402,6.882501125335693,0.17743299901485443
1788164792191233000,3.57723291015625,0.2998969852924347,7.092273235321045,-0.4570179879665375
1788164792201324500,3.587324462890625,-0.35001999139785767,5.0423760414123535,-0.7904499769210815
1788164792211422200,3.597422119140625,-0.2136390060186386,2.454055070877075,-0.11950899660587311
1788164792221507600,3.607507568359375,-0.6330540180206299,1.3480900526046753,0.46192899346351624
1788164792231592200,3.61759228515625,-0.1961210072040558,0.8696619868278503,1.1619470119476318
1788164792241681700,3.627681640625,0.19519999623298645,0.5158169865608215,1.1863470077514648
1788164792261858000,3.647858154296875,-0.010011999867856503,0.11166699975728989,0.4585689902305603
1788164792271948000,3.657947998046875,0.012179999612271786,-0.08437299728393555,0.030685000121593475
1788164792282033000,3.668032958984375,-0.11676900088787079,-0.1932239979505539,-0.34230300784111023
1788164792292119800,3.678119873046875,-0.022283999249339104,-0.1290619969367981,-1.6521350145339966
1788164792302210000,3.6882099609375,0.2653239965438843,0.7747229933738708,-3.1302719116210938
1788164792312293600,3.698293701171875,-1.2932549715042114,4.212975978851318,-3.184370994567871
1788164792322385200,3.70838525390625,-2.1339681148529053,2.9864659309387207,-0.9516649842262268
1788164792332473300,3.718473388671875,-0.8658549785614014,2.6699790954589844,-0.8958849906921387
1788164792342559000,3.72855908203125,-0.32903799414634705,2.773566961288452,-0.899170994758606
1788164792352648000,3.73864794921875,0.6271600127220154,2.9152450561523438,-0.5942620038986206
1788164792362733300,3.7487333984375,0.450765997171402,4.588843822479248,-0.2569110095500946
1788164792372834300,3.758834228515625,1.185349941253662,5.147314071655273,0.6959840059280396
1788164792382952200,3.7689521484375,1.7995680570602417,1.9115890264511108,1.7995610237121582
1788164792393039400,3.779039306640625,0.24909700453281403,-3.7385709285736084,1.8585070371627808
1788164792403128600,3.789128662109375,-0.3821679949760437,-8.418619155883789,1.6279239654541016
1788164792413225200,3.79922509765625,0.1366879940032959,-10.826831817626953,-2.133949041366577
1788164792423318300,3.809318359375,-1.6394720077514648,-9.681404113769531,-7.4017558097839355
1788164792433410800,3.819410888671875,-1.864380955696106,-7.047502040863037,-9.488555908203125
1788164792443522600,3.8295224609375,-1.7584400177001953,-6.042769908905029,-9.66830825805664
1788164792453618200,3.8396181640625,-3.2391068935394287,-6.469328880310059,-7.998660087585449
1788164792463704000,3.8497041015625,-1.9156429767608643,-3.742198944091797,-5.685726165771484
1788164792473796600,3.859796630859375,-0.05160300061106682,-0.899878978729248,-2.2947239875793457
1788164792483895300,3.869895263671875,2.8216710090637207,-1.0806139707565308,2.757427930831909
1788164792504075000,3.890074951171875,7.385362148284912,-1.6970939636230469,9.390645980834961
1788164792514171000,3.9001708984375,8.708342552185059,-2.906809091567993,10.897005081176758
1788164792524253200,3.910253173828125,5.283230781555176,-2.518256902694702,9.895303726196289
1788164792534350800,3.920350830078125,3.3530540466308594,-0.1460849940776825,5.412603855133057
1788164792544435200,3.930435302734375,-1.6182199716567993,2.523732900619507,1.6375540494918823
1788164792554527500,3.940527587890625,-7.751791954040527,4.645809173583984,-0.6859869956970215
1788164792574706200,3.9607060546875,-2.617604970932007,3.4928181171417236,0.936922013759613
1788164792584793900,3.9707939453125,-0.1497509926557541,2.2651779651641846,1.9469540119171143
1788164792594882600,3.980882568359375,0.8517739772796631,1.43846595287323,2.425786018371582
1788164792604971000,3.990970947265625,-2.9034910202026367,3.836059093475342,0.8514379858970642
1788164792615061200,4.001061279296875,-2.3021891117095947,3.4314169883728027,0.5576059818267822
1788164792635230000,4.02122998046875,-0.37619099020957947,1.897974967956543,0.5871700048446655
1788164792645321700,4.03132177734375,0.9439060091972351,1.2485979795455933,-0.20698599517345428
1788164792655412500,4.04141259765625,1.444777011871338,0.7971010208129883,-1.0261950492858887
1788164792665497300,4.051497314453125,1.1605219841003418,0.4135400056838989,-1.678313970565796
1788164792675588000,4.061588134765625,0.819940984249115,-0.2259729951620102,-2.11429500579834
1788164792685671200,4.071671142578125,1.0330820083618164,-0.9083840250968933,-2.4089601039886475
1788164792695764000,4.081763916015625,1.5447989702224731,-1.4868619441986084,-2.6695048809051514
1788164792705883000,4.0918828125,1.5088980197906494,-1.9405490159988403,-2.7000670433044434
1788164792715971300,4.101971435546875,0.622223973274231,-2.3649580478668213,-1.9518020153045654
1788164792726059800,4.112059814453125,-0.007550000213086605,-2.5810670852661133,-1.0248140096664429
1788164792736148000,4.12214794921875,-0.40956199169158936,-2.482232093811035,-0.2528339922428131
1788164792746255400,4.13225537109375,-1.0413769483566284,-2.642573118209839,0.26791998744010925
1788164792756348400,4.142348388671875,-1.3191369771957397,-1.7586259841918945,0.03881800174713135
1788164792766443300,4.152443359375,-0.8609899878501892,-1.2933379411697388,0.1412079930305481
1788164792776534000,4.162533935546875,-0.7484130263328552,-0.8087210059165955,-0.1749590039253235
1788164792786628000,4.172628173828125,-0.47667598724365234,-0.6062359809875488,-0.14449000358581543
1788164792796715800,4.1827158203125,0.03884899988770485,-0.383635014295578,-0.2624090015888214
1788164792806799400,4.19279931640625,0.46322399377822876,-0.30801498889923096,-0.4262320101261139
1788164792816888800,4.202888916015625,0.7922930121421814,-0.2965080142021179,-0.39811500906944275
1788164792826980000,4.21297998046875,0.5883970260620117,-0.232356995344162,-0.3819409906864166
1788164792837071600,4.223071533203125,-0.020100999623537064,-0.4158889949321747,-0.2423900067806244
1788164792847158500,4.233158447265625,0.3137350082397461,0.275411993265152,0.2140119969844818
1788164792857244700,4.24324462890625,0.46597999334335327,0.6923660039901733,0.33883699774742126
1788164792877426000,4.263426025390625,0.13639000058174133,0.25819799304008484,0.45506298542022705
1788164792887510500,4.273510498046875,-0.4067859947681427,0.19739100337028503,0.028084000572562218
1788164792897586700,4.283586669921875,-0.7107660174369812,-0.13600899279117584,-0.3000890016555786
1788164792907677700,4.293677734375,-0.6145690083503723,-0.3581419885158539,-0.31588301062583923
1788164792917773600,4.303773681640625,-0.3933809995651245,-0.27433499693870544,-0.32369598746299744
1788164792927862500,4.313862548828125,0.009343000128865242,-0.10267200320959091,-0.14796200394630432
1788164792937947100,4.323947021484375,0.23103399574756622,0.0384490005671978,-0.0407320000231266
1788164792948036000,4.3340361328125,0.3218500018119812,0.15493500232696533,-0.036111000925302505
1788164792958122000,4.3441220703125,0.47363901138305664,0.0005450000171549618,-0.010919000022113323
1788164792968211700,4.354211669921875,0.522828996181488,-0.273622989654541,0.1532139927148819
1788164792978295300,4.36429541015625,0.25264400243759155,-0.3863910138607025,0.18115299940109253
1788164792988382200,4.37438232421875,0.12584100663661957,-0.39726001024246216,0.22414900362491608
1788164792998460000,4.3844599609375,-0.17850199341773987,-0.2791669964790344,0.10329899936914444
1788164793008543700,4.394543701171875,-0.5849639773368835,-0.3450559973716736,-0.06376300007104874
1788164793018622700,4.404622802734375,-0.770317018032074,-0.32773301005363464,-0.32196900248527527
1788164793028707600,4.41470751953125,-0.06735499948263168,-0.5196220278739929,-0.18359999358654022
1788164793038798600,4.424798583984375,0.2272620052099228,-0.3149169981479645,-0.14866499602794647
1788164793048888600,4.434888671875,0.12217099964618683,-0.21986700594425201,-0.38833001255989075
1788164793069049900,4.4550498046875,0.3928000032901764,-0.10904800146818161,0.33698299527168274
1788164793079125000,4.465125,-0.07748399674892426,0.011975999921560287,0.2321140021085739
1788164793089211000,4.4752109375,-0.4638879895210266,0.15585899353027344,-0.17034299671649933
1788164793099296300,4.485296142578125,-0.3069460093975067,0.24016399681568146,-0.44765201210975647
1788164793109380600,4.495380615234375,0.1918019950389862,0.04341699928045273,-0.2448589950799942
1788164793119469600,4.505469482421875,0.1969510018825531,-0.06721299886703491,-0.023429999127984047
1788164793139641600,4.5256416015625,0.2560630142688751,-0.09971100091934204,0.0563259981572628
1788164793149727000,4.53572705078125,0.15514600276947021,-0.18431299924850464,-0.01423600036650896
1788164793159817500,4.5458173828125,0.02328299917280674,-0.2504889965057373,-0.1466200053691864
1788164793169906700,4.55590673828125,-0.15516600012779236,-0.183011993765831,-0.13878299295902252
1788164793179995100,4.5659951171875,0.021617000922560692,-0.07601399719715118,0.10470899939537048
1788164793190081000,4.5760810546875,0.19591699540615082,-0.21411600708961487,0.40972501039505005
1788164793200165400,4.586165283203125,0.2840610146522522,-0.32344600558280945,0.4889250099658966
1788164793210253800,4.59625390625,-0.05645899847149849,-0.1844159960746765,0.25738999247550964
1788164793220343800,4.60634375,-0.4174309968948364,0.01616699993610382,-0.08410999923944473
1788164793230439000,4.61643896484375,-0.9007290005683899,0.35272499918937683,-0.4685719907283783
1788164793240526300,4.6265263671875,-0.5110870003700256,0.4353480041027069,-0.3790369927883148
1788164793250617300,4.636617431640625,-0.2590309977531433,0.3783310055732727,-0.23484699428081512
1788164793260700200,4.6467001953125,-0.08548399806022644,0.055449001491069794,0.0833669975399971
1788164793270795800,4.656795654296875,-0.06274399906396866,0.1470479965209961,-0.20403200387954712
1788164793280887600,4.666887451171875,-0.143203005194664,-0.0776510015130043,-0.11936900019645691
1788164793290983700,4.676983642578125,0.0003380000125616789,-0.3804450035095215,-0.2487500011920929
1788164793301062700,4.687062744140625,0.21079100668430328,-0.5198330283164978,-0.5914930105209351
1788164793311157000,4.697156982421875,0.527059018611908,-0.11564899981021881,-0.8355039954185486
1788164793321244400,4.707244384765625,0.3546789884567261,0.5771059989929199,-0.7144100069999695
1788164793331332600,4.71733251953125,-0.5050280094146729,0.5926949977874756,-0.492684006690979
1788164793341430300,4.72743017578125,-0.35267698764801025,0.7917360067367554,-0.7216320037841797
1788164793351509000,4.737509033203125,-0.07813599705696106,0.7456510066986084,-0.3159010112285614
1788164793361600500,4.7476005859375,0.09375099837779999,0.7144240140914917,-0.06456799805164337
1788164793371685000,4.75768505859375,0.053318001329898834,0.3421750068664551,-0.039455998688936234
1788164793381770800,4.767770751953125,0.6179119944572449,-0.2665899991989136,0.29258298873901367
1788164793391857200,4.777857177734375,0.7488150000572205,-0.8647729754447937,0.5534740090370178
1788164793401941000,4.78794091796875,-0.11815900355577469,-0.8849549889564514,0.1828249990940094
1788164793412030000,4.798030029296875,-0.8386679887771606,-0.5838990211486816,-0.02282099984586239
1788164793422121700,4.808121826171875,-0.43059900403022766,-0.9644790291786194,0.863090991973877
1788164793432210700,4.818210693359375,-0.28989699482917786,-0.7368969917297363,0.6886630058288574
1788164793442298600,4.828298583984375,0.145346999168396,-0.49594399333000183,0.4585849940776825
1788164793452388900,4.838388916015625,0.013271000236272812,-0.2813529968261719,-0.13112400472164154
1788164793462482000,4.84848193359375,0.6357849836349487,-0.29214099049568176,-0.46278101205825806
1788164793472567800,4.85856787109375,0.28843599557876587,-1.043779969215393,0.3395389914512634
1788164793482664700,4.868664794921875,0.05514699965715408,-0.755495011806488,0.6292009949684143
1788164793492747000,4.8787470703125,0.5080209970474243,0.1089939996600151,0.6750239729881287
1788164793502840800,4.8888408203125,0.06456200033426285,1.2266579866409302,0.4286310076713562
1788164793512928000,4.898927978515625,-0.43081700801849365,1.9968479871749878,-0.13072800636291504
1788164793523020300,4.909020263671875,-0.8910719752311707,1.8727580308914185,-0.22947800159454346
1788164793533117000,4.919116943359375,-0.733165979385376,1.1691139936447144,-0.011691000312566757
1788164793543202300,4.929202392578125,0.18698599934577942,0.5133659839630127,0.30791398882865906
1788164793553293000,4.93929296875,0.5612080097198486,-0.21419300138950348,1.0518989562988281
1788164793563383800,4.9493837890625,0.41354900598526,-0.6826710104942322,0.7849910259246826
1788164793573475300,4.959475341796875,0.5708829760551453,-1.3858920335769653,0.9758840203285217
1788164793583557600,4.9695576171875,0.48561200499534607,-1.6903560161590576,0.17715799808502197
1788164793593642800,4.979642822265625,0.46882298588752747,-1.1143170595169067,-0.8134409785270691
1788164793603732200,4.989732177734375,0.08563800156116486,-0.406468003988266,-1.2004790306091309
1788164793613818400,4.999818359375,0.00749799981713295,-0.04357500001788139,0.05021100118756294
1788164793623905500,5.009905517578125,0.009008999913930893,0.16082000732421875,1.2911310195922852
1788164793633989600,5.01998974609375,0.6761080026626587,0.4645119905471802,1.926326036453247
1788164793644080000,5.030080078125,1.0322049856185913,0.21675999462604523,2.169987916946411
1788164793654167000,5.0401669921875,-1.1974780559539795,0.3868289887905121,0.5403079986572266
1788164793664255700,5.050255859375,-1.4539200067520142,1.7276970148086548,-1.3169180154800415
1788164793674338000,5.060338134765625,-0.8730440139770508,0.5655419826507568,-1.0491509437561035
1788164793684429800,5.070429931640625,1.4536019563674927,0.28412899374961853,-0.7511489987373352
1788164793704607200,5.090607177734375,-0.22730599343776703,0.11650499701499939,-0.05412499979138374
1788164793714696200,5.1006962890625,-0.35422998666763306,4.576981067657471,-4.189667224884033
1788164793724786400,5.110786376953125,-1.520076036453247,-1.2286499738693237,0.7932530045509338
1788164793734876700,5.120876708984375,0.011075999587774277,-0.8835750222206116,-0.5077739953994751
1788164793744977400,5.130977294921875,-0.2710059881210327,-1.0232009887695312,-0.0038389998953789473
1788164793755062800,5.141062744140625,-0.19818900525569916,1.998716950416565,-0.35516801476478577
1788164793765152500,5.151152587890625,-0.42934998869895935,0.17712999880313873,0.8984599709510803
1788164793775238000,5.16123779296875,0.15723800659179688,0.00952799990773201,0.9412189722061157
1788164793785334500,5.17133447265625,-0.1060430034995079,-0.43428298830986023,0.7009829878807068
1788164793795421400,5.18142138671875,-0.11677200347185135,-0.1662209928035736,0.03806300088763237
1788164793805511200,5.19151123046875,-0.8494229912757874,-3.865449905395508,1.0700370073318481
1788164793815595800,5.201595703125,-0.19294899702072144,-6.892195224761963,-0.3891240060329437
1788164793825684200,5.211684326171875,-0.28164899349212646,-5.4085540771484375,-2.1820459365844727
1788164793835776500,5.221776611328125,-0.9219499826431274,-3.353527069091797,-1.4350090026855469
1788164793845870600,5.23187060546875,-0.7579129934310913,-2.598196029663086,-0.6387199759483337
1788164793855956200,5.241956298828125,-0.6507779955863953,-1.4385390281677246,0.13156400620937347
1788164793866046500,5.25204638671875,-0.07545900344848633,-1.371198058128357,1.395264983177185
1788164793876130800,5.262130859375,-0.7905349731445312,-0.5460940003395081,0.6305350065231323
1788164793886223600,5.2722236328125,-0.6238170266151428,0.4709649980068207,-0.6498429775238037
1788164793896317000,5.28231689453125,-0.47288599610328674,2.2492120265960693,-1.877742052078247
1788164793906412800,5.292412841796875,-0.7651950120925903,3.827299118041992,-2.005687952041626
1788164793916500000,5.3025,-1.7613019943237305,2.958909034729004,-0.13902699947357178
1788164793926587100,5.312587158203125,-2.028386116027832,3.033266067504883,-0.09525199979543686
1788164793936678400,5.322678466796875,-0.06895899772644043,4.860674858093262,-1.959630012512207
1788164793946766300,5.332766357421875,0.9055740237236023,5.733884811401367,-2.107125997543335
1788164793956855300,5.342855224609375,3.154850959777832,4.640956878662109,-1.728901982307434
1788164793966955800,5.352955810546875,5.197214126586914,3.7950758934020996,-0.7409560084342957
1788164793977044200,5.363044189453125,4.5302300453186035,2.8194549083709717,0.053902000188827515
1788164793987134700,5.373134765625,2.0235519409179688,1.0204579830169678,0.7125499844551086
1788164793997225000,5.383224853515625,-0.3653630018234253,-1.1008659601211548,1.1499940156936646
1788164794007319600,5.393319580078125,-1.371332049369812,-2.9359800815582275,1.2249629497528076
1788164794017401000,5.403401123046875,-1.9780329465866089,-4.0986409187316895,0.8940690159797668
1788164794027487200,5.4134873046875,-1.6970609426498413,-4.381616115570068,0.6621869802474976
1788164794037568500,5.423568603515625,-1.360105037689209,-3.853821039199829,0.39814499020576477
1788164794047659300,5.4336591796875,-1.1157430410385132,-2.1455090045928955,0.20993800461292267
1788164794057745700,5.44374560546875,-0.9122040271759033,-0.5145519971847534,0.4694570004940033
1788164794067826000,5.453825927734375,-0.6469320058822632,0.5373960137367249,0.6012380123138428
1788164794077913600,5.46391357421875,-0.5200830101966858,1.190919041633606,0.47965800762176514
1788164794088001500,5.47400146484375,-0.14586099982261658,1.3770949840545654,0.2528719902038574
1788164794098081000,5.4840810546875,0.22401100397109985,1.2776930332183838,-0.10367400199174881
1788164794108172300,5.49417236328125,0.3689599931240082,0.9367719888687134,-0.4661259949207306
1788164794118256000,5.504256103515625,0.47387900948524475,0.5834910273551941,-0.8336849808692932
1788164794128356400,5.5143564453125,0.4891349971294403,0.3118700087070465,-1.1696200370788574
1788164794138455000,5.524455078125,0.3554939925670624,0.14531700313091278,-1.4531079530715942
1788164794148545000,5.534544921875,-0.0405299998819828,0.04632899910211563,-1.6783950328826904
1788164794158629000,5.544629150390625,-0.20428399741649628,0.09762900322675705,-1.732295036315918
1788164794168707800,5.554707763671875,-0.16839200258255005,0.13449999690055847,-1.479222059249878
1788164794178798600,5.564798583984375,-0.2230910062789917,0.11310599744319916,-1.0761280059814453
1788164794188882000,5.5748818359375,-0.28432101011276245,0.169064000248909,-0.7047510147094727
1788164794198966500,5.584966552734375,-0.22367000579833984,0.1445380002260208,-0.22619099915027618
1788164794209046800,5.595046875,-0.0952949970960617,0.13732199370861053,0.08345600217580795
1788164794219127600,5.60512744140625,-0.16833800077438354,0.05502700060606003,0.25301098823547363
1788164794229206800,5.615206787109375,-0.07588600367307663,-0.04708300158381462,0.37235701084136963
1788164794239285800,5.62528564453125,0.10008800029754639,-0.09977699816226959,0.3599869906902313
1788164794249372700,5.63537255859375,0.17147499322891235,-0.19426800310611725,0.3325650095939636
1788164794259456800,5.645456787109375,0.1513330042362213,-0.24466000497341156,0.23004299402236938
1788164794269532400,5.655532470703125,0.19269900023937225,-0.23932500183582306,0.1885329931974411
1788164794279622400,5.665622314453125,0.18610000610351562,-0.31888800859451294,0.05653500184416771
1788164794289706200,5.675706298828125,-0.04339899867773056,-0.37611401081085205,-0.11505799740552902
1788164794299789000,5.6857890625,-0.07525099813938141,-0.4531559944152832,-0.1907469928264618
1788164794309875700,5.695875732421875,0.03894300013780594,-0.4418190121650696,-0.17573200166225433
1788164794319961300,5.70596142578125,0.06531400233507156,-0.36001700162887573,-0.08688399940729141
1788164794330047700,5.7160478515625,0.09354700148105621,-0.21575100719928741,0.07799500226974487
1788164794340141000,5.72614111328125,0.07467900216579437,-0.14493399858474731,0.22478699684143066
1788164794350227000,5.73622705078125,0.04108300060033798,-0.06128599867224693,0.2572000026702881
1788164794360326400,5.746326416015625,-0.05138099938631058,-0.028433000668883324,0.1819400042295456
1788164794370413000,5.7564130859375,0.09518299996852875,-0.004172000102698803,0.1314460039138794
1788164794380499000,5.7664990234375,0.2692910134792328,0.026254000142216682,0.0940060019493103
1788164794390581200,5.776581298828125,0.3057520091533661,0.043783001601696014,0.12100200355052948
1788164794400675000,5.786675048828125,0.25602099299430847,0.0429529994726181,0.13458900153636932
1788164794410757000,5.796757080078125,0.22897200286388397,-0.03475699946284294,0.2779879868030548
1788164794420846600,5.8068466796875,0.07936400175094604,-0.1292549967765808,0.2846049964427948
1788164794430935000,5.81693505859375,-0.219323992729187,-0.2432059943675995,0.1825210005044937
1788164794441023500,5.8270234375,-0.25430798530578613,-0.2816790044307709,0.11410100013017654
1788164794451120600,5.83712060546875,-0.13708899915218353,-0.25957199931144714,0.05950700119137764
1788164794461208000,5.8472080078125,-0.21336400508880615,-0.2062149941921234,-0.061124999076128006
1788164794471302700,5.857302734375,-0.19506500661373138,-0.10476300120353699,-0.11725299805402756
1788164794481391900,5.867391845703125,-0.03951499983668327,-0.020493000745773315,-0.04139000177383423
1788164794491488300,5.87748828125,0.011180000379681587,0.0712369978427887,-0.04793800041079521
1788164794501572900,5.88757275390625,-0.03781700134277344,0.14516200125217438,-0.06531299650669098
1788164794511661600,5.89766162109375,0.13374300301074982,0.2022400051355362,-0.018431000411510468
1788164794521748500,5.90774853515625,0.41507700085639954,0.21555200219154358,0.07644300162792206
1788164794531848400,5.917848388671875,0.30258598923683167,0.1532279998064041,0.06991700083017349
1788164794541936600,5.9279365234375,0.20085500180721283,0.12437299638986588,0.03929400071501732
1788164794552030700,5.93803076171875,0.1906690001487732,0.10175999999046326,0.02552100084722042
1788164794572214500,5.958214599609375,-0.21146899461746216,0.13056999444961548,-0.36508500576019287
1788164794582297000,5.968297119140625,-0.2417050004005432,0.22985999286174774,-0.4885979890823364
1788164794592382700,5.9783828125,-0.1859540045261383,0.24957799911499023,-0.39007100462913513
1788164794602463700,5.988463623046875,-0.38122400641441345,0.21864700317382812,-0.39710599184036255
1788164794612551200,5.99855126953125,-0.4415169954299927,0.11702299863100052,-0.2737500071525574
1788164794622642200,6.00864208984375,-0.2310899943113327,0.018290000036358833,-0.13147200644016266
1788164794632731600,6.018731689453125,-0.07996799796819687,-0.032997000962495804,-0.16261599957942963
1788164794642818000,6.028818115234375,-0.06489899754524231,-0.08807100355625153,-0.12678000330924988
1788164794652914200,6.0389140625,0.0500900000333786,-0.08819500356912613,-0.07784999907016754
1788164794663009800,6.049009765625,0.11353400349617004,-0.09364400058984756,-0.02433199994266033
1788164794673111000,6.059111083984375,-0.09127900004386902,-0.11126600205898285,-0.07929100096225739
1788164794683208200,6.069208251953125,-0.22726599872112274,-0.10789100080728531,-0.1432349979877472
1788164794693297700,6.079297607421875,-0.19084300100803375,-0.06595200300216675,-0.24805499613285065
1788164794703394600,6.08939453125,-0.1913120001554489,-0.025002000853419304,-0.41905200481414795
1788164794713492500,6.099492431640625,-0.21945300698280334,0.05268000066280365,-0.5450239777565002
1788164794723581700,6.109581787109375,-0.1515980064868927,0.0972369983792305,-0.49025100469589233
1788164794733668400,6.11966845703125,-0.10257799923419952,0.14238299429416656,-0.25496700406074524
1788164794743755300,6.12975537109375,-0.20792800188064575,0.24301500618457794,-0.20800599455833435
1788164794753843500,6.139843505859375,-0.024362999945878983,0.3347710072994232,-0.11653000116348267
1788164794763936300,6.149936279296875,0.2174540013074875,0.2919760048389435,0.05177599936723709
1788164794774013400,6.160013427734375,0.1839980036020279,0.26667600870132446,-0.01859400048851967
1788164794784095000,6.170094970703125,0.060552000999450684,0.18026000261306763,-0.06868000328540802
1788164794794181000,6.18018115234375,0.05237400159239769,0.04671600088477135,0.023017000406980515
1788164794804270300,6.190270263671875,0.05687899887561798,-0.08554700016975403,0.14266499876976013
1788164794814348800,6.200348876953125,-0.030554000288248062,-0.21061600744724274,0.18924200534820557
1788164794824438000,6.21043798828125,0.07853599637746811,-0.3615339994430542,0.20844799280166626
1788164794834524400,6.2205244140625,0.19652700424194336,-0.3933529853820801,0.3566640019416809
1788164794844614700,6.23061474609375,0.23033900558948517,-0.413316011428833,0.3400149941444397
1788164794854702800,6.240702880859375,0.1654909998178482,-0.42528799176216125,0.3349649906158447
1788164794874872600,6.26087255859375,0.2008499950170517,-0.45873698592185974,0.31399598717689514
1788164794884960300,6.270960205078125,0.07579100131988525,-0.5119230151176453,0.15761800110340118
1788164794905150000,6.29114990234375,0.22586099803447723,-0.15893200039863586,0.11735700070858002
1788164794915229000,6.30122900390625,0.13212600350379944,-0.03568600118160248,-0.041051000356674194
1788164794925320700,6.31132080078125,0.0092569999396801,-0.023500999435782433,-0.06533700227737427
1788164794935413200,6.321413330078125,-0.05406700074672699,-0.018975000828504562,-0.11383700370788574
1788164794945506300,6.33150634765625,-0.09699799865484238,-0.02132599987089634,-0.14558200538158417
1788164794955600100,6.34160009765625,-0.2669509947299957,0.07249300181865692,-0.34957998991012573
1788164794965685500,6.351685546875,-0.19234000146389008,0.11649099737405777,-0.3951219916343689
1788164794975777000,6.361777099609375,-0.0791039988398552,0.11584500223398209,-0.33509400486946106
1788164794985872100,6.3718720703125,-0.15666499733924866,0.16344499588012695,-0.47246700525283813
1788164795006063400,6.3920634765625,0.013914000242948532,0.12417799979448318,-0.28294700384140015
1788164795016152000,6.402152099609375,-0.016327999532222748,0.10658500343561172,-0.07145299762487411
1788164795026239500,6.412239501953125,-0.06401500105857849,0.1379290074110031,0.02162499912083149
1788164795036344600,6.422344482421875,-0.05290500074625015,0.0798019990324974,0.40619900822639465
1788164795046431200,6.43243115234375,-0.27132201194763184,0.09782200306653976,0.5277429819107056
1788164795056528100,6.442528076171875,-0.236627995967865,0.10251999646425247,0.45527300238609314
1788164795066620400,6.452620361328125,-0.14490999281406403,0.03338799998164177,0.6108189821243286
1788164795076707800,6.462707763671875,-0.18421900272369385,-0.05749500170350075,0.5588610172271729
1788164795086794000,6.4727939453125,-0.17740899324417114,-0.09510699659585953,0.41714298725128174
1788164795096882400,6.48288232421875,-0.3066200017929077,-0.18052099645137787,0.6090070009231567
1788164795106996700,6.492996826171875,-0.31549200415611267,-0.15156400203704834,0.4239029884338379
1788164795117091600,6.503091552734375,-0.21045300364494324,-0.13362999260425568,0.24339300394058228
1788164795127177700,6.513177734375,-0.15210600197315216,-0.07467799633741379,0.004900999832898378
1788164795137274600,6.523274658203125,-0.06124100089073181,0.017361000180244446,-0.23816199600696564
1788164795147368200,6.5333681640625,-0.20166799426078796,0.09305600076913834,-0.16728100180625916
1788164795157447000,6.543447021484375,-0.27859801054000854,0.20775899291038513,-0.2912229895591736
1788164795167542000,6.5535419921875,-0.20336399972438812,0.20809000730514526,-0.1691800057888031
1788164795177630200,6.563630126953125,-0.14269199967384338,0.2816790044307709,-0.40488201379776
1788164795187716400,6.57371630859375,-0.08296699821949005,0.3311930000782013,-0.3650819957256317
1788164795207899600,6.593899658203125,-0.13925300538539886,0.5553069710731506,-0.3109680116176605
1788164795217990700,6.60399072265625,-0.3460560142993927,0.6018750071525574,-0.4896090030670166
1788164795228073000,6.614072998046875,-0.32102298736572266,0.5074449777603149,-0.40208899974823
1788164795238163200,6.6241630859375,-0.30385100841522217,0.48249301314353943,-0.37685200572013855
1788164795248255000,6.6342548828125,-0.042364999651908875,0.4035860002040863,-0.24999399483203888
1788164795258349000,6.64434912109375,-0.1445620059967041,0.2389799952507019,-0.1650799959897995
1788164795268443600,6.654443603515625,-0.18292200565338135,-0.0003279999946244061,0.12185200303792953
1788164795278535700,6.66453564453125,-0.02638999931514263,-0.016496000811457634,-0.01450399961322546
1788164795288635100,6.67463525390625,-0.09114199876785278,0.032526999711990356,0.26558899879455566
1788164795298720800,6.684720703125,-0.18083299696445465,-0.04850799962878227,0.5152940154075623
1788164795308795000,6.694794921875,-0.27342599630355835,0.08656200021505356,0.33069100975990295
1788164795318884400,6.70488427734375,-0.38091298937797546,0.11895299702882767,0.5907809734344482
1788164795328967200,6.71496728515625,-0.6649789810180664,0.13903099298477173,0.8064010143280029
1788164795339067000,6.72506689453125,-0.6494330167770386,0.38320499658584595,0.6906260251998901
1788164795349169200,6.735169189453125,-0.6748769879341125,0.6534280180931091,0.7294110059738159
1788164795359268000,6.74526806640625,-0.7465370297431946,0.7997819781303406,0.8368099927902222
1788164795369357000,6.755357177734375,-0.45093899965286255,0.9060900211334229,0.6771969795227051
1788164795379453200,6.765453125,-0.3547329902648926,1.11039400100708,0.4272319972515106
1788164795389536000,6.775535888671875,-0.49111300706863403,1.1101939678192139,0.4159730076789856
1788164795399633200,6.785633056640625,-0.219991996884346,0.9524120092391968,0.25304800271987915
1788164795409719000,6.795718994140625,-0.2355780005455017,0.9010949730873108,-0.15286600589752197
1788164795419809300,6.805809326171875,-0.6534109711647034,0.6163979768753052,-0.1353839933872223
1788164795439989000,6.825989013671875,-0.7498970031738281,0.06360899657011032,-0.7235559821128845
1788164795450081300,6.836081298828125,-0.8000929951667786,-0.05557499825954437,-0.5671210289001465
1788164795460173300,6.84617333984375,-1.184785008430481,-0.22997799515724182,-0.28582799434661865
1788164795470268700,6.8562685546875,-1.0827569961547852,-0.16492700576782227,-0.39190399646759033
1788164795480352500,6.8663525390625,-0.8714799880981445,-0.17948299646377563,-0.18796299397945404
1788164795490448600,6.87644873046875,-0.9915390014648438,-0.3138520121574402,0.18708300590515137
1788164795500535300,6.886535400390625,-0.5959169864654541,-0.21829600632190704,0.4503290057182312
1788164795510623200,6.896623291015625,-0.13714100420475006,-0.07034900039434433,0.6529759764671326
1788164795520708900,6.906708984375,-0.19914400577545166,-0.19335800409317017,0.7833340167999268
1788164795530801000,6.91680078125,-0.17701299488544464,-0.23824599385261536,0.47836101055145264
1788164795540882200,6.926882080078125,-0.2633900046348572,-0.16825300455093384,0.36345601081848145
1788164795550969300,6.93696923828125,-0.1294270008802414,-0.1476600021123886,0.5731289982795715
1788164795561061400,6.947061279296875,0.7341690063476562,0.07237499952316284,0.4261699914932251
1788164795571146200,6.957146240234375,1.1065460443496704,0.33590200543403625,0.20575499534606934
1788164795581228800,6.967228759765625,1.0417230129241943,0.45928001403808594,0.36771100759506226
1788164795591318300,6.977318359375,0.890982985496521,0.5760520100593567,0.42748400568962097
1788164795601404000,6.98740380859375,0.4735879898071289,0.7983419895172119,0.08050999790430069
1788164795611489800,6.99748974609375,-0.16432799398899078,0.8450049757957458,0.21984000504016876
1788164795621573600,7.00757373046875,-0.5384730100631714,0.7101789712905884,0.4634360074996948
1788164795631657000,7.017656982421875,-0.26611199975013733,0.6470059752464294,0.16485700011253357
1788164795641750300,7.027750244140625,-0.038068998605012894,0.40165001153945923,0.38731300830841064
1788164795651841300,7.03784130859375,-0.02926499955356121,0.06415999680757523,0.7496520280838013
1788164795661933000,7.04793310546875,0.3708840012550354,-0.09831099957227707,0.4182029962539673
1788164795672026600,7.058026611328125,0.37023499608039856,-0.23664799332618713,0.4992719888687134
1788164795682112500,7.068112548828125,0.02342499978840351,-0.44673699140548706,0.8425639867782593
1788164795692202200,7.0782021484375,-0.008662999607622623,-0.4316839873790741,0.5214089751243591
1788164795702291500,7.08829150390625,-0.2029689997434616,-0.44278401136398315,0.36619699001312256
1788164795712382700,7.0983828125,-0.4910210072994232,-0.46407198905944824,0.4845750033855438
1788164795722469400,7.108469482421875,-0.31480899453163147,-0.2370470017194748,0.04114900156855583
1788164795732570600,7.118570556640625,-0.16356900334358215,0.036671001464128494,-0.13006499409675598
1788164795742651600,7.128651611328125,-0.2757200002670288,0.17310699820518494,0.28619199991226196
1788164795752740600,7.13874072265625,0.06204500049352646,0.22945000231266022,0.30031999945640564
1788164795762827300,7.1488271484375,0.13929599523544312,0.17996199429035187,0.08835799992084503
1788164795772918500,7.15891845703125,-0.3397589921951294,-0.06471999734640121,0.3441309928894043
1788164795783003600,7.169003662109375,-0.27574899792671204,-0.17999599874019623,0.1852329969406128
1788164795793093400,7.17909326171875,0.016587000340223312,-0.09430799633264542,-0.23827700316905975
1788164795803184000,7.18918408203125,-0.08977899700403214,-0.044192999601364136,-0.07784999907016754
1788164795813269500,7.19926953125,-0.04467000067234039,-0.024834999814629555,0.024815000593662262
1788164795823355000,7.20935498046875,0.08728700131177902,0.024400999769568443,-0.28318899869918823
1788164795833441000,7.21944091796875,-0.1538420021533966,-0.016956999897956848,0.019231999292969704
1788164795843520500,7.2295205078125,-0.3407529890537262,-0.07948599755764008,0.06871999800205231
1788164795853611000,7.239611083984375,-0.3993090093135834,0.08184300363063812,-0.25661298632621765
1788164795863684000,7.24968408203125,-0.6655550003051758,0.1297910064458847,-0.04018700122833252
1788164795873779500,7.259779541015625,-0.7331690192222595,0.12730500102043152,0.30764299631118774
1788164795883867100,7.2698671875,-0.533939003944397,0.20493300259113312,0.028735000640153885
1788164795893961200,7.279961181640625,-0.4527679979801178,0.20120100677013397,0.05169399827718735
1788164795904042200,7.290042236328125,-0.41753798723220825,0.11473400145769119,0.23606599867343903
1788164795914128000,7.3001279296875,0.11442700028419495,0.13040600717067719,-0.14760799705982208
1788164795924225300,7.310225341796875,0.29385799169540405,0.05142100155353546,-0.09670300036668777
1788164795934316800,7.32031689453125,0.21303200721740723,-0.14212200045585632,0.17248499393463135
1788164795944395300,7.330395263671875,0.4019309878349304,-0.16082599759101868,-0.08582299947738647
1788164795954487000,7.340487060546875,0.4420349895954132,-0.29728299379348755,-0.0008970000199042261
1788164795974663200,7.3606630859375,-0.21605700254440308,-0.40380001068115234,-0.022770000621676445
1788164795984746800,7.370746826171875,-0.2148829996585846,-0.39007800817489624,-0.23759399354457855
1788164795994834700,7.380834716796875,-0.5420910120010376,-0.3641969859600067,-0.049904000014066696
1788164796004911600,7.39091162109375,-0.4938719868659973,-0.23226399719715118,-0.0967010036110878
1788164796015007500,7.401007568359375,-0.2078779935836792,-0.09894800186157227,-0.13955700397491455
1788164796025097000,7.411096923828125,-0.10787200182676315,-0.07495799660682678,0.3029389977455139
1788164796035190000,7.42118994140625,0.11168000102043152,0.05759799852967262,0.38697800040245056
1788164796045274000,7.431274169921875,0.2846260070800781,0.15719500184059143,0.1767120063304901
1788164796055362600,7.441362548828125,0.09948500245809555,0.15630699694156647,0.3875879943370819
1788164796065445000,7.451445068359375,0.21216599643230438,0.11108600348234177,0.46470800042152405
1788164796075533000,7.461532958984375,0.4116399884223938,0.16828300058841705,0.09267300367355347
1788164796085617000,7.471616943359375,0.013598999939858913,0.07989899814128876,0.19884200394153595
1788164796095702000,7.481701904296875,-0.28237101435661316,0.014303999952971935,0.12004099786281586
1788164796105788000,7.491787841796875,-0.26954901218414307,0.04702400043606758,-0.47971099615097046
1788164796115871000,7.50187109375,-0.3632560074329376,-0.10120099782943726,-0.4809580147266388
1788164796125956400,7.511956298828125,-0.4298520088195801,-0.07095800340175629,-0.5440629720687866
1788164796136048400,7.52204833984375,-0.21251599490642548,0.010336999781429768,-0.9571509957313538
1788164796146128100,7.532128173828125,-0.227183997631073,-0.1589130014181137,-0.7356370091438293
1788164796156213200,7.542213134765625,-0.3105970025062561,-0.37404900789260864,-0.3026899993419647
1788164796166308900,7.552308837890625,-0.23668000102043152,-0.4683719873428345,-0.3764120042324066
1788164796176398600,7.562398681640625,-0.4486680030822754,-0.6368569731712341,-0.13599899411201477
1788164796186496500,7.57249658203125,-0.7850239872932434,-0.6971660256385803,0.011869999580085278
1788164796196579300,7.582579345703125,-0.7247459888458252,-0.6298739910125732,-0.361268013715744
1788164796206675700,7.59267578125,-0.8229820132255554,-0.6094679832458496,-0.38416698575019836
1788164796216756500,7.602756591796875,-0.959447979927063,-0.6442070007324219,-0.28601300716400146
1788164796226850000,7.61285009765625,-0.3731420040130615,-0.6501629948616028,-0.34373199939727783
1788164796236937200,7.622937255859375,-0.10029499977827072,-0.6422770023345947,-0.2477329969406128
1788164796247027000,7.63302685546875,-0.1404149979352951,-0.6577050089836121,0.13388000428676605
1788164796257108000,7.64310791015625,0.1731709986925125,-0.5046110153198242,0.19657500088214874
1788164796267199700,7.65319970703125,0.37422600388526917,-0.12935499846935272,-0.0029180001001805067
1788164796277294800,7.663294921875,0.3689059913158417,0.15149299800395966,0.0778380036354065
1788164796287388000,7.673387939453125,0.3400779962539673,0.4075309932231903,0.08646900206804276
1788164796297474600,7.683474609375,0.36816200613975525,0.6090499758720398,-0.02115499973297119
1788164796307563800,7.693563720703125,0.2784320116043091,0.6120910048484802,0.3091149926185608
1788164796317695000,7.703695068359375,0.059133999049663544,0.6235859990119934,0.550432026386261
1788164796327781400,7.713781494140625,-0.16525599360466003,0.7121570110321045,0.3862070143222809
1788164796337869300,7.723869384765625,-0.36465001106262207,0.7357710003852844,0.2518399953842163
1788164796347948300,7.7339482421875,-0.5494660139083862,0.7760210037231445,0.044936999678611755
1788164796358032100,7.7440322265625,-0.3571789860725403,0.8319740295410156,-0.2895820140838623
1788164796368110600,7.754110595703125,-0.2702449858188629,0.9110429883003235,-0.411531001329422
1788164796378189000,7.76418896484375,-0.21074099838733673,0.9157670140266418,-0.2760469913482666
1788164796388277500,7.774277587890625,0.06294099986553192,0.903984010219574,-0.4857630133628845
1788164796398363100,7.784363037109375,0.08572600036859512,0.8989179730415344,-0.90379399061203
1788164796408459000,7.794458984375,-0.038249000906944275,0.8118090033531189,-0.9669650197029114
1788164796418541800,7.804541748046875,0.19552400708198547,0.6259409785270691,-1.008476972579956
1788164796428626000,7.8146259765625,0.5487920045852661,0.45073699951171875,-1.1694170236587524
1788164796438705700,7.82470556640625,0.46543198823928833,0.1168999969959259,-1.030890941619873
1788164796448796200,7.834796142578125,0.2564449906349182,-0.24801300466060638,-0.8190889954566956
1788164796458876400,7.84487646484375,0.20570600032806396,-0.5645700097084045,-0.7431309819221497
1788164796468957700,7.854957763671875,-0.13664600253105164,-0.7334380149841309,-0.6414430141448975
1788164796479037000,7.865036865234375,-0.5273669958114624,-0.7871829867362976,-0.2777140140533447
1788164796489126400,7.87512646484375,-0.5003880262374878,-0.7205049991607666,-0.2333189994096756
1788164796499199000,7.885198974609375,-0.3960169851779938,-0.6007500290870667,-0.4109179973602295
1788164796509283800,7.895283935546875,-0.062268998473882675,-0.5364239811897278,-0.24176399409770966
1788164796519361500,7.905361572265625,0.47644099593162537,-0.40380799770355225,-0.01912900060415268
1788164796529442600,7.915442626953125,0.9036509990692139,-0.2194650024175644,0.17815400660037994
1788164796539522000,7.92552197265625,0.8115559816360474,-0.2405180037021637,0.3522129952907562
1788164796549613300,7.93561328125,0.6807889938354492,-0.4219389855861664,0.37665700912475586
1788164796559686100,7.94568603515625,0.45739099383354187,-0.6261240243911743,0.014030000194907188
1788164796569777400,7.95577734375,0.36900898814201355,-0.9110890030860901,-0.24359899759292603
1788164796579859700,7.965859619140625,0.4441570043563843,-1.1773250102996826,-0.3928520083427429
1788164796589964300,7.97596435546875,0.7700930237770081,-1.350572943687439,-0.47969698905944824
1788164796600052000,7.986052001953125,0.7510030269622803,-1.5310139656066895,-0.43289199471473694
1788164796610153000,7.996153076171875,0.4856399893760681,-1.6292259693145752,-0.3029240071773529
1788164796620236800,8.00623681640625,0.20856599509716034,-1.6004680395126343,-0.2081660032272339
1788164796630331100,8.0163310546875,-0.03676199913024902,-1.4623099565505981,-0.0580810010433197
1788164796640416500,8.02641650390625,-0.31640899181365967,-1.3098360300064087,-0.00009500000305706635
1788164796650499600,8.03649951171875,-0.15474699437618256,-1.0923869609832764,-0.19476200640201569
1788164796660582000,8.046581787109375,0.11518000066280365,-0.9291319847106934,-0.27943500876426697
1788164796670670300,8.05667041015625,0.6912850141525269,-0.7140049934387207,-0.17372199892997742
1788164796680750800,8.066750732421875,1.2020000219345093,-0.6245409846305847,0.14263999462127686
1788164796690846200,8.07684619140625,1.5635709762573242,-0.6278929710388184,0.47645699977874756
1788164796700935400,8.086935302734375,1.5683890581130981,-0.7018190026283264,0.8304330110549927
1788164796711037400,8.097037353515624,1.424278974533081,-0.7136660218238831,0.8045989871025085
1788164796721137400,8.107137451171875,1.114753007888794,-0.8069869875907898,0.7777680158615112
1788164796731221800,8.1172216796875,0.6399229764938354,-0.9595850110054016,0.652101993560791
1788164796741312800,8.127312744140625,0.2703939974308014,-1.2474839687347412,0.6554189920425415
1788164796751400200,8.137400146484374,-0.22515800595283508,-1.626749038696289,0.6958929896354675
1788164796761481500,8.1474814453125,-0.26102399826049805,-1.8595789670944214,0.48706600069999695
1788164796771569700,8.157569580078125,0.04466399922966957,-1.9706560373306274,0.4560459852218628
1788164796781661700,8.16766162109375,0.3286750018596649,-1.7160530090332031,0.315418004989624
1788164796791745300,8.177745361328125,0.5296199917793274,-1.3408050537109375,0.28715500235557556
1788164796801839000,8.187839111328126,0.5546200275421143,-0.8610780239105225,0.20974299311637878
1788164796811931100,8.19793115234375,0.5147479772567749,-0.4830490052700043,0.07094000279903412
1788164796822025700,8.208025634765624,0.2387859970331192,-0.41647499799728394,-0.16801899671554565
1788164796832110800,8.21811083984375,-0.2187650054693222,-0.578881025314331,-0.6879019737243652
1788164796842202000,8.2282021484375,-0.8284029960632324,-1.0049740076065063,-1.1329870223999023
1788164796852296000,8.2382958984375,-1.1976189613342285,-1.6213090419769287,-1.4413460493087769
1788164796862389200,8.24838916015625,-1.3215060234069824,-2.4667179584503174,-1.2320890426635742
1788164796872474400,8.258474365234376,-1.287742018699646,-3.1972410678863525,-0.5313469767570496
1788164796882557000,8.268556884765625,-0.7786639928817749,-3.741157054901123,0.4089440107345581
1788164796892647000,8.27864697265625,-0.18688200414180756,-3.7852489948272705,1.7558619976043701
1788164796902734300,8.288734375,0.05562400072813034,-3.1180660724639893,2.9772250652313232
1788164796912820500,8.298820556640624,0.18962499499320984,-1.9001179933547974,3.5088720321655273
1788164796922910200,8.30891015625,0.2159229964017868,-0.4508259892463684,2.7797670364379883
1788164796943079700,8.32907958984375,0.35790398716926575,1.6973960399627686,-0.4899980127811432
1788164796953163500,8.33916357421875,0.6833410263061523,2.250291109085083,-2.355293035507202
1788164796963252200,8.349252197265624,1.4288220405578613,1.9080530405044556,-3.09784197807312
1788164796973338000,8.359338134765625,1.8660370111465454,0.7832040190696716,-2.908946990966797
1788164796983431000,8.369430908203125,1.6257810592651367,-0.5233690142631531,-2.7576889991760254
1788164796993518600,8.3795185546875,1.269345998764038,-1.4717570543289185,-2.3138020038604736
1788164797003614500,8.389614501953124,1.1567579507827759,-1.9637140035629272,-1.5787450075149536
1788164797013697000,8.399697021484375,0.9082409739494324,-1.9684009552001953,-1.066580057144165
1788164797023783400,8.409783447265625,0.487637996673584,-1.5973349809646606,-0.453235000371933
1788164797033869600,8.41986962890625,0.5732460021972656,-1.1760640144348145,0.192440003156662
1788164797043957000,8.42995703125,0.975754976272583,-0.8942649960517883,0.7705399990081787
1788164797054042600,8.440042724609375,1.1894680261611938,-0.6345099806785583,1.3427289724349976
1788164797064125700,8.450125732421874,1.2293750047683716,-0.5501520037651062,1.7769930362701416
1788164797074222000,8.46022216796875,0.9884439706802368,-0.5952649712562561,1.9214580059051514
1788164797084305700,8.4703056640625,0.7198730111122131,-0.7541080117225647,1.8104619979858398
1788164797094393300,8.480393310546875,0.612637996673584,-0.9563680291175842,1.5343610048294067
1788164797104481500,8.4904814453125,0.8522970080375671,-1.2355610132217407,1.3989100456237793
1788164797114568700,8.500568603515624,1.243109941482544,-1.4686939716339111,1.3381049633026123
1788164797124659000,8.510658935546875,1.4962350130081177,-1.6725269556045532,1.3050719499588013
1788164797134747600,8.52074755859375,1.5799649953842163,-1.7977559566497803,1.1358460187911987
1788164797144840700,8.5308408203125,1.7140040397644043,-1.83672297000885,0.7883049845695496
1788164797154931500,8.540931396484375,1.8224560022354126,-1.7784090042114258,0.5142650008201599
1788164797165017600,8.551017578125,1.7038769721984863,-1.5550999641418457,0.5321249961853027
1788164797175103200,8.561103271484376,1.6278140544891357,-1.5901169776916504,0.5889179706573486
1788164797185188400,8.571188232421875,1.2944200038909912,-1.7167630195617676,0.9461510181427002
1788164797195278000,8.581278076171875,0.5632500052452087,-1.6215740442276,1.2401280403137207
1788164797205366000,8.591365966796875,0.21799500286579132,-1.4334499835968018,1.427786946296692
1788164797215445000,8.601445068359375,0.3840729892253876,-1.2559679746627808,1.5176340341567993
1788164797225537500,8.61153759765625,0.32506799697875977,-1.1352839469909668,1.45237398147583
1788164797235628300,8.621628173828125,0.4860219955444336,-1.0571529865264893,1.4278650283813477
1788164797245715000,8.63171484375,0.7655919790267944,-1.0303230285644531,1.3922829627990723
1788164797255802600,8.641802734375,0.7164949774742126,-0.9413300156593323,1.1503009796142578
1788164797265889800,8.651889892578126,0.8265439867973328,-0.8647019863128662,0.8581100106239319
1788164797275977200,8.661977294921876,1.170022964477539,-0.8539220094680786,0.4928179979324341
1788164797286068700,8.67206884765625,1.290869951248169,-0.9251760244369507,0.22243499755859375
1788164797296147200,8.682147216796874,1.2459460496902466,-0.941618025302887,0.1338450014591217
1788164797306236200,8.692236083984374,1.279317021369934,-0.9237250089645386,0.12469799816608429
1788164797316329200,8.7023291015625,1.114501953125,-0.9110609889030457,0.21866700053215027
1788164797326415400,8.712415283203125,0.8100119829177856,-0.7835080027580261,0.30831798911094666
1788164797336500700,8.722500732421874,0.6460970044136047,-0.5639370083808899,0.3422220051288605
1788164797346584600,8.73258447265625,0.5293970108032227,-0.4314410090446472,0.3473609983921051
1788164797356687400,8.742687255859375,0.4390240013599396,-0.3314419984817505,0.38040900230407715
1788164797366775600,8.752775634765625,0.6152700185775757,-0.3645949959754944,0.3023659884929657
1788164797376867600,8.76286767578125,0.9228969812393188,-0.46502500772476196,0.2844359874725342
1788164797386952200,8.7729521484375,1.1224080324172974,-0.5854160189628601,0.4421670138835907
1788164797397043000,8.78304296875,1.2328519821166992,-0.7086099982261658,0.5540140271186829
1788164797407125000,8.793125,1.321632981300354,-0.5197309851646423,0.4342229962348938
1788164797417219600,8.803219482421875,1.1170289516448975,-0.5930960178375244,0.5077030062675476
1788164797427302700,8.813302734375,0.6971139907836914,-0.637365996837616,0.4230650067329407
1788164797437393200,8.82339306640625,0.029270000755786896,-0.6586689949035645,0.026866000145673752
1788164797447478000,8.83347802734375,-0.5857049822807312,-0.8138819932937622,-0.4604569971561432
1788164797457566200,8.843566162109376,-1.1351979970932007,-1.3820170164108276,-0.8851180076599121
1788164797477772800,8.863772705078125,-2.423114061355591,-2.368098020553589,-2.766561985015869
1788164797487865300,8.873865234375,-2.8838651180267334,-2.748884916305542,-3.8638861179351807
1788164797497959200,8.883959228515625,-3.022636890411377,-2.9098761081695557,-4.734677791595459
1788164797508044000,8.8940439453125,-2.617806911468506,-2.8367090225219727,-5.047483921051025
1788164797518125300,8.904125244140625,-1.8785200119018555,-2.5462660789489746,-4.716007232666016
1788164797528203800,8.914203857421874,-0.8698139786720276,-2.073831081390381,-4.123180866241455
1788164797538294500,8.92429443359375,0.5830990076065063,-1.595046043395996,-3.1265430450439453
1788164797548377300,8.93437744140625,1.9233479499816895,-1.2093709707260132,-1.8206199407577515
1788164797558463000,8.944462890625,3.3304998874664307,-0.8018350005149841,-0.29208600521087646
1788164797578640000,8.964639892578125,4.806289196014404,0.06218099966645241,2.6725471019744873
1788164797588728000,8.97472802734375,3.463218927383423,-0.03264300152659416,4.249226093292236
1788164797598815000,8.98481494140625,0.757157027721405,-0.24138300120830536,5.487117767333984
1788164797608895000,8.99489501953125,-1.8314870595932007,-0.8246669769287109,5.963743209838867
1788164797618990600,9.004990478515625,-2.8264060020446777,-1.1092599630355835,4.328656196594238
1788164797629067800,9.01506787109375,-2.2072858810424805,-1.8068230152130127,2.779917001724243
1788164797639154700,9.02515478515625,-1.4558969736099243,-2.38421893119812,1.9323480129241943
1788164797649227500,9.0352275390625,-0.712086021900177,-2.5561909675598145,1.198462963104248
1788164797659318500,9.045318603515625,-0.03522299975156784,-2.4455389976501465,0.5315229892730713
1788164797669405400,9.055405517578125,0.5596050024032593,-2.1669509410858154,-0.09131699800491333
1788164797679485700,9.065485595703125,1.2999980449676514,-1.8373130559921265,-0.4169679880142212
1788164797689564000,9.07556396484375,1.7671500444412231,-1.470999002456665,-0.5898119807243347
1788164797699657500,9.085657470703126,1.9964120388031006,-0.8496310114860535,-1.1471799612045288
1788164797709740300,9.095740234375,1.896003007888794,-0.0930510014295578,-2.09454607963562
1788164797719833300,9.105833251953126,1.174422025680542,0.5207340121269226,-3.001720905303955
1788164797729913600,9.11591357421875,0.351855993270874,0.8023830056190491,-3.6095120906829834
1788164797740005600,9.126005615234375,-0.138032004237175,0.6297129988670349,-3.6096410751342773
1788164797750085000,9.136085205078125,-0.3212380111217499,0.3021320104598999,-3.0863099098205566
1788164797760179200,9.14617919921875,-0.5262399911880493,0.008826999925076962,-2.183912992477417
1788164797770268000,9.156267822265624,-0.7647039890289307,-0.3359679877758026,-1.1895580291748047
1788164797780364500,9.166364501953124,-0.8851310014724731,-0.6682479977607727,-0.512516975402832
1788164797790463000,9.176462890625,-0.7802579998970032,-1.0299739837646484,-0.12408600002527237
1788164797800554000,9.186553955078125,-0.6032429933547974,-1.4813300371170044,-0.004474999848753214
1788164797810634200,9.19663427734375,-0.36713600158691406,-1.9106149673461914,-0.15963700413703918
1788164797820724700,9.206724853515626,0.37780800461769104,-2.1279420852661133,-0.347027987241745
1788164797830809600,9.2168095703125,1.245203971862793,-2.048319101333618,-0.5269500017166138
1788164797840902000,9.22690185546875,1.5315680503845215,-1.4796249866485596,-0.9344249963760376
1788164797850987500,9.236987548828125,1.3482409715652466,-1.3331680297851562,-1.4062769412994385
1788164797861081900,9.247081787109375,0.6711410284042358,-1.3924989700317383,-1.2596490383148193
1788164797871168500,9.25716845703125,0.24251599609851837,-1.5059809684753418,-0.9882910251617432
1788164797881267500,9.267267333984375,0.4271939992904663,-1.3359589576721191,-0.4664660096168518
1788164797891355100,9.277355224609375,0.7479689717292786,-1.0935349464416504,-0.1192459985613823
1788164797901446000,9.28744580078125,0.9572650194168091,-1.1206209659576416,0.4731830060482025
1788164797911528700,9.29752880859375,0.9786949753761292,-1.1780740022659302,1.0057380199432373
1788164797921616100,9.3076162109375,1.0643219947814941,-1.3829610347747803,1.4999220371246338
1788164797931702500,9.31770263671875,1.05205500125885,-1.7605819702148438,2.1410861015319824
1788164797941789200,9.3277890625,1.1831469535827637,-2.0512759685516357,2.4245810508728027
1788164797951878400,9.33787841796875,1.39158296585083,-2.4325549602508545,2.33280611038208
1788164797961974300,9.347974365234375,1.5881789922714233,-2.561537027359009,1.6892999410629272
1788164797972052500,9.358052490234375,1.7388520240783691,-2.414767026901245,0.9067699909210205
1788164797982147600,9.368147705078124,1.5574500560760498,-2.123953104019165,0.09446100145578384
1788164797992229400,9.3782294921875,1.144901990890503,-2.091309070587158,-0.2680400013923645
1788164798012396800,9.398396728515625,0.4992150068283081,-2.4359500408172607,-0.06877700239419937
1788164798022477000,9.40847705078125,0.6670669913291931,-2.313575029373169,0.19248400628566742
1788164798032561700,9.418561767578124,0.9672279953956604,-2.026155948638916,0.45311999320983887
1788164798042643500,9.4286435546875,1.013551950454712,-1.6929709911346436,0.7455090284347534
1788164798052734000,9.43873388671875,0.6905879974365234,-1.3806999921798706,1.130642056465149
1788164798062822000,9.44882177734375,0.23752599954605103,-1.1576130390167236,1.5230220556259155
1788164798072904000,9.458904052734376,-0.12249500304460526,-1.0781010389328003,1.6043970584869385
1788164798082992600,9.46899267578125,-0.08893399685621262,-1.1888489723205566,1.5461549758911133
1788164798093080000,9.479080078125,0.24903999269008636,-1.4737869501113892,1.4080389738082886
1788164798103176400,9.489176513671875,0.5747820138931274,-1.6579749584197998,1.2294960021972656
1788164798113266200,9.49926611328125,0.5364829897880554,-1.638126015663147,0.9432700276374817
1788164798123362800,9.50936279296875,0.4927310049533844,-1.5048459768295288,0.7224469780921936
1788164798133445600,9.519445556640624,0.6241859793663025,-1.1825100183486938,0.5120469927787781
1788164798143536400,9.529536376953125,0.6373860239982605,-0.7479950189590454,0.2681950032711029
1788164798153622000,9.5396220703125,0.8223779797554016,-0.5138760209083557,0.2044840008020401
1788164798163714300,9.54971435546875,1.0521249771118164,-0.43449899554252625,0.21619799733161926
1788164798173801000,9.559801025390625,0.9985100030899048,-0.39914101362228394,0.28373798727989197
1788164798183898000,9.569898193359375,0.7460910081863403,-0.37272098660469055,0.36019599437713623
1788164798193985800,9.57998583984375,0.7857199907302856,-0.3884499967098236,0.5515069961547852
1788164798204076300,9.590076171875,0.7558779716491699,-0.36692699790000916,0.7978309988975525
1788164798214166000,9.600166015625,0.5289149880409241,-0.36000800132751465,0.9165539741516113
1788164798224249000,9.6102490234375,0.5071619749069214,-0.3054099977016449,1.1812210083007812
1788164798234335700,9.620335693359374,0.6454259753227234,-0.2057729959487915,1.347743034362793
1788164798244421000,9.630421142578125,0.6328690052032471,-0.11280100047588348,1.3124439716339111
1788164798254505000,9.6405048828125,0.5822039842605591,-0.03344300016760826,1.1365009546279907
1788164798264597800,9.65059765625,1.0361130237579346,-0.06059399992227554,1.0529530048370361
1788164798274681300,9.660681396484375,1.4377100467681885,-0.18639500439167023,1.0196410417556763
1788164798284774400,9.6707744140625,1.5644350051879883,-0.39650601148605347,1.000141978263855
1788164798294858500,9.6808583984375,1.766052007675171,-0.6443970203399658,1.1773539781570435
1788164798304950500,9.690950439453125,1.8521180152893066,-0.7744659781455994,1.304919958114624
1788164798315038500,9.70103857421875,1.8314260244369507,-0.7919510006904602,1.3750170469284058
1788164798325128700,9.711128662109376,1.9078229665756226,-0.7126340270042419,1.3756320476531982
1788164798335214600,9.721214599609375,2.120116949081421,-0.69650799036026,1.4500399827957153
1788164798345308400,9.731308349609375,1.9879080057144165,-0.8448169827461243,1.5911619663238525
1788164798355392800,9.741392822265626,1.1501590013504028,-1.1358920335769653,1.7462799549102783
1788164798365478000,9.751477783203125,0.10470099747180939,-1.5237749814987183,1.9222509860992432
1788164798375564300,9.761564208984375,-0.667510986328125,-1.8243290185928345,1.8554229736328125
1788164798385658000,9.771658203125,-1.2386959791183472,-1.9989500045776367,1.2972350120544434
1788164798395740700,9.78174072265625,-1.407768964767456,-2.254662036895752,0.6879969835281372
1788164798405834200,9.791834228515626,-1.3723200559616089,-2.6668050289154053,0.36691799759864807
1788164798415926000,9.801926025390625,-1.5703779458999634,-2.9688758850097656,-0.10493099689483643
1788164798426017500,9.812017578125,-1.6464769840240479,-2.9691851139068604,-0.8469979763031006
1788164798436096800,9.8220966796875,-1.057494044303894,-2.5166590213775635,-1.55930495262146
1788164798446179800,9.832179931640624,-0.23551499843597412,-1.844035029411316,-2.205038070678711
1788164798456269000,9.84226904296875,0.12091799825429916,-1.1409939527511597,-2.5485448837280273
1788164798466363600,9.85236376953125,0.42558199167251587,-0.6047930121421814,-2.2766430377960205
1788164798476457500,9.86245751953125,0.7366690039634705,-0.0623759999871254,-1.6036909818649292
1788164798486542600,9.87254248046875,0.6209449768066406,0.3999300003051758,-1.2158310413360596
1788164798496636000,9.882635986328125,0.3264400064945221,0.5711420178413391,-0.8047720193862915
1788164798506716700,9.892716552734376,0.13197700679302216,0.5853350162506104,-0.37503600120544434
1788164798516810200,9.902810302734375,0.009631999768316746,0.5758770108222961,-0.07736500352621078
1788164798526898200,9.912898193359375,-0.22546400129795074,0.5342599749565125,0.00836700014770031
1788164798536984600,9.922984619140625,-0.026637999340891838,0.3940170109272003,0.12659700214862823
1788164798547074600,9.933074462890625,0.36821699142456055,0.2264309972524643,0.319909006357193
1788164798557162500,9.94316259765625,0.38287898898124695,-0.12017200142145157,0.2461629956960678
1788164798567250200,9.953250244140625,0.4084959924221039,-0.5321630239486694,0.192454993724823
1788164798577337300,9.96333740234375,0.4578689932823181,-0.8828870058059692,0.26431599259376526
1788164798587419600,9.973419677734375,0.44694799184799194,-0.9485949873924255,0.0007430000114254653
1788164798597511000,9.983510986328126,0.3256480097770691,-0.8579829931259155,-0.3550739884376526
1788164798607595500,9.993595458984375,0.5435270071029663,-0.7373120188713074,-0.2456350028514862
1788164798617677600,10.003677490234375,0.628350019454956,-0.5957589745521545,-0.005603000055998564
1788164798627764200,10.01376416015625,0.399058997631073,-0.26857900619506836,-0.13518600165843964
1788164798637862000,10.02386181640625,0.2009260058403015,-0.16888900101184845,0.08029499650001526
1788164798647948500,10.033948486328125,0.18381500244140625,-0.21304599940776825,0.3058449923992157
1788164798658037000,10.044037109375,0.017789000645279884,-0.21098600327968597,0.21556200087070465
1788164798668123100,10.054123046875,-0.342305988073349,-0.3308820128440857,0.21466800570487976
1788164798678206500,10.06420654296875,-0.2863200008869171,-0.6272630095481873,0.4782159924507141
1788164798688291300,10.074291259765625,-0.2604990005493164,-0.8640660047531128,0.48164400458335876
1788164798698381800,10.0843818359375,-0.31839099526405334,-0.873291015625,0.1248209998011589
1788164798708466200,10.094466064453124,0.0687049999833107,-0.9703750014305115,0.09478999674320221
1788164798718553300,10.10455322265625,0.7367839813232422,-0.9395750164985657,0.015887999907135963
1788164798728641000,10.11464111328125,0.9533720016479492,-0.7917119860649109,-0.1786070019006729
1788164798738724000,10.12472412109375,0.9519450068473816,-0.7269530296325684,-0.25109899044036865
1788164798758891500,10.1448916015625,0.7298910021781921,-0.6547070145606995,-0.14066800475120544
1788164798779054800,10.165054931640626,0.3487429916858673,-0.7490299940109253,-0.030633000656962395
1788164798789133600,10.175133544921875,0.4035620093345642,-0.8604210019111633,0.16405700147151947
1788164798799210200,10.185210205078125,0.04231400042772293,-0.8906480073928833,0.14716899394989014
1788164798809299700,10.1952998046875,-0.06574399769306183,-1.0178309679031372,0.2983640134334564
1788164798819383600,10.205383544921874,0.055879998952150345,-1.040153980255127,0.5105230212211609
1788164798829507300,10.21550732421875,-0.0358630008995533,-0.8569480180740356,0.35263898968696594
1788164798839595000,10.225594970703124,0.15081800520420074,-0.6051759719848633,0.1955679953098297
1788164798849686800,10.235686767578125,0.5715060234069824,-0.399524986743927,0.10230600088834763
1788164798859779800,10.24577978515625,0.7744330167770386,-0.3749310076236725,0.1911109983921051
1788164798869869000,10.255869140625,0.6483749747276306,-0.39313799142837524,0.03779599815607071
1788164798879965700,10.265965576171874,0.6671730279922485,-0.5241990089416504,0.08490400016307831
1788164798890062300,10.276062255859374,0.6778960227966309,-0.573764979839325,0.09963300079107285
1788164798900157400,10.286157470703126,0.38387998938560486,-0.5037469863891602,-0.2056950032711029
1788164798910254000,10.296254150390626,0.27496400475502014,-0.545553982257843,-0.18460200726985931
1788164798920348700,10.3063486328125,0.37786200642585754,-0.6473580002784729,-0.12530699372291565
1788164798930445000,10.316445068359375,0.30882200598716736,-0.76528400182724,0.01848899945616722
1788164798940536600,10.32653662109375,0.1402209997177124,-0.9423800110816956,0.11504899710416794
1788164798950631700,10.336631591796875,0.21234500408172607,-1.077186942100525,0.2991589903831482
1788164798960730600,10.346730712890626,0.2328770011663437,-1.073071002960205,0.34117698669433594
1788164798980911000,10.3669111328125,0.31355801224708557,-0.6630629897117615,-0.0178849995136261
1788164798990997200,10.376997314453124,0.5203880071640015,-0.49691399931907654,-0.005264999810606241
1788164799011176000,10.397176025390625,0.27511999011039734,-0.3812769949436188,-0.0581820011138916
1788164799021279200,10.407279296875,0.3268499970436096,-0.5026999711990356,0.20636600255966187
1788164799031366400,10.417366455078126,0.22231900691986084,-0.5796869993209839,0.14977000653743744
1788164799041453000,10.427453125,0.059369999915361404,-0.625698983669281,0.03251500055193901
1788164799051538200,10.4375380859375,0.027699999511241913,-0.49378499388694763,-0.1525219976902008
1788164799061636900,10.447636962890625,0.1575459986925125,-0.37345701456069946,-0.17608599364757538
1788164799071727900,10.457727783203126,0.05199899896979332,-0.23588399589061737,-0.38239800930023193
1788164799081820000,10.46781982421875,0.10612700134515762,-0.2123659998178482,-0.37894999980926514
1788164799091910700,10.47791064453125,0.21108199656009674,-0.2942729890346527,-0.21437600255012512
1788164799102004500,10.48800439453125,0.13552500307559967,-0.32562199234962463,-0.2405170053243637
1788164799112103200,10.498103271484375,0.15698200464248657,-0.42250001430511475,-0.0984480008482933
1788164799122195500,10.508195556640626,0.13241499662399292,-0.37616199254989624,-0.17848800122737885
1788164799132290000,10.5182900390625,0.15484899282455444,-0.31807300448417664,-0.17071199417114258
1788164799142377000,10.528376953125,-0.005659999791532755,-0.18205900490283966,-0.37862300872802734
1788164799152468500,10.538468505859376,0.12283799797296524,-0.11192499846220016,-0.40964099764823914
1788164799162556400,10.548556396484376,0.2077929973602295,-0.08142100274562836,-0.36865198612213135
1788164799172650200,10.558650146484375,0.16639499366283417,-0.03830699995160103,-0.5773249864578247
1788164799182744600,10.56874462890625,0.17470400035381317,-0.10197000205516815,-0.48268601298332214
1788164799192840200,10.578840087890624,0.2089190036058426,-0.1145310029387474,-0.48051199316978455
1788164799202926600,10.588926513671876,0.049646999686956406,-0.1254729926586151,-0.4662860035896301
1788164799213013000,10.599012939453125,-0.10465899854898453,0.16231299936771393,-0.6656450033187866
1788164799223104500,10.6091044921875,-0.12415699660778046,0.16441799700260162,-0.46315300464630127
1788164799233196500,10.619196533203125,0.034210000187158585,0.13641400635242462,-0.354449987411499
1788164799243286800,10.629286865234375,0.11866100132465363,0.12709900736808777,-0.40045401453971863
1788164799253371400,10.639371337890625,0.22695399820804596,-0.007737999781966209,-0.01752300001680851
1788164799263462700,10.649462646484375,0.31550899147987366,-0.07620199769735336,0.2410530000925064
1788164799273543000,10.65954296875,-0.031266000121831894,-0.05013899877667427,0.24895000457763672
1788164799283628500,10.669628662109375,-0.24808700382709503,0.007348999846726656,0.06297300010919571
1788164799293715000,10.67971484375,-0.10943099856376648,0.03555399924516678,-0.051298998296260834
1788164799303804400,10.689804443359375,0.07976700365543365,0.03484300151467323,-0.09458299726247787
1788164799313888800,10.699888671875,0.19544300436973572,-0.04385500028729439,-0.10665299743413925
1788164799323980500,10.70998046875,0.3584809899330139,-0.09043999761343002,0.08637499809265137
1788164799334071600,10.720071533203125,0.541575014591217,-0.057725001126527786,0.35626599192619324
1788164799344160800,10.730160888671875,0.23968900740146637,-0.28123000264167786,0.5198860168457031
1788164799354251300,10.740251220703126,-0.0005130000063218176,-0.4964529871940613,0.7089769840240479
1788164799364341200,10.75034130859375,0.11773999780416489,-0.6307740211486816,0.9524009823799133
1788164799374429700,10.7604296875,0.09999500215053558,-0.7025570273399353,0.8724309802055359
1788164799384519000,10.770518798828125,0.05825800076127052,-0.8541489839553833,0.8771939873695374
1788164799394607600,10.780607666015625,0.12988099455833435,-1.0411579608917236,0.9354239702224731
1788164799404690200,10.790690185546875,0.20798000693321228,-1.1778980493545532,1.0188720226287842
1788164799414775800,10.80077587890625,-0.08116000145673752,-1.1400439739227295,0.8518109917640686
1788164799424864800,10.81086474609375,0.01816600002348423,-0.9839820265769958,0.7947800159454346
1788164799434946300,10.8209462890625,0.29469600319862366,-0.7903770208358765,0.8103209733963013
1788164799445038000,10.8310380859375,0.08390499651432037,-0.5843930244445801,0.6229450106620789
1788164799455125800,10.841125732421874,0.1384740024805069,-0.5470250248908997,0.5987610220909119
1788164799465214000,10.8512138671875,0.4050309956073761,-0.5090370178222656,0.638014018535614
1788164799475313400,10.8613134765625,0.36710599064826965,-0.5341579914093018,0.8078500032424927
1788164799485408000,10.871407958984374,-0.0005799999926239252,-0.46786099672317505,0.5704789757728577
1788164799495499000,10.8814990234375,0.09438099712133408,-0.4698350131511688,0.44500699639320374
1788164799505577700,10.89157763671875,0.21468700468540192,-0.3979020118713379,0.2800990045070648
1788164799515671800,10.901671875,0.058552999049425125,-0.22331799566745758,-0.14380300045013428
1788164799525750300,10.911750244140626,0.1732950061559677,-0.2110610008239746,-0.13061699271202087
1788164799535842600,10.921842529296875,0.24441500008106232,-0.18767300248146057,-0.055876001715660095
1788164799545923800,10.931923828125,-0.07223699986934662,-0.30038198828697205,0.1822109967470169
1788164799556019200,10.942019287109375,-0.4172070026397705,-0.3793579936027527,0.2358900010585785
1788164799566110200,10.952110107421875,-0.17391100525856018,-0.3308039903640747,0.2553659975528717
1788164799576197400,10.962197265625,0.01579900085926056,-0.18209199607372284,0.20372000336647034
1788164799586290700,10.972290771484374,0.02049100026488304,0.09529799968004227,-0.18903300166130066
1788164799596382700,10.9823828125,0.263621985912323,0.26614800095558167,-0.2009889930486679
1788164799606468900,10.99246875,0.4049220085144043,0.286641001701355,-0.12890200316905975
1788164799616559900,11.002559814453125,0.1036280021071434,0.15605099499225616,-0.10671500116586685
1788164799626644000,11.01264404296875,-0.10819900035858154,-0.0686969980597496,-0.01522199995815754
1788164799636742000,11.022741943359375,0.05254099890589714,-0.23816700279712677,0.17147299647331238
1788164799646832600,11.03283251953125,0.041120000183582306,-0.29591700434684753,0.1235869973897934
1788164799656923600,11.042923583984376,-0.08244799822568893,-0.2409289926290512,0.0008970000199042261
1788164799667011300,11.05301123046875,0.136136993765831,-0.22690799832344055,0.009158000349998474
1788164799677097000,11.063096923828125,0.173908993601799,-0.26013800501823425,0.018581999465823174
1788164799687196700,11.07319677734375,-0.1284320056438446,-0.19507500529289246,-0.11534799635410309
1788164799697286400,11.083286376953126,0.026695000007748604,-0.1914989948272705,-0.06860200315713882
1788164799707378700,11.093378662109375,0.2733510136604309,-0.18345700204372406,0.04652100056409836
1788164799717469400,11.103469482421875,0.22696399688720703,-0.14498700201511383,0.031592998653650284
1788164799727559400,11.113559326171876,0.06692100316286087,-0.17299999296665192,0.10861899703741074
1788164799737657300,11.1236572265625,0.12894099950790405,-0.19467200338840485,0.1417119950056076
1788164799747744800,11.133744873046876,0.06949900090694427,-0.30083200335502625,0.2732909917831421
1788164799757836800,11.1438369140625,-0.18543699383735657,-0.32629498839378357,0.06284199655056
1788164799767928800,11.1539287109375,0.028279000893235207,-0.3282279968261719,0.0642469972372055
1788164799778017800,11.164017822265626,0.1653449982404709,-0.27607598900794983,0.18512000143527985
1788164799788110600,11.174110595703125,0.11633700132369995,-0.21213500201702118,0.0894860029220581
1788164799798199300,11.18419921875,0.10118400305509567,-0.3038110136985779,0.22840799391269684
1788164799808286000,11.194285888671875,0.11942099779844284,-0.3155460059642792,0.2438489943742752
1788164799818377200,11.204377197265625,0.08120200037956238,-0.35461899638175964,0.3645319938659668
1788164799828464400,11.21446435546875,-0.14878800511360168,-0.3403730094432831,0.14833100140094757
1788164799838557400,11.224557373046874,0.0142000000923872,-0.27643099427223206,0.05231500044465065
1788164799848644000,11.23464404296875,0.15493600070476532,-0.22028300166130066,0.05100100114941597
1788164799858737200,11.244737060546875,0.030040999874472618,-0.09826599806547165,-0.2411399930715561
1788164799868826600,11.25482666015625,0.08118800073862076,-0.09174799919128418,-0.3078539967536926
1788164799878917000,11.264917236328126,0.1657859981060028,-0.11918699741363525,-0.3333339989185333
1788164799888997400,11.274997314453126,0.13412800431251526,-0.23110300302505493,-0.04293400049209595
1788164799899085000,11.2850849609375,-0.03173699975013733,-0.2705659866333008,-0.03463200107216835
1788164799909159200,11.2951591796875,0.14792400598526,-0.33525800704956055,0.1814199984073639
1788164799919252000,11.305251953125,0.28486400842666626,-0.31944799423217773,0.38296499848365784
1788164799929342700,11.3153427734375,0.1682409942150116,-0.22120699286460876,0.2924650013446808
1788164799939436000,11.32543603515625,0.1493919938802719,-0.1564279943704605,0.42107999324798584
1788164799949518000,11.33551806640625,0.20100200176239014,-0.11837500333786011,0.47191300988197327
1788164799959601400,11.345601318359375,0.20186200737953186,-0.22179900109767914,0.6167659759521484
1788164799969692000,11.35569189453125,0.05518199875950813,-0.2715440094470978,0.46534600853919983
1788164799979783000,11.365782958984376,0.3078570067882538,-0.3270910084247589,0.4940820038318634
1788164799989880300,11.37588037109375,0.33502501249313354,-0.38924700021743774,0.481810986995697
1788164799999965400,11.38596533203125,0.1431870013475418,-0.32802700996398926,0.19832000136375427
1788164800010060800,11.396060791015625,0.08818899840116501,-0.3401019871234894,0.24393999576568604
1788164800020157200,11.4061572265625,0.07393500208854675,-0.33123400807380676,0.1606380045413971
1788164800030248400,11.41624853515625,-0.12428099662065506,-0.39203301072120667,0.24076800048351288
1788164800040344300,11.42634423828125,-0.2688319981098175,-0.35700100660324097,0.10896000266075134
1788164800050436900,11.436436767578124,-0.022407999262213707,-0.3107450008392334,0.14511899650096893
1788164800060529200,11.446529052734375,0.03601999953389168,-0.22965100407600403,0.18568800389766693
1788164800070620000,11.456619873046876,-0.04901999980211258,-0.11881700158119202,-0.017775999382138252
1788164800080702700,11.46670263671875,0.0426970012485981,-0.11517699807882309,0.045497000217437744
1788164800090791700,11.476791748046875,0.012450000271201134,-0.10396499931812286,-0.0015910000074654818
1788164800100879600,11.486879638671875,-0.05743899941444397,-0.15894299745559692,0.11765199899673462
1788164800110971000,11.496970947265625,-0.09558899700641632,-0.17577899992465973,0.05986500158905983
1788164800121064200,11.507064208984374,0.11181499809026718,-0.13493500649929047,0.13583500683307648
1788164800131156000,11.517156005859375,0.1588059961795807,-0.11521799862384796,0.1523970067501068
1788164800141249300,11.527249267578124,0.03232000023126602,0.0022060000337660313,-0.0015869999770075083
1788164800151333000,11.5373330078125,0.08490800112485886,-0.018396999686956406,0.11068999767303467
1788164800161423000,11.547423095703126,0.07623200118541718,-0.07107699662446976,0.1772090047597885
1788164800171511800,11.55751171875,-0.0678120031952858,-0.2234569936990738,0.34452399611473083
1788164800181599200,11.56759912109375,-0.17483000457286835,-0.3219279944896698,0.3197290003299713
1788164800191694000,11.577694091796875,0.01769700087606907,-0.32342100143432617,0.3588089942932129
1788164800201785300,11.587785400390626,0.13490599393844604,-0.2666119933128357,0.2734299898147583
1788164800211878700,11.597878662109375,0.09545499831438065,-0.14171700179576874,-0.030168000608682632
1788164800221973800,11.607973876953125,0.23196899890899658,-0.11858700215816498,0.008678000420331955
1788164800232067000,11.618067138671876,0.21949300169944763,-0.20937199890613556,0.10028500109910965
1788164800242163000,11.628162841796875,0.06075900048017502,-0.32349199056625366,0.21874000132083893
1788164800252249600,11.63824951171875,-0.003590000094845891,-0.40360501408576965,0.2689509987831116
1788164800262336500,11.64833642578125,0.23003900051116943,-0.3821699917316437,0.38916298747062683
1788164800272422000,11.658421875,0.18628600239753723,-0.2862739861011505,0.3893359899520874
1788164800282514200,11.66851416015625,-0.048193998634815216,-0.21150299906730652,0.26035499572753906
1788164800292596500,11.678596435546876,-0.02515299990773201,-0.22876699268817902,0.3554939925670624
1788164800302696200,11.6886962890625,-0.017041999846696854,-0.3079040050506592,0.3801169991493225
1788164800312791300,11.698791259765626,-0.05578500032424927,-0.4678730070590973,0.4540430009365082
1788164800322887000,11.708886962890626,0.04752900078892708,-0.543274998664856,0.29892200231552124
1788164800332972800,11.718972900390625,0.3317599892616272,-0.5018069744110107,0.24179500341415405
1788164800343065000,11.729065185546874,0.37052199244499207,-0.3703170120716095,0.0653730034828186
1788164800353152800,11.73915283203125,0.27031999826431274,-0.22036300599575043,-0.2781049907207489
1788164800363244000,11.749244140625,0.3846459984779358,-0.1495800018310547,-0.3337729871273041
1788164800373329000,11.759328857421876,0.38519299030303955,-0.19220399856567383,-0.2802799940109253
1788164800383421000,11.7694208984375,0.08526399731636047,-0.42085298895835876,-0.08749599754810333
1788164800393511400,11.779511474609375,-0.15562200546264648,-0.6534349918365479,0.08734700083732605
1788164800403600000,11.789599853515625,-0.2461169958114624,-0.6853950023651123,0.12717300653457642
1788164800413689300,11.799689453125,-0.1367260068655014,-0.6002600193023682,0.029404999688267708
1788164800423779600,11.809779541015626,-0.11185699701309204,-0.42049500346183777,-0.24475300312042236
1788164800433870300,11.819870361328125,0.08532500267028809,-0.2915320098400116,-0.27805501222610474
1788164800443964400,11.82996435546875,0.21971899271011353,-0.10446400195360184,-0.3072130084037781
1788164800454049000,11.840049072265625,0.21872299909591675,-0.06621100008487701,-0.17333699762821198
1788164800464142600,11.850142578125,0.17853699624538422,-0.0645039975643158,-0.1256289929151535
1788164800474226700,11.860226806640625,0.31768798828125,0.006260000169277191,-0.04400499910116196
1788164800484316000,11.87031591796875,0.40703898668289185,0.08058799803256989,0.04267600178718567
1788164800494400300,11.880400146484375,0.38131800293922424,0.02980799973011017,0.04744499921798706
1788164800504492000,11.890491943359375,0.39104101061820984,-0.31464898586273193,0.11779200285673141
1788164800514577700,11.90057763671875,0.3006860017776489,-0.5351259708404541,-0.02874699980020523
1788164800524666000,11.910666015625,0.05453300103545189,-0.5689970254898071,-0.16215699911117554
1788164800534762800,11.9207626953125,-0.2234870046377182,-0.4433850049972534,-0.2044840008020401
1788164800544848000,11.930847900390624,-0.2594580054283142,-0.19569100439548492,-0.05594399943947792
1788164800554932500,11.940932373046875,-0.3291659951210022,0.11417099833488464,0.12256000190973282
1788164800565024000,11.95102392578125,-0.49779701232910156,0.2578420042991638,0.1593479961156845
1788164800575110400,11.9611103515625,-0.34050899744033813,0.18764999508857727,0.26211100816726685
1788164800585197300,11.971197265625,-0.028812000527977943,0.07465499639511108,0.13772499561309814
1788164800595286300,11.981286376953125,0.009871000424027443,-0.02660300023853779,-0.023289000615477562
1788164800605378600,11.991378662109375,-0.09133800119161606,-0.040915001183748245,-0.0443280003964901
1788164800615457500,12.00145751953125,0.0826840028166771,-0.18564000725746155,-0.13835400342941284
1788164800625549800,12.0115498046875,0.21498599648475647,-0.15492799878120422,-0.21640199422836304
1788164800635642600,12.021642578125,0.15226399898529053,0.00010199999815085903,-0.5471190214157104
1788164800645727200,12.031727294921875,0.2339169979095459,0.19312499463558197,-0.624845027923584
1788164800655810300,12.041810302734374,0.1719209998846054,0.45029500126838684,-0.5603619813919067
1788164800665896400,12.051896484375,-0.09350299835205078,0.6714670062065125,-0.5127120018005371
1788164800675988700,12.06198876953125,-0.270891010761261,0.6851869821548462,-0.3208569884300232
1788164800686084900,12.0720849609375,-0.15594099462032318,0.5701379776000977,0.010432000271975994
1788164800696175900,12.08217578125,-0.04438899829983711,0.39744600653648376,0.1614290028810501
1788164800706273800,12.092273681640625,-0.0607369989156723,0.25738298892974854,0.016231000423431396
1788164800716371000,12.102370849609375,0.11590699851512909,0.04741299897432327,0.10966300219297409
1788164800726459600,12.112459716796875,0.23181599378585815,-0.10829100012779236,-0.004468999803066254
1788164800736545300,12.122545166015625,0.0347369983792305,-0.1742970049381256,-0.25775501132011414
1788164800746641000,12.132640869140625,-0.08125600218772888,-0.2536120116710663,-0.35294899344444275
1788164800756723000,12.142722900390625,0.004021000117063522,-0.22614499926567078,-0.2662079930305481
1788164800766809900,12.152809814453125,-0.08130600303411484,-0.07581300288438797,-0.3504520058631897
1788164800776894700,12.162894775390624,-0.25807899236679077,0.05961599946022034,-0.3393850028514862
1788164800786986500,12.172986572265625,-0.11858200281858444,0.07798600196838379,-0.09025999903678894
1788164800797072100,12.183072021484374,0.13068099319934845,0.11607400327920914,0.056331999599933624
1788164800807170300,12.19317041015625,0.06195700168609619,0.08013900369405746,0.07045699656009674
1788164800817261300,12.20326123046875,0.019516000524163246,-0.025553999468684196,0.1422629952430725
1788164800827354000,12.21335400390625,0.20169200003147125,-0.188400000333786,0.318589985370636
1788164800837435100,12.22343505859375,0.17782999575138092,-0.3638480007648468,0.3629100024700165
1788164800847528700,12.23352880859375,-0.017021000385284424,-0.5239449739456177,0.33713498711586
1788164800857608700,12.243608642578126,0.044881999492645264,-0.6257449984550476,0.32343000173568726
1788164800867690500,12.2536904296875,0.13551299273967743,-0.5652740001678467,0.2953909933567047
1788164800877774800,12.26377490234375,-0.04332999885082245,-0.4564799964427948,0.3081980049610138
1788164800887859000,12.27385888671875,-0.0802529975771904,-0.32930800318717957,0.4455130100250244
1788164800897945000,12.283945068359374,-0.002764000091701746,-0.2495889961719513,0.5786290168762207
1788164800908031000,12.294031005859376,0.02706499956548214,-0.08807499706745148,0.5468029975891113
1788164800918105900,12.30410595703125,-0.089369997382164,0.06986899673938751,0.43349000811576843
1788164800928185300,12.314185302734375,-0.037831999361515045,0.10951799899339676,0.31992799043655396
1788164800938273500,12.3242734375,0.030097000300884247,0.09857500344514847,0.23169900476932526
1788164800948363300,12.33436328125,-0.15203499794006348,0.00040600000647827983,0.12313400208950043
1788164800958451700,12.34445166015625,-0.1798429936170578,-0.14266400039196014,0.0697840005159378
1788164800968529200,12.354529052734375,-0.022115999832749367,-0.2672269940376282,0.14001500606536865
1788164800978612700,12.36461279296875,-0.02023399993777275,-0.27682599425315857,0.015643000602722168
1788164800988703000,12.374702880859376,-0.03440599888563156,-0.26894599199295044,-0.13043899834156036
1788164800998789600,12.38478955078125,0.05900700017809868,-0.24022400379180908,-0.1093209981918335
1788164801008888000,12.39488818359375,0.10378500074148178,-0.18831799924373627,-0.11454500257968903
1788164801018963700,12.404963623046875,-0.028351999819278717,-0.16025100648403168,-0.12151599675416946
1788164801029049000,12.415049072265624,-0.05078500136733055,-0.16431699693202972,-0.031387001276016235
1788164801039130400,12.42513037109375,-0.01593099907040596,-0.21377800405025482,0.1240679994225502
1788164801049209000,12.435208984375,-0.03548099845647812,-0.22729399800300598,0.1805189996957779
1788164801059291100,12.445291015625,-0.05390100181102753,-0.20662400126457214,0.12338700145483017
1788164801069377800,12.455377685546875,0.07319699972867966,-0.15559600293636322,0.1112390011548996
1788164801079454200,12.4654541015625,0.14304199814796448,-0.06176700070500374,0.10644599795341492
1788164801089542400,12.47554248046875,-0.01358100026845932,0.024114999920129776,-0.009862000122666359
1788164801099614700,12.48561474609375,-0.11988399922847748,0.04822799935936928,-0.06332100182771683
1788164801109705000,12.495705078125,-0.12042900174856186,0.04807300120592117,-0.04602799937129021
1788164801119786500,12.505786376953125,-0.16760200262069702,0.02098900079727173,-0.10534500330686569
1788164801129876700,12.515876708984376,-0.19705800712108612,0.02813499979674816,-0.2158699929714203
1788164801139952600,12.52595263671875,-0.04399299994111061,0.019176999107003212,-0.15847699344158173
1788164801150051300,12.53605126953125,0.05992399901151657,0.07658100128173828,-0.15904900431632996
1788164801160137200,12.54613720703125,0.008685999549925327,0.1295820027589798,-0.1369519978761673
1788164801170224000,12.55622412109375,-0.021555999293923378,0.13575200736522675,-0.03160199895501137
1788164801180310800,12.566310791015624,-0.08287400007247925,0.14094200730323792,0.10850600153207779
1788164801190415400,12.576415283203126,-0.2258719950914383,0.15805600583553314,0.14711399376392365
1788164801200495600,12.58649560546875,-0.2411230057477951,0.19459499418735504,0.04496999830007553
1788164801210586600,12.596586669921875,-0.20482799410820007,0.26602500677108765,0.033330999314785004
1788164801220667100,12.606667236328125,-0.009794999845325947,0.3657970130443573,-0.07734599709510803
1788164801230767600,12.616767578125,-0.05374300107359886,0.4886089861392975,-0.21834899485111237
1788164801240862000,12.626862060546875,-0.0886010006070137,0.5176399946212769,-0.24477100372314453
1788164801250953200,12.636953125,-0.10207200050354004,0.4507260024547577,-0.10749900341033936
1788164801261047000,12.647047119140625,-0.21984300017356873,0.42448699474334717,-0.27661800384521484
1788164801271140600,12.657140625,-0.19518199563026428,0.2886810004711151,-0.37082499265670776
1788164801281227300,12.667227294921876,-0.15051500499248505,0.1290159970521927,-0.4373610019683838
1788164801291323400,12.677323486328126,-0.00850799959152937,0.04403100162744522,-0.49139198660850525
1788164801301419800,12.687419677734376,-0.021462999284267426,0.024771999567747116,-0.5576559901237488
1788164801311511300,12.69751123046875,-0.02175300009548664,-0.022890999913215637,-0.2949010133743286
1788164801321601500,12.7076015625,-0.19547000527381897,-0.044169001281261444,-0.22394800186157227
1788164801331693800,12.71769384765625,-0.01423799991607666,-0.0603719986975193,-0.27180999517440796
1788164801341779200,12.727779296875,0.1493459939956665,-0.14912499487400055,-0.15385399758815765
1788164801351870000,12.737869873046876,0.19419600069522858,-0.15516500174999237,-0.13145799934864044
1788164801361952800,12.747952880859375,0.23860499262809753,-0.12578600645065308,-0.10019399970769882
1788164801372042800,12.758042724609375,0.04087899997830391,-0.2393449991941452,0.3691900074481964
1788164801382132500,12.768132568359375,-0.3084290027618408,-0.26090899109840393,0.38206300139427185
1788164801392223000,12.778222900390626,-0.18245099484920502,-0.3069379925727844,0.2671149969100952
1788164801402317600,12.788317626953125,-0.058389000594615936,-0.3497009873390198,0.4291659891605377
1788164801412412400,12.798412353515625,0.19292399287223816,-0.25779101252555847,0.20858299732208252
1788164801422503000,12.8085029296875,0.2893669903278351,-0.2630620002746582,0.4698919951915741
1788164801432598000,12.818597900390625,-0.08306100219488144,-0.17662400007247925,0.43442898988723755
1788164801442686700,12.828686767578125,-0.1421079933643341,-0.08825899660587311,0.20898999273777008
1788164801452783900,12.838783935546875,-0.20607300102710724,-0.0995040014386177,0.2140139937400818
1788164801462880500,12.848880615234375,-0.12449900060892105,-0.03860500082373619,-0.05297200009226799
1788164801472976000,12.858975830078125,-0.04270600154995918,0.020778000354766846,0.005822999868541956
1788164801483067100,12.869067138671875,-0.1345749944448471,0.06980600208044052,-0.04272900149226189
1788164801493166800,12.879166748046876,-0.08978500217199326,0.07220800220966339,-0.05606599897146225
1788164801503262200,12.88926220703125,-0.23905600607395172,0.029393000528216362,-0.11543799936771393
1788164801513357300,12.899357421875,-0.04125799983739853,0.03251799941062927,-0.2518259882926941
1788164801523448800,12.90944873046875,-0.09105399996042252,0.09233099967241287,-0.24274000525474548
1788164801533533000,12.919532958984375,-0.0204670000821352,0.21543799340724945,-0.4261919856071472
1788164801543612400,12.9296123046875,0.0019970000721514225,0.19358600676059723,-0.2673659920692444
1788164801553709000,12.939708984375,-0.06622499972581863,0.14240899682044983,-0.26841598749160767
1788164801563792000,12.9497919921875,-0.021331999450922012,0.06058799847960472,-0.05149799957871437
1788164801573885700,12.9598857421875,-0.05435299873352051,0.0806490033864975,-0.08519700169563293
