time,seconds_elapsed,z,y,x
1788164788757153300,0.1431533203125,-0.07782500237226486,0.3291749954223633,-0.18947499990463257
1788164788767243300,0.1532431640625,-0.11811249703168869,0.43793749809265137,-0.2199999988079071
1788164788777346000,0.163345947265625,-0.1915374994277954,0.6382749676704407,-0.2162874937057495
1788164788787428000,0.173427978515625,-0.25616249442100525,0.7933750152587891,-0.16871249675750732
1788164788797505800,0.183505859375,-0.2806375026702881,0.915612518787384,-0.11852499842643738
1788164788807595500,0.193595458984375,-0.2391124963760376,0.9926124811172485,-0.13571250438690186
1788164788837857300,0.223857177734375,-0.06324999779462814,0.7188500165939331,-0.36410000920295715
1788164788868145700,0.254145751953125,0.15674999356269836,0.36217498779296875,-0.4961000084877014
1788164788878228000,0.26422802734375,0.1775124967098236,0.36465001106262207,-0.5559124946594238
1788164788888317700,0.274317626953125,0.13832500576972961,0.4281750023365021,-0.6206749677658081
1788164788898404000,0.284404052734375,0.07975000143051147,0.549037516117096,-0.6793875098228455
1788164788908491800,0.29449169921875,0.04193750023841858,0.676087498664856,-0.7196750044822693
1788164788938756000,0.324756103515625,0.2190375030040741,0.977899968624115,-0.708674967288971
1788164788948843300,0.33484326171875,0.3485625088214874,1.0779999494552612,-0.7001500129699707
1788164788958929400,0.344929443359375,0.4328500032424927,1.1549999713897705,-0.7147250175476074
1788164788969022200,0.355022216796875,0.39489999413490295,1.2674750089645386,-0.7977749705314636
1788164788979101200,0.36510107421875,0.34485000371932983,1.2930500507354736,-0.8699625134468079
1788164788989191200,0.375191162109375,0.27156248688697815,1.400575041770935,-0.8980125188827515
1788164788999276300,0.3852763671875,0.17874999344348907,1.6216750144958496,-0.8822000026702881
1788164789009362700,0.39536279296875,0.10779999941587448,1.8367249965667725,-0.7709624767303467
1788164789029541000,0.415541015625,0.056512501090765,2.1067750453948975,-0.3653374910354614
1788164789039618800,0.425618896484375,0.0015124999918043613,2.1495375633239746,-0.29081249237060547
1788164789049714000,0.4357138671875,-0.0387750007212162,2.062774896621704,-0.3910500109195709
1788164789059803400,0.445803466796875,-0.04977500066161156,1.9454874992370605,-0.5583875179290771
1788164789069891600,0.4558916015625,-0.1377750039100647,2.038300037384033,-0.7391999959945679
1788164789079976400,0.4659765625,-0.25616249442100525,1.940537452697754,-0.7966749668121338
1788164789090066200,0.476066162109375,-0.5702124834060669,1.9637750387191772,-0.8430125117301941
1788164789100162800,0.486162841796875,-0.8853625059127808,1.969962477684021,-0.825962483882904
1788164789110253300,0.49625341796875,-1.1383625268936157,2.170300006866455,-0.7331500053405762
1788164789120335000,0.506335205078125,-1.290987491607666,2.583212375640869,-0.5741999745368958
1788164789130429000,0.516428955078125,-1.2971750497817993,2.918025016784668,-0.29452499747276306
1788164789140515800,0.526515869140625,-1.2091749906539917,2.921599864959717,-0.0147124994546175
1788164789150609400,0.536609375,-1.1101750135421753,3.0120749473571777,0.11838749796152115
1788164789160697300,0.546697265625,-1.0746999979019165,3.3442749977111816,0.12209999561309814
1788164789170787800,0.556787841796875,-1.1554124355316162,3.508037567138672,0.07081250101327896
1788164789180875300,0.566875244140625,-1.3520375490188599,3.387037515640259,0.04633750021457672
1788164789190959600,0.576959716796875,-1.5878499746322632,3.472562551498413,0.10009999573230743
1788164789201040000,0.587039794921875,-1.7626124620437622,3.5996124744415283,0.2699125111103058
1788164789211131400,0.59713134765625,-2.0460000038146973,3.7096123695373535,0.5130124688148499
1788164789221219300,0.60721923828125,-2.3416249752044678,3.8953750133514404,0.6852999925613403
1788164789231309800,0.617309814453125,-2.5396249294281006,4.132287502288818,0.6804875135421753
1788164789241395000,0.62739501953125,-2.640962600708008,4.320525169372559,0.5887749791145325
1788164789251489000,0.637489013671875,-2.5982000827789307,4.28876256942749,0.5717250108718872
1788164789261579800,0.647579833984375,-2.4150500297546387,4.085949897766113,0.6632999777793884
1788164789271663400,0.657663330078125,-2.1730499267578125,3.8611373901367188,0.8588249683380127
1788164789281748700,0.667748779296875,-2.2207624912261963,3.808612585067749,1.1129250526428223
1788164789291849000,0.677848876953125,-2.411337375640869,3.9491374492645264,1.352312445640564
1788164789301948000,0.687947998046875,-2.5541999340057373,4.14947509765625,1.4623124599456787
1788164789312043800,0.698043701171875,-2.61291241645813,4.1947126388549805,1.5527875423431396
1788164789322133500,0.708133544921875,-2.5249125957489014,4.0675249099731445,1.7029374837875366
1788164789332220000,0.718219970703125,-2.4076249599456787,3.7340874671936035,1.8581750392913818
1788164789342309400,0.728309326171875,-2.3770999908447266,3.4115123748779297,1.997462511062622
1788164789352404500,0.738404541015625,-2.258574962615967,3.226987600326538,2.093987464904785
1788164789362488600,0.748488525390625,-2.032525062561035,3.0804123878479004,2.0609874725341797
1788164789372576800,0.75857666015625,-1.8298499584197998,2.9546000957489014,2.0414624214172363
1788164789382663200,0.7686630859375,-1.7113250494003296,2.815312385559082,2.1195623874664307
1788164789392753700,0.778753662109375,-1.6343250274658203,2.481874942779541,2.1610875129699707
1788164789402833700,0.788833740234375,-1.6073750257492065,2.0590624809265137,2.1000375747680664
1788164789412931600,0.798931640625,-1.4155625104904175,1.7964375019073486,1.8997000455856323
1788164789423023000,0.809023193359375,-1.1554124355316162,1.7133874893188477,1.70541250705719
1788164789433115600,0.81911572265625,-0.8646000027656555,1.7219125032424927,1.617550015449524
1788164789443205600,0.82920556640625,-0.56045001745224,1.7256250381469727,1.5991250276565552
1788164789453294000,0.839294189453125,-0.24158750474452972,1.6741999387741089,1.5588375329971313
1788164789463384800,0.849384765625,-0.015537500381469727,1.4958624839782715,1.4623124599456787
1788164789473480400,0.85948046875,0.007699999958276749,1.2808125019073486,1.3547874689102173
1788164789483560200,0.869560302734375,-0.05582499876618385,0.98642498254776,1.298550009727478
1788164789493652500,0.879652587890625,-0.11811249703168869,0.8203250169754028,1.2167375087738037
1788164789503746800,0.889746826171875,-0.04001250118017197,0.7250375151634216,1.1092125177383423
1788164789513834800,0.899834716796875,0.20679999887943268,0.46970000863075256,1.0163999795913696
1788164789523922400,0.90992236328125,0.3546124994754791,0.41346248984336853,0.822112500667572
1788164789534010400,0.92001025390625,0.5928999781608582,0.335224986076355,0.6657750010490417
1788164789544097800,0.930097900390625,0.4536125063896179,0.255887508392334,0.6560124754905701
1788164789554184000,0.940183837890625,0.36313748359680176,0.2106499969959259,0.6584874987602234
1788164789564266800,0.950266845703125,0.506137490272522,0.2326499968767166,0.608299970626831
1788164789574362600,0.960362548828125,0.5574250221252441,0.34498751163482666,0.5277249813079834
1788164789584455700,0.97045556640625,0.5134249925613403,0.6370375156402588,0.3737249970436096
1788164789594557400,0.980557373046875,0.4768500030040741,0.7262749671936035,0.33838748931884766
1788164789604659000,0.990658935546875,0.383899986743927,0.7481374740600586,0.3469125032424927
1788164789614739500,1.000739501953125,0.4278999865055084,0.9009000062942505,0.29686251282691956
1788164789624824300,1.01082421875,0.562375009059906,1.1122374534606934,0.2761000096797943
1788164789634914600,1.02091455078125,0.3973749876022339,1.3725249767303467,0.1868624985218048
1788164789645013800,1.031013671875,0.5268999934196472,1.2930500507354736,0.09157499670982361
1788164789655100700,1.0411005859375,0.5391374826431274,0.9693750143051147,0.12457499653100967
1788164789665184800,1.051184814453125,0.43037500977516174,0.9399499893188477,0.08910000324249268
1788164789675276000,1.061276123046875,0.5941374897956848,1.021899938583374,0.02681249938905239
1788164789685361000,1.07136083984375,0.8225250244140625,0.9876624941825867,-0.02447500079870224
1788164789695443500,1.081443359375,0.9202874898910522,0.8166124820709229,-0.08071249723434448
1788164789705529300,1.091529296875,0.8127624988555908,0.5673249959945679,-0.12828749418258667
1788164789715616000,1.101615966796875,0.6051374673843384,0.27665001153945923,-0.16376249492168427
1788164789725697800,1.11169775390625,0.42666250467300415,-0.007974999956786633,-0.17352500557899475
1788164789735784700,1.12178466796875,0.28984999656677246,-0.11921250075101852,-0.14176249504089355
1788164789745869600,1.13186962890625,0.18108749389648438,-0.14973749220371246,-0.1405249983072281
1788164789755955500,1.14195556640625,0.12498749792575836,-0.12168750166893005,-0.13323749601840973
1788164789766035000,1.152034912109375,0.10422500222921371,-0.09597499668598175,-0.07823749631643295
1788164789776124200,1.162124267578125,0.056512501090765,-0.20102499425411224,-0.07823749631643295
1788164789786219000,1.172218994140625,0.030937500298023224,-0.2535499930381775,-0.14176249504089355
1788164789796308200,1.18230810546875,0.04922499880194664,-0.23154999315738678,-0.2639999985694885
1788164789806403000,1.192403076171875,0.1335124969482422,-0.15592500567436218,-0.36410000920295715
1788164789816483600,1.202483642578125,0.16032500565052032,-0.08621250092983246,-0.39338749647140503
1788164789826569500,1.212569580078125,0.10546249896287918,-0.09597499668598175,-0.36410000920295715
1788164789836655000,1.222655029296875,0.07851249724626541,-0.11316250264644623,-0.26881250739097595
1788164789846741200,1.2327412109375,0.21779999136924744,-0.12526249885559082,-0.17476250231266022
1788164789856827000,1.242826904296875,0.43037500977516174,0.07259999960660934,-0.020899999886751175
1788164789866919700,1.252919677734375,0.5403749942779541,0.518512487411499,0.19786250591278076
1788164789877003300,1.263003173828125,0.6489999890327454,0.6687999963760376,0.2919124960899353
1788164789887093200,1.27309326171875,0.5989499688148499,0.7750874757766724,0.26510000228881836
1788164789897174000,1.283174072265625,0.6172375082969666,0.9314249753952026,0.32862499356269836
1788164789907270400,1.2932705078125,0.8652874827384949,0.9351375102996826,0.603487491607666
1788164789921399300,1.3073994140625,1.297724962234497,0.5722749829292297,0.888112485408783
1788164789931487000,1.317487060546875,1.2024375200271606,0.45374998450279236,0.7732999920845032
1788164789941574100,1.32757421875,0.9862874746322632,0.3572250008583069,0.3431999981403351
1788164789951670300,1.337670166015625,1.0240999460220337,0.1190750002861023,-0.06599999964237213
1788164789961753000,1.347753173828125,1.2244374752044678,-0.1326874941587448,-0.17723749577999115
1788164789971844400,1.35784423828125,1.3271499872207642,0.0030249999836087227,-0.12952500581741333
1788164789981923600,1.367923583984375,1.441962480545044,0.260699987411499,-0.023237500339746475
1788164789992015400,1.378015380859375,1.4822499752044678,0.6822749972343445,0.13186250627040863
1788164790002100000,1.388099853515625,1.4224375486373901,1.0279500484466553,0.2956250011920929
1788164790012190200,1.398190185546875,1.3307249546051025,1.0316624641418457,0.3689124882221222
1788164790022280200,1.4082802734375,1.3527250289916992,1.0927125215530396,0.3909125030040741
1788164790032371000,1.418370849609375,1.2916749715805054,0.8349000215530396,0.24433749914169312
1788164790042457300,1.428457275390625,1.0510499477386475,0.23746250569820404,-0.2737624943256378
1788164790052543000,1.43854296875,0.8225250244140625,-0.04097500070929527,-0.9420124888420105
1788164790062630400,1.44863037109375,0.514662504196167,-0.23154999315738678,-1.617550015449524
1788164790072720400,1.458720458984375,0.3278000056743622,-0.3097875118255615,-2.1624624729156494
1788164790082804000,1.468803955078125,-0.03753750026226044,-0.41359999775886536,-2.4507999420166016
1788164790092900900,1.47890087890625,-0.4394499957561493,-0.1704999953508377,-2.4997498989105225
1788164790102982700,1.488982666015625,-0.8157874941825867,0.319412499666214,-2.4092750549316406
1788164790113073700,1.49907373046875,-1.1603624820709229,0.98642498254776,-2.2699875831604004
1788164790123152100,1.509152099609375,-1.5500375032424927,1.6864374876022339,-2.0781750679016113
1788164790133248500,1.51924853515625,-1.951949954032898,2.360874891281128,-1.726312518119812
1788164790143334700,1.529334716796875,-2.192574977874756,3.346750020980835,-1.2034000158309937
1788164790153418500,1.53941845703125,-2.1670000553131104,3.87461256980896,-0.7562500238418579
1788164790163508000,1.549508056640625,-1.8334250450134277,3.6668500900268555,-0.7282000184059143
1788164790173601000,1.55960107421875,-1.1309374570846558,3.632612466812134,-0.7966749668121338
1788164790183680800,1.5696806640625,-0.6190249919891357,3.839137554168701,-0.7684875130653381
1788164790193770000,1.57977001953125,-0.468874990940094,3.9539499282836914,-0.6268625259399414
1788164790203856100,1.589856201171875,-0.5836874842643738,4.153049945831299,-0.4008125066757202
1788164790213951500,1.599951416015625,-0.7583125233650208,4.581912517547607,-0.06366249918937683
1788164790224036600,1.61003662109375,-0.9453125,5.042537689208984,0.2870999872684479
1788164790234124800,1.620124755859375,-1.1603624820709229,4.837249755859375,0.686537504196167
1788164790244214000,1.630214111328125,-1.3729374408721924,3.7621374130249023,1.0286375284194946
1788164790254297000,1.640297119140625,-1.3899874687194824,1.940537452697754,1.2887874841690063
1788164790264382700,1.6503828125,-1.0308375358581543,0.24117499589920044,1.293737530708313
1788164790274503700,1.660503662109375,-0.4871625006198883,-0.993987500667572,1.0823999643325806
1788164790284588300,1.67058837890625,-0.16458749771118164,-1.6207125186920166,0.6620625257492065
1788164790294679600,1.680679443359375,-0.009487500414252281,-1.5669499635696411,0.14162500202655792
1788164790304766700,1.6907666015625,0.1775124967098236,-0.866937518119812,0.09033749997615814
1788164790314850000,1.70085009765625,0.19827499985694885,-0.3305499851703644,0.4349125027656555
1788164790324929800,1.7109296875,-0.007012499962002039,-0.2694999873638153,0.9296374917030334
1788164790335023900,1.72102392578125,-0.2733500003814697,-0.5895999670028687,1.3402124643325806
1788164790345106400,1.7311064453125,-0.49197500944137573,-1.10385000705719,1.5331250429153442
1788164790355197000,1.741197021484375,-0.6850249767303467,-1.5059000253677368,1.485550045967102
1788164790365285400,1.751285400390625,-0.8951249718666077,-1.9126249551773071,1.402500033378601
1788164790375378400,1.76137841796875,-1.1394624710083008,-2.5174875259399414,1.4220249652862549
1788164790385458000,1.7714580078125,-1.3411749601364136,-3.4275999069213867,1.5331250429153442
1788164790395551200,1.78155126953125,-1.482800006866455,-4.39766263961792,1.5771249532699585
1788164790405638000,1.791637939453125,-1.6660875082015991,-5.333487510681152,1.4403125047683716
1788164790415730000,1.80172998046875,-1.523087501525879,-4.65176248550415,0.25286251306533813
1788164790425813200,1.811813232421875,-1.0576499700546265,-3.334787368774414,-1.5149749517440796
1788164790435908000,1.821908203125,-0.6997374892234802,-2.7080624103546143,-2.74037504196167
1788164790445996800,1.831996826171875,-0.48592498898506165,-2.7311625480651855,-3.1167125701904297
1788164790456098800,1.842098876953125,-0.6447374820709229,-3.100212574005127,-2.6291375160217285
1788164790466184400,1.852184326171875,-1.3094124794006348,-2.6445374488830566,-1.1448249816894531
1788164790476273700,1.862273681640625,-1.9849499464035034,-1.8760499954223633,-0.054999999701976776
1788164790486369500,1.87236962890625,-2.2525250911712646,-0.8999375104904175,0.4164874851703644
1788164790496457700,1.882457763671875,-2.327049970626831,0.4927999973297119,0.5985375046730042
1788164790506543000,1.892543212890625,-2.069237470626831,1.030424952507019,0.6059625148773193
1788164790516629800,1.902629638671875,-1.427799940109253,0.9046124815940857,0.4054875075817108
1788164790526715100,1.912715087890625,-0.33934998512268066,0.9717124700546265,0.01952499896287918
1788164790536802600,1.922802490234375,-0.08524999767541885,0.7273749709129333,-0.054999999701976776
1788164790546893800,1.932893798828125,-0.9586499929428101,0.7213249802589417,0.3811500072479248
1788164790556982500,1.942982421875,-1.6538499593734741,0.3156999945640564,0.9271624684333801
1788164790567073300,1.9530732421875,-1.353274941444397,1.4335750341415405,0.45691248774528503
1788164790577162200,1.963162353515625,-0.4236375093460083,2.1910624504089355,-0.8931999802589417
1788164790587254300,1.973254150390625,-0.27816250920295715,1.5361499786376953,-1.918125033378601
1788164790597350100,1.98335009765625,-0.6825500130653381,1.245474934577942,-2.1234123706817627
1788164790607440400,1.9934404296875,-1.0173624753952026,1.5093375444412231,-2.0611250400543213
1788164790617527800,2.00352783203125,-1.0185999870300293,1.317525029182434,-2.197937488555908
1788164790627618600,2.01361865234375,-0.9025499820709229,0.911899983882904,-2.3934624195098877
1788164790637706500,2.02370654296875,-0.7229750156402588,0.8263750076293945,-2.3237500190734863
1788164790647791600,2.03379150390625,-0.39544999599456787,0.7420874834060669,-1.9328374862670898
1788164790657874000,2.0438740234375,-0.48221248388290405,0.5832750201225281,-1.4966875314712524
1788164790667966500,2.053966552734375,-0.7107374668121338,0.6480374932289124,-0.9737749695777893
1788164790678049300,2.06404931640625,-0.7167875170707703,1.2955249547958374,-0.3335750102996826
1788164790688139300,2.07413916015625,-0.7155500054359436,1.9027249813079834,0.29315000772476196
1788164790698227200,2.084227294921875,-0.631262481212616,2.4524500370025635,0.8685874938964844
1788164790708320500,2.094320556640625,-0.565262496471405,2.772549867630005,1.4305499792099
1788164790718405000,2.104405029296875,-0.4296875,2.652787446975708,1.976699948310852
1788164790728485600,2.114485595703125,-0.05706249922513962,2.539212465286255,2.2637999057769775
1788164790738564000,2.124564208984375,0.4328500032424927,2.8617875576019287,2.1562750339508057
1788164790748649200,2.134649169921875,0.8262374997138977,2.706549882888794,1.6834124326705933
1788164790758733300,2.1447333984375,1.126675009727478,1.7804875373840332,1.1959749460220337
1788164790768818700,2.154818603515625,1.2489124536514282,0.5795624852180481,0.8551124930381775
1788164790778894600,2.16489453125,1.179337501525879,-0.6030749678611755,0.5447750091552734
1788164790799059000,2.185058837890625,0.8102874755859375,-2.048337459564209,0.16733749210834503
1788164790809155800,2.19515576171875,0.706475019454956,-2.390437602996826,0.23938749730587006
1788164790819241500,2.205241455078125,0.6051374673843384,-2.513774871826172,0.5094375014305115
1788164790829328400,2.215328369140625,0.5684249997138977,-2.376962423324585,0.7855374813079834
1788164790839417000,2.2254169921875,0.5219500064849854,-2.0714375972747803,0.9003499746322632
1788164790849502200,2.235502197265625,0.304562509059906,-1.0978000164031982,0.47148749232292175
1788164790859581200,2.245581298828125,0.11151249706745148,-0.43312498927116394,-0.0317624993622303
1788164790869669600,2.255669677734375,0.057750001549720764,-0.2633124887943268,-0.24557499587535858
1788164790879752000,2.265751953125,0.11027500033378601,-0.25478750467300415,-0.15399999916553497
1788164790889844700,2.2758447265625,0.0845625028014183,-0.3195500075817108,0.07081250101327896
1788164790899927600,2.285927490234375,-0.12058749794960022,-0.414837509393692,0.210099995136261
1788164790910017800,2.296017822265625,-0.3746874928474426,-0.20102499425411224,0.33096250891685486
1788164790920105500,2.30610546875,-0.47244998812675476,-0.09473749995231628,0.4361499845981598
1788164790930187500,2.3161875,-0.45416250824928284,-0.24873749911785126,0.5167250037193298
1788164790940273400,2.3262734375,-0.1658249944448471,-0.6726499795913696,0.6462500095367432
1788164790950367200,2.3363671875,0.11151249706745148,-0.941462516784668,0.5582500100135803
1788164790960467500,2.346467529296875,0.3143250048160553,-0.6676999926567078,0.3554374873638153
1788164790970556200,2.35655615234375,0.25808748602867126,-0.22673749923706055,0.20886249840259552
1788164790980673800,2.366673828125,0.10779999941587448,0.011549999937415123,0.08910000324249268
1788164790990766800,2.376766845703125,0.008937500417232513,-0.09721250087022781,-0.045237500220537186
1788164791000849000,2.386848876953125,0.16279999911785126,-0.37207499146461487,-0.19676250219345093
1788164791010938000,2.396938232421875,0.2825624942779541,-0.42336249351501465,-0.2993375062942505
1788164791021024500,2.4070244140625,0.5183749794960022,-0.5003625154495239,-0.39352500438690186
1788164791031116500,2.417116455078125,0.8945749998092651,-0.7203624844551086,-0.40933749079704285
1788164791041195500,2.427195556640625,1.3734874725341797,-1.1430374383926392,-0.32010000944137573
1788164791051283000,2.437282958984375,1.3979624509811401,-0.9792749881744385,-0.47533750534057617
1788164791061372400,2.447372314453125,1.2134374380111694,-0.819225013256073,-0.45704999566078186
1788164791071465200,2.45746533203125,0.9300500154495239,-0.4197874963283539,-0.31033748388290405
1788164791081545000,2.467544921875,0.6477624773979187,-0.11921250075101852,-0.3910500109195709
1788164791091636000,2.477635986328125,0.5011875033378601,0.24488750100135803,-0.651199996471405
1788164791101722400,2.487722412109375,0.403425008058548,0.6333249807357788,-0.8124874830245972
1788164791111815400,2.4978154296875,0.23732499778270721,1.1855249404907227,-0.7954375147819519
1788164791121900300,2.507900390625,0.256850004196167,1.6608624458312988,-0.6353874802589417
1788164791131999000,2.5179990234375,0.22151249647140503,1.5741000175476074,-0.8540124893188477
1788164791142087400,2.52808740234375,-0.09982500225305557,1.4812874794006348,-1.2388750314712524
1788164791152177000,2.538177001953125,-0.4553999900817871,1.4970999956130981,-1.5944499969482422
1788164791162267000,2.548266845703125,-0.8780750036239624,1.6669124364852905,-1.6737874746322632
1788164791172359700,2.558359619140625,-1.3619375228881836,2.1348249912261963,-1.4612125158309937
1788164791182446000,2.568446044921875,-1.7833750247955322,2.8788375854492188,-1.251112461090088
1788164791192532200,2.5785322265625,-2.321000099182129,3.4285624027252197,-1.122825026512146
1788164791202615300,2.588615234375,-2.966012477874756,3.5129873752593994,-1.085012435913086
1788164791212701000,2.598700927734375,-2.8547749519348145,2.9143126010894775,-0.9285374879837036
1788164791222790400,2.608790283203125,-2.489574909210205,2.7700750827789307,-0.6206749677658081
1788164791232881700,2.618881591796875,-1.8713749647140503,2.283874988555908,-0.3018124997615814
1788164791242964200,2.628964111328125,-1.3179374933242798,1.0879000425338745,-0.08799999952316284
1788164791253054700,2.6390546875,-1.1676499843597412,-0.2377374917268753,-0.02199999988079071
1788164791263147800,2.649147705078125,-1.2482249736785889,-0.6213625073432922,0.282150000333786
1788164791273233200,2.659233154296875,-1.1921249628067017,-0.30002498626708984,0.6925874948501587
1788164791283322000,2.669322021484375,-1.2544125318527222,-0.08139999955892563,0.7940624952316284
1788164791293407500,2.679407470703125,-1.4975124597549438,0.19717499613761902,0.5814874768257141
1788164791303499500,2.68949951171875,-1.7919000387191772,0.15812499821186066,0.19910000264644623
1788164791313582800,2.699582763671875,-1.2141250371932983,-0.5308874845504761,-0.19181250035762787
1788164791323666700,2.709666748046875,-0.38458749651908875,-0.6604124903678894,-0.5339124798774719
1788164791333754600,2.719754638671875,0.07727500051259995,-0.8497499823570251,-0.5106750130653381
1788164791343832600,2.72983251953125,0.6307125091552734,-1.3153250217437744,-0.30428749322891235
1788164791353923000,2.739923095703125,0.6014249920845032,-1.270087480545044,0.15015000104904175
1788164791364008000,2.750008056640625,0.5293750166893005,-1.0392249822616577,0.42748749256134033
1788164791374091300,2.76009130859375,0.5293750166893005,-0.6994624733924866,0.43367499113082886
1788164791384179200,2.77017919921875,0.4351874887943268,-0.2157374918460846,0.4067249894142151
1788164791394271000,2.78027099609375,0.3998500108718872,0.24736249446868896,0.37248748540878296
1788164791404357400,2.790357421875,0.523187518119812,0.2901250123977661,0.37014999985694885
1788164791414443300,2.800443359375,0.5427125096321106,0.24365000426769257,0.4104374945163727
1788164791424531000,2.810531005859375,0.3485625088214874,0.1568875014781952,0.467912495136261
1788164791434621400,2.820621337890625,0.17132499814033508,0.1825999915599823,0.6584874987602234
1788164791444708600,2.83070849609375,0.08703749626874924,0.13983750343322754,0.8820624947547913
1788164791454803500,2.840803466796875,0.08703749626874924,-0.16568750143051147,1.0628750324249268
1788164791464884500,2.850884521484375,0.06751249730587006,-0.4465999901294708,1.1679250001907349
1788164791474976300,2.860976318359375,-0.008249999955296516,-0.7666999697685242,1.1776875257492065
1788164791485056000,2.871055908203125,-0.4809750020503998,-1.146612524986267,1.031112551689148
1788164791495145200,2.881145263671875,-0.9746000170707703,-1.015987515449524,0.869825005531311
1788164791505230800,2.89123095703125,-1.116362452507019,-0.8119375109672546,0.7842999696731567
1788164791515326000,2.901325927734375,-1.085837483406067,-0.5846499800682068,0.6217749714851379
1788164791525412000,2.911412109375,-1.0148874521255493,-0.3195500075817108,0.5863000154495239
1788164791535505200,2.921505126953125,-1.0296000242233276,0.11288750171661377,0.5387250185012817
1788164791545589500,2.931589599609375,-1.0686500072479248,0.6993250250816345,0.5325375199317932
1788164791555681000,2.941680908203125,-1.090649962425232,1.0987625122070312,0.5142499804496765
1788164791565768400,2.9517685546875,-1.2177000045776367,1.7744375467300415,0.35667499899864197
1788164791575854800,2.961854736328125,-1.5072749853134155,2.529449939727783,0.24186250567436218
1788164791585943000,2.971943115234375,-1.8468999862670898,3.360224962234497,0.29919999837875366
1788164791596038400,2.982038330078125,-2.065662384033203,3.922187566757202,0.48496249318122864
1788164791606120000,2.992119873046875,-2.08023738861084,4.208049774169922,0.6705874800682068
1788164791616211500,3.00221142578125,-1.832187533378601,4.285049915313721,0.840399980545044
1788164791626308000,3.01230810546875,-1.4815624952316284,4.1824750900268555,0.8001124858856201
1788164791636396300,3.022396240234375,-0.9453125,3.6680874824523926,0.4470124840736389
1788164791646493400,3.032493408203125,-0.3746874928474426,2.812837600708008,0.037812501192092896
1788164791656575500,3.042575439453125,0.3656125068664551,2.121350049972534,-0.2480500042438507
1788164791666665000,3.0526650390625,1.1523874998092651,1.3150500059127808,-0.6439124941825867
1788164791676749000,3.0627490234375,0.6575250029563904,1.104949951171875,-1.2253999710083008
1788164791686840300,3.07284033203125,-0.38087499141693115,1.3639999628067017,-1.1948750019073486
1788164791696927200,3.08292724609375,-1.3289375305175781,1.2282874584197998,-0.7441499829292297
1788164791707016000,3.093015869140625,-1.9299499988555908,0.5625125169754028,-0.305525004863739
1788164791717101600,3.1031015625,-1.47798752784729,-0.40149998664855957,0.006049999967217445
1788164791727187000,3.11318701171875,-0.5774999856948853,-1.441137433052063,0.02928750030696392
1788164791737277700,3.123277587890625,-0.11082500219345093,-1.6854749917984009,-0.1344749927520752
1788164791747368400,3.133368408203125,-0.22687499225139618,-1.6597625017166138,-0.3605250120162964
1788164791757455600,3.14345556640625,-0.9758374691009521,-1.0978000164031982,-0.6841999888420105
1788164791767544800,3.153544921875,-2.1315250396728516,-0.2829749882221222,-0.8637750148773193
1788164791777628200,3.163628173828125,-2.0607125759124756,0.2681249976158142,-0.8687250018119812
1788164791787714000,3.173714111328125,-1.4377000331878662,0.5257999897003174,-1.0555875301361084
1788164791797800000,3.183800048828125,-0.4651624858379364,0.784850001335144,-1.1875874996185303
1788164791807890000,3.193889892578125,0.3338499963283539,-0.022687500342726707,-1.1583000421524048
1788164791817967400,3.20396728515625,0.8395749926567078,-2.6860625743865967,-0.7697250247001648
1788164791828066600,3.214066650390625,0.6269999742507935,-2.4917750358581543,-0.19181250035762787
1788164791838152200,3.224152099609375,0.23127499222755432,0.9546625018119812,-0.062424998730421066
1788164791848242700,3.23424267578125,0.38885000348091125,2.7579751014709473,0.11233749985694885
1788164791858349300,3.244349365234375,0.4010874927043915,1.869724988937378,0.15015000104904175
1788164791868433200,3.25443310546875,0.24956250190734863,0.46970000863075256,0.23333749175071716
1788164791878512600,3.2645126953125,0.1615625023841858,-0.3073124885559082,0.30291250348091125
1788164791888599800,3.274599853515625,0.07727500051259995,-0.36973750591278076,0.2761000096797943
1788164791898680300,3.284680419921875,0.07122500240802765,-0.21078750491142273,0.15138749778270721
1788164791908773000,3.294773193359375,0.06503749638795853,-0.13750000298023224,-0.010999999940395355
1788164791918866200,3.3048662109375,0.007699999958276749,-0.1802625060081482,-0.17352500557899475
1788164791939043800,3.3250439453125,-0.08401250094175339,-0.6616500020027161,-0.5889124870300293
1788164791949128700,3.335128662109375,-0.08524999767541885,-0.5138375163078308,-0.38981249928474426
1788164791959198000,3.345197998046875,-0.09006249904632568,-0.33178749680519104,-0.07699999958276749
1788164791969294800,3.355294921875,-0.06806249916553497,-0.3293125033378601,0.11233749985694885
1788164791979380200,3.365380126953125,-0.10106249898672104,-0.3110249936580658,0.14162500202655792
1788164791989468400,3.375468505859375,-0.2073500007390976,-0.22302499413490295,0.18562500178813934
1788164791999543300,3.385543212890625,-0.3723500072956085,-0.1802625060081482,0.25286251306533813
1788164792009625000,3.395625,0.04675000160932541,-0.3073124885559082,0.2601499855518341
1788164792019711000,3.4057109375,1.3369125127792358,-0.04468749836087227,-0.08676250278949738
1788164792029796000,3.415796142578125,2.0564498901367188,0.2924624979496002,-0.3067624866962433
1788164792039887400,3.425887451171875,1.8683500289916992,0.34375,-0.31404998898506165
1788164792049980400,3.43598046875,0.9018625020980835,1.9735374450683594,0.2881999909877777
1788164792060070100,3.446070068359375,0.038224998861551285,2.541687488555908,1.0212124586105347
1788164792070161400,3.456161376953125,-0.20982499420642853,1.6962000131607056,1.4720749855041504
1788164792080243200,3.4662431640625,0.17503750324249268,0.40851250290870667,1.2044999599456787
1788164792090339600,3.476339599609375,0.6539499759674072,-0.2817375063896179,0.7878749966621399
1788164792100432600,3.4864326171875,0.8590999841690063,-0.4465999901294708,0.6242499947547913
1788164792110532600,3.49653271484375,0.6697624921798706,0.1788875013589859,0.49472498893737793
1788164792120618000,3.506617919921875,0.6551874876022339,0.7921375036239624,0.6095374822616577
1788164792130705400,3.516705322265625,0.4926624894142151,1.274762511253357,0.4959625005722046
1788164792140792800,3.526792724609375,0.15674999356269836,1.594862461090088,0.24914999306201935
1788164792150881500,3.536881591796875,-0.17434999346733093,1.64243745803833,0.07328750193119049
1788164792160962800,3.546962890625,-0.4614500105381012,1.3773374557495117,0.02681249938905239
1788164792171055600,3.5570556640625,-0.46392500400543213,0.5880874991416931,0.07328750193119049
1788164792181145600,3.5671455078125,-0.23787499964237213,-0.4185499846935272,-0.04647500067949295
1788164792191233000,3.57723291015625,-0.013199999928474426,-1.10385000705719,-0.28476250171661377
1788164792201324500,3.587324462890625,0.18851250410079956,-1.4691874980926514,-0.5436750054359436
1788164792211422200,3.597422119140625,0.27390000224113464,-1.5059000253677368,-0.7416750192642212
1788164792221507600,3.607507568359375,0.328900009393692,-1.2590874433517456,-0.7856749892234802
1788164792231592200,3.61759228515625,0.38885000348091125,-1.0855624675750732,-0.8234875202178955
1788164792241681700,3.627681640625,0.45471251010894775,-0.9792749881744385,-0.8552500009536743
1788164792261858000,3.647858154296875,0.5489000082015991,-0.6861249804496765,-0.909012496471405
1788164792271948000,3.657947998046875,0.5964750051498413,-0.5150749683380127,-0.8772500157356262
1788164792282033000,3.668032958984375,0.6294749975204468,-0.31831249594688416,-0.7599624991416931
1788164792292119800,3.678119873046875,0.6172375082969666,-0.2975499927997589,-0.5950999855995178
1788164792302210000,3.6882099609375,0.2849000096321106,-0.8204625248908997,-0.956725001335144
1788164792312293600,3.698293701171875,-0.31363749504089355,-0.6396499872207642,-1.0898250341415405
1788164792322385200,3.70838525390625,-0.6740249991416931,0.28022500872612,-0.7367249727249146
1788164792332473300,3.718473388671875,-0.9013124704360962,0.8788999915122986,-0.4558124840259552
1788164792342559000,3.72855908203125,-1.1041250228881836,1.3345749378204346,-0.17971250414848328
1788164792352648000,3.73864794921875,-1.3056999444961548,1.6083375215530396,0.11357499659061432
1788164792362733300,3.7487333984375,-1.2446500062942505,1.5875749588012695,0.273624986410141
1788164792372834300,3.758834228515625,-1.1175999641418457,1.4738625288009644,0.5154874920845032
1788164792382952200,3.7689521484375,-1.1468875408172607,1.4788124561309814,0.8160625100135803
1788164792393039400,3.779039306640625,-1.377750039100647,1.7524374723434448,1.1374000310897827
1788164792403128600,3.789128662109375,-1.7381374835968018,1.8746750354766846,1.4891250133514404
1788164792413225200,3.79922509765625,-0.870787501335144,1.3981000185012817,1.5893625020980835
1788164792423318300,3.809318359375,0.1335124969482422,0.8276125192642212,1.3047374486923218
1788164792433410800,3.819410888671875,0.9983875155448914,0.1849374920129776,0.682824969291687
1788164792443522600,3.8295224609375,1.5567749738693237,-0.03616249933838844,0.16362500190734863
1788164792453618200,3.8396181640625,1.6373499631881714,0.47203749418258667,0.1331000030040741
1788164792463704000,3.8497041015625,1.8365875482559204,0.8776624798774719,0.07081250101327896
1788164792473796600,3.859796630859375,2.034450054168701,0.649275004863739,-0.3568125069141388
1788164792483895300,3.869895263671875,1.9306374788284302,0.016362499445676804,-0.7746750116348267
1788164792504075000,3.890074951171875,1.0461000204086304,-1.59871244430542,-1.0385375022888184
1788164792514171000,3.9001708984375,0.21656249463558197,-1.865049958229065,-0.5656750202178955
1788164792524253200,3.910253173828125,-0.48592498898506165,-1.2187999486923218,0.2320999950170517
1788164792534350800,3.920350830078125,-0.743737518787384,-0.3843125104904175,0.8575875163078308
1788164792544435200,3.930435302734375,-0.5226374864578247,1.0439000129699707,0.9686874747276306
1788164792554527500,3.940527587890625,-0.06201250106096268,2.6284499168395996,0.5020124912261963
1788164792574706200,3.9607060546875,0.23980000615119934,2.882550001144409,-0.30428749322891235
1788164792584793900,3.9707939453125,0.0015124999918043613,1.8709625005722046,-0.32752498984336853
1788164792594882600,3.980882568359375,-0.32958748936653137,0.6700375080108643,-0.25423750281333923
1788164792604971000,3.990970947265625,-0.33934998512268066,0.45980000495910645,-0.11618749797344208
1788164792615061200,4.001061279296875,-0.1975875049829483,0.7360374927520752,-0.04647500067949295
1788164792625137400,4.011137451171875,-0.0424874983727932,1.3321000337600708,-0.045237500220537186
1788164792635230000,4.02122998046875,0.09556250274181366,1.8427749872207642,-0.030662499368190765
1788164792645321700,4.03132177734375,0.24956250190734863,2.1080124378204346,0.047575000673532486
1788164792655412500,4.04141259765625,0.41318750381469727,2.1250624656677246,0.16362500190734863
1788164792665497300,4.051497314453125,0.6221874952316284,1.9552500247955322,0.20886249840259552
1788164792675588000,4.061588134765625,0.8298124670982361,1.5703874826431274,0.15015000104904175
1788164792685671200,4.071671142578125,1.035099983215332,0.8471375107765198,0.06338749825954437
1788164792695764000,4.081763916015625,1.2513874769210815,-0.14368750154972076,-0.008662499487400055
1788164792705883000,4.0918828125,1.4309624433517456,-1.024512529373169,-0.10999999940395355
1788164792715971300,4.101971435546875,1.4907749891281128,-1.524187445640564,-0.2102375030517578
1788164792726059800,4.112059814453125,1.4040124416351318,-1.7660499811172485,-0.3433375060558319
1788164792736148000,4.12214794921875,1.1791999340057373,-1.8002874851226807,-0.44728749990463257
1788164792746255400,4.13225537109375,0.8725749850273132,-1.5742374658584595,-0.5315750241279602
1788164792756348400,4.142348388671875,0.6245250105857849,-1.1760375499725342,-0.5326749682426453
1788164792766443300,4.152443359375,0.4096125066280365,-0.6396499872207642,-0.3825249969959259
1788164792776534000,4.162533935546875,0.2433750033378601,0.05912499874830246,-0.10752499848604202
1788164792786628000,4.172628173828125,0.07851249724626541,0.7140374779701233,0.1905750036239624
1788164792796715800,4.1827158203125,-0.0387750007212162,1.0231374502182007,0.37619999051094055
1788164792806799400,4.19279931640625,-0.09006249904632568,0.9729499816894531,0.43367499113082886
1788164792816888800,4.202888916015625,-0.09006249904632568,0.6528499722480774,0.3811500072479248
1788164792826980000,4.21297998046875,-0.05348749831318855,0.2619374990463257,0.210099995136261
1788164792837071600,4.223071533203125,-0.03272499889135361,-0.0789249986410141,-0.006187499966472387
1788164792847158500,4.233158447265625,-0.03272499889135361,-0.3940750062465668,-0.17847499251365662
1788164792857244700,4.24324462890625,-0.027775000780820847,-0.5798375010490417,-0.2529999911785126
1788164792867334000,4.253333984375,-0.014299999922513962,-0.6274124979972839,-0.24447499215602875
1788164792877426000,4.263426025390625,0.018562499433755875,-0.5248374938964844,-0.1601874977350235
1788164792887510500,4.273510498046875,0.0625625029206276,-0.2609750032424927,-0.020899999886751175
1788164792897586700,4.283586669921875,0.057750001549720764,0.01759999990463257,0.1073874980211258
1788164792907677700,4.293677734375,0.005224999971687794,0.16183750331401825,0.1648624986410141
1788164792917773600,4.303773681640625,-0.025299999862909317,0.18617500364780426,0.1685750037431717
1788164792927862500,4.313862548828125,-0.04124999791383743,0.1288374960422516,0.13186250627040863
1788164792937947100,4.323947021484375,-0.022962499409914017,0.023649999871850014,0.07081250101327896
1788164792948036000,4.3340361328125,0.018562499433755875,-0.08621250092983246,0.006049999967217445
1788164792958122000,4.3441220703125,0.05156249925494194,-0.1802625060081482,-0.025712499395012856
1788164792968211700,4.354211669921875,0.0625625029206276,-0.27678748965263367,-0.05142499879002571
1788164792978295300,4.36429541015625,0.06379999965429306,-0.3610749840736389,-0.08071249723434448
1788164792988382200,4.37438232421875,0.0625625029206276,-0.4295499920845032,-0.08799999952316284
1788164792998460000,4.3844599609375,0.06627500057220459,-0.4258374869823456,-0.08676250278949738
1788164793008543700,4.394543701171875,0.07851249724626541,-0.31831249594688416,-0.09542500227689743
1788164793018622700,4.404622802734375,0.09308750182390213,-0.15716250240802765,-0.08799999952316284
1788164793028707600,4.41470751953125,0.09075000137090683,-0.06916250288486481,-0.04166249930858612
1788164793038798600,4.424798583984375,0.08098749816417694,-0.027637500315904617,0.0010999999940395355
1788164793048888600,4.434888671875,0.08098749816417694,-0.0471624992787838,0.015812499448657036
1788164793058964700,4.44496484375,0.04922499880194664,-0.15097500383853912,0.02186249941587448
1788164793069049900,4.4550498046875,-0.013199999928474426,-0.23045000433921814,0.0085249999538064
1788164793079125000,4.465125,-0.03396249935030937,-0.17902499437332153,-0.03189999982714653
1788164793089211000,4.4752109375,-0.010724999941885471,-0.026399999856948853,-0.054999999701976776
1788164793099296300,4.485296142578125,0.03698749840259552,0.10188750177621841,-0.02694999985396862
1788164793109380600,4.495380615234375,0.04922499880194664,0.07741250097751617,-0.00494999997317791
1788164793119469600,4.505469482421875,0.03203750029206276,-0.05939999967813492,-0.020899999886751175
1788164793139641600,4.5256416015625,-0.011962499469518661,-0.3244999945163727,-0.057475000619888306
1788164793149727000,4.53572705078125,-0.021724998950958252,-0.36726251244544983,-0.07095000147819519
1788164793159817500,4.5458173828125,-0.01677500084042549,-0.35007500648498535,-0.07947500050067902
1788164793169906700,4.55590673828125,-0.004537499975413084,-0.23045000433921814,-0.05142499879002571
1788164793179995100,4.5659951171875,-0.01677500084042549,-0.16802500188350677,-0.020899999886751175
1788164793190081000,4.5760810546875,-0.05953750014305115,-0.24255000054836273,-0.025712499395012856
1788164793200165400,4.586165283203125,-0.09982500225305557,-0.35007500648498535,-0.04399999976158142
1788164793210253800,4.59625390625,-0.11329999566078186,-0.36973750591278076,-0.0611874982714653
1788164793220343800,4.60634375,-0.10106249898672104,-0.33178749680519104,-0.08799999952316284
1788164793230439000,4.61643896484375,-0.0387750007212162,-0.13144999742507935,-0.08676250278949738
1788164793240526300,4.6265263671875,0.010037500411272049,0.12017499655485153,-0.018424998968839645
1788164793250617300,4.636617431640625,0.008799999952316284,0.2876499891281128,0.04028749838471413
1788164793260700200,4.6467001953125,-0.0034374999813735485,0.2839374840259552,0.03904999792575836
1788164793270795800,4.656795654296875,0.006462499964982271,0.2326499968767166,0.02928750030696392
1788164793280887600,4.666887451171875,-0.020487500354647636,0.22769999504089355,0.05486249923706055
1788164793290983700,4.676983642578125,-0.06201250106096268,0.18741250038146973,0.07328750193119049
1788164793301062700,4.687062744140625,-0.08648750185966492,0.09583749622106552,0.07438749819993973
1788164793311157000,4.697156982421875,-0.06324999779462814,-0.006874999962747097,0.06462500244379044
1788164793321244400,4.707244384765625,-0.026537500321865082,-0.04963750019669533,0.01209999993443489
1788164793331332600,4.71733251953125,0.02474999986588955,0.053075000643730164,-0.05623750016093254
1788164793341430300,4.72743017578125,0.0845625028014183,0.1751749962568283,-0.05871250107884407
1788164793351509000,4.737509033203125,0.11508750170469284,0.27898749709129333,0.002337499987334013
1788164793361600500,4.7476005859375,0.14327499270439148,0.335224986076355,0.07328750193119049
1788164793371685000,4.75768505859375,0.1615625023841858,0.3316499888896942,0.13186250627040863
1788164793381770800,4.767770751953125,0.11879999935626984,0.1849374920129776,0.1868624985218048
1788164793391857200,4.777857177734375,0.056512501090765,0.050599999725818634,0.20514999330043793
1788164793401941000,4.78794091796875,0.05898749828338623,0.1531749963760376,0.15991249680519104
1788164793412030000,4.798030029296875,0.08579999953508377,0.36451250314712524,0.09638749808073044
1788164793422121700,4.808121826171875,0.038224998861551285,0.4244624972343445,0.03657500073313713
1788164793432210700,4.818210693359375,0.018562499433755875,0.2241249978542328,-0.03423750028014183
1788164793442298600,4.828298583984375,0.02722499892115593,-0.12044999748468399,-0.10395000129938126
1788164793452388900,4.838388916015625,0.05156249925494194,-0.40149998664855957,-0.1564749926328659
1788164793462482000,4.84848193359375,0.023512499406933784,-0.9011750221252441,-0.2554749846458435
1788164793472567800,4.85856787109375,-0.07177499681711197,-1.2848000526428223,-0.39957499504089355
1788164793482664700,4.868664794921875,-0.12306249886751175,-1.4338500499725342,-0.4961000084877014
1788164793492747000,4.8787470703125,-0.08030000329017639,-1.3641375303268433,-0.4778124988079071
1788164793502840800,4.8888408203125,0.038224998861551285,-0.8804125189781189,-0.3433375060558319
1788164793512928000,4.898927978515625,0.17008750140666962,-0.2157374918460846,-0.14300000667572021
1788164793523020300,4.909020263671875,0.21326249837875366,0.43408748507499695,0.05857500061392784
1788164793533117000,4.919116943359375,0.18878750503063202,0.6527125239372253,0.16362500190734863
1788164793543202300,4.929202392578125,0.16554999351501465,0.35337498784065247,0.14038750529289246
1788164793553293000,4.93929296875,0.11550000309944153,-0.12911249697208405,0.03162499889731407
1788164793563383800,4.9493837890625,0.07768750190734863,-0.5457375049591064,-0.07947500050067902
1788164793573475300,4.959475341796875,-0.007837500423192978,-0.8915500044822693,-0.17723749577999115
1788164793583557600,4.9695576171875,-0.07507500052452087,-1.1664124727249146,-0.27623748779296875
1788164793593642800,4.979642822265625,-0.020075000822544098,-1.133412480354309,-0.353237509727478
1788164793603732200,4.989732177734375,0.09102500230073929,-0.870787501335144,-0.39723750948905945
1788164793613818400,4.999818359375,0.10821250081062317,-0.5616874694824219,-0.38376250863075256
1788164793623905500,5.009905517578125,0.023924998939037323,-0.5286874771118164,-0.3312374949455261
1788164793633989600,5.01998974609375,-0.10683749616146088,-0.9171249866485596,-0.3030500113964081
1788164793644080000,5.030080078125,-0.3059374988079071,-1.5109875202178955,-0.3984749913215637
1788164793654167000,5.0401669921875,-0.32065001130104065,-1.7051374912261963,-0.5730999708175659
1788164793664255700,5.050255859375,-0.37193748354911804,-1.3667500019073486,-0.5486249923706055
1788164793674338000,5.060338134765625,-0.2937000095844269,-0.6484500169754028,-0.03918749839067459
1788164793684429800,5.070429931640625,-0.29493749141693115,-0.12553749978542328,0.30896249413490295
1788164793704607200,5.090607177734375,-0.22165000438690186,0.36932501196861267,0.6058250069618225
1788164793714696200,5.1006962890625,1.375137448310852,-0.12306249886751175,0.420199990272522
1788164793724786400,5.110786376953125,2.010387420654297,-0.08524999767541885,0.34443750977516174
1788164793734876700,5.120876708984375,2.0446250438690186,-0.2293500006198883,0.1331000030040741
1788164793744977400,5.130977294921875,1.8235249519348145,-0.46021249890327454,-0.08442500233650208
1788164793755062800,5.141062744140625,1.478950023651123,-0.5359749794006348,-0.29205000400543213
1788164793765152500,5.151152587890625,0.8069875240325928,-0.4101625084877014,-0.2529999911785126
1788164793775238000,5.16123779296875,0.22907499969005585,-0.29782500863075256,-0.08813749998807907
1788164793785334500,5.17133447265625,-0.11178749799728394,-0.10958749800920486,0.07809999585151672
1788164793795421400,5.18142138671875,-0.24117499589920044,-0.0424874983727932,0.15138749778270721
1788164793805511200,5.19151123046875,-0.7165125012397766,0.31679999828338623,0.3139125108718872
1788164793815595800,5.201595703125,-1.1171875,0.5549499988555908,0.4542999863624573
1788164793825684200,5.211684326171875,-0.9131374955177307,0.4071374833583832,0.31501248478889465
1788164793835776500,5.221776611328125,-0.4977499842643738,0.24832500517368317,0.040150001645088196
1788164793845870600,5.23187060546875,-0.15207499265670776,0.30332499742507935,-0.12347500026226044
1788164793855956200,5.241956298828125,0.018975000828504562,0.6380000114440918,-0.07466249912977219
1788164793866046500,5.25204638671875,-0.08607500046491623,0.955762505531311,0.04867500066757202
1788164793876130800,5.262130859375,-0.2521750032901764,1.4529625177383423,0.21367499232292175
1788164793886223600,5.2722236328125,-0.3964124917984009,1.8548749685287476,0.3871999979019165
1788164793896317000,5.28231689453125,-0.3964124917984009,1.8976374864578247,0.38225001096725464
1788164793906412800,5.292412841796875,-0.35241249203681946,1.687537431716919,0.24667499959468842
1788164793916500000,5.3025,-0.6004624962806702,2.0356874465942383,0.282150000333786
1788164793926587100,5.312587158203125,-0.9253749847412109,2.530550003051758,0.45925000309944153
1788164793936678400,5.322678466796875,-0.8251374959945679,2.302025079727173,0.42377498745918274
1788164793946766300,5.332766357421875,-0.5405125021934509,1.725350022315979,0.22714999318122864
1788164793956855300,5.342855224609375,-0.21559999883174896,0.7407125234603882,0.045099999755620956
1788164793966955800,5.352955810546875,0.005499999970197678,-0.42721250653266907,-0.08813749998807907
1788164793977044200,5.363044189453125,0.09350000321865082,-1.3105125427246094,-0.22123749554157257
1788164793987134700,5.373134765625,0.06544999778270721,-1.5182750225067139,-0.28847500681877136
1788164793997225000,5.383224853515625,0.0006874999962747097,-1.3277000188827515,-0.3372874855995178
1788164794007319600,5.393319580078125,-0.009074999950826168,-1.0478874444961548,-0.37757501006126404
1788164794017401000,5.403401123046875,0.04468749836087227,-0.49568748474121094,-0.20418749749660492
1788164794027487200,5.4134873046875,0.07644999772310257,0.014987500384449959,0.023099999874830246
1788164794037568500,5.423568603515625,0.09721250087022781,0.23003749549388885,0.12086249887943268
1788164794047659300,5.4336591796875,0.116737499833107,0.19456249475479126,0.10491249710321426
1788164794057745700,5.44374560546875,0.10944999754428864,0.057750001549720764,0.0340999998152256
1788164794067826000,5.453825927734375,0.08249999582767487,-0.03148749843239784,-0.047712501138448715
1788164794077913600,5.46391357421875,0.05692499876022339,-0.029012499377131462,-0.11371249705553055
1788164794088001500,5.47400146484375,0.03726249933242798,0.040699999779462814,-0.13089999556541443
1788164794098081000,5.4840810546875,0.029975000768899918,0.113987497985363,-0.10889999568462372
1788164794108172300,5.49417236328125,0.026262499392032623,0.12498749792575836,-0.08318749815225601
1788164794118256000,5.504256103515625,0.025162499397993088,0.056512501090765,-0.04413750022649765
1788164794128356400,5.5143564453125,0.025162499397993088,-0.0448249988257885,0.010862499475479126
1788164794138455000,5.524455078125,0.026262499392032623,-0.08524999767541885,0.05609999969601631
1788164794148545000,5.534544921875,0.03616249933838844,-0.04729999974370003,0.06943749636411667
1788164794158629000,5.544629150390625,0.06902500241994858,0.04675000160932541,0.07686249911785126
1788164794168707800,5.554707763671875,0.10821250081062317,0.113987497985363,0.07315000146627426
1788164794178798600,5.564798583984375,0.13255000114440918,0.12732499837875366,0.05115000158548355
1788164794188882000,5.5748818359375,0.1424500048160553,0.10175000131130219,0.03657500073313713
1788164794198966500,5.584966552734375,0.13255000114440918,0.05403750017285347,0.04262499883770943
1788164794209046800,5.595046875,0.12155000120401382,0.045512501150369644,0.06338749825954437
1788164794219127600,5.60512744140625,0.11302500218153,0.09556250274181366,0.07562500238418579
1788164794229206800,5.615206787109375,0.10821250081062317,0.17998750507831573,0.0976250022649765
1788164794239285800,5.62528564453125,0.10573749989271164,0.26179999113082886,0.12086249887943268
1788164794249372700,5.63537255859375,0.09968750178813934,0.2923249900341034,0.12209999561309814
1788164794259456800,5.645456787109375,0.09226249903440475,0.24956250190734863,0.11343749612569809
1788164794269532400,5.655532470703125,0.08249999582767487,0.18108749389648438,0.10986249893903732
1788164794279622400,5.665622314453125,0.08249999582767487,0.15798750519752502,0.10243749618530273
1788164794289706200,5.675706298828125,0.09350000321865082,0.16898749768733978,0.08662500232458115
1788164794299789000,5.6857890625,0.11178749799728394,0.1970375031232834,0.06943749636411667
1788164794309875700,5.695875732421875,0.12526249885559082,0.19951249659061432,0.06091250106692314
1788164794319961300,5.70596142578125,0.13021250069141388,0.17132499814033508,0.05486249923706055
1788164794330047700,5.7160478515625,0.12278749793767929,0.11027500033378601,0.04633750021457672
1788164794340141000,5.72614111328125,0.10573749989271164,0.055275000631809235,0.04138749837875366
1788164794350227000,5.73622705078125,0.09844999760389328,0.047987498342990875,0.032862499356269836
1788164794360326400,5.746326416015625,0.09968750178813934,0.07603749632835388,0.020624998956918716
1788164794370413000,5.7564130859375,0.10573749989271164,0.11879999935626984,0.01691249944269657
1788164794380499000,5.7664990234375,0.1069749966263771,0.1297999918460846,0.013337500393390656
1788164794390581200,5.776581298828125,0.09473749995231628,0.09803749620914459,0.0010999999940395355
1788164794400675000,5.786675048828125,0.07150000333786011,0.03698749840259552,-0.00013749999925494194
1788164794410757000,5.796757080078125,0.03368749842047691,-0.029012499377131462,0.013337500393390656
1788164794420846600,5.8068466796875,0.010449999943375587,-0.03506249934434891,0.032862499356269836
1788164794430935000,5.81693505859375,-0.0005499999970197678,0.01251249946653843,0.040150001645088196
1788164794441023500,5.8270234375,-0.010312499478459358,0.0845625028014183,0.047575000673532486
1788164794451120600,5.83712060546875,-0.026262499392032623,0.10546249896287918,0.04138749837875366
1788164794461208000,5.8472080078125,-0.040837500244379044,0.07727500051259995,0.015812499448657036
1788164794471302700,5.857302734375,-0.05678749829530716,0.02227500081062317,0.0010999999940395355
1788164794481391900,5.867391845703125,-0.08112499862909317,-0.03148749843239784,-0.0013749999925494194
1788164794491488300,5.87748828125,-0.08607500046491623,-0.03629999980330467,-0.00013749999925494194
1788164794501572900,5.88757275390625,-0.08236250281333923,0.0015124999918043613,0.002337499987334013
1788164794511661600,5.89766162109375,-0.07507500052452087,0.04675000160932541,0.010862499475479126
1788164794521748500,5.90774853515625,-0.07631249725818634,0.030937500298023224,0.008387500420212746
1788164794531848400,5.917848388671875,-0.08483749628067017,-0.009487500414252281,-0.011137500405311584
1788164794541936600,5.9279365234375,-0.09707500040531158,-0.04001250118017197,-0.006187499966472387
1788164794552030700,5.93803076171875,-0.1153625026345253,-0.05348749831318855,0.015812499448657036
1788164794562108700,5.948108642578125,-0.11412499845027924,-0.03258749842643738,0.04262499883770943
1788164794572214500,5.958214599609375,-0.09102500230073929,0.021037500351667404,0.05967500060796738
1788164794582297000,5.968297119140625,-0.05431250110268593,0.07851249724626541,0.07315000146627426
1788164794592382700,5.9783828125,-0.02983750030398369,0.07122500240802765,0.05362499877810478
1788164794602463700,5.988463623046875,-0.010312499478459358,0.025987500324845314,0.015812499448657036
1788164794612551200,5.99855126953125,-0.007837500423192978,-0.026537500321865082,0.002337499987334013
1788164794622642200,6.00864208984375,-0.014024999924004078,-0.07782500237226486,0.015812499448657036
1788164794632731600,6.018731689453125,0.0031624999828636646,-0.09377499669790268,0.02914999984204769
1788164794642818000,6.028818115234375,0.020212499424815178,-0.0644875019788742,0.03891250118613243
1788164794652914200,6.0389140625,0.03726249933242798,-0.002062499988824129,0.05609999969601631
1788164794663009800,6.049009765625,0.05073750019073486,0.033275000751018524,0.04633750021457672
1788164794673111000,6.059111083984375,0.05073750019073486,0.040699999779462814,0.01691249944269657
1788164794683208200,6.069208251953125,0.04702499881386757,0.03451250120997429,0.002337499987334013
1788164794693297700,6.079297607421875,0.03973750025033951,0.028462499380111694,0.007149999961256981
1788164794703394600,6.08939453125,0.03616249933838844,0.04427500069141388,0.027912499383091927
1788164794713492500,6.099492431640625,0.03492499887943268,0.08098749816417694,0.05486249923706055
1788164794723581700,6.109581787109375,0.027499999850988388,0.12498749792575836,0.08415000140666962
1788164794733668400,6.11966845703125,0.005499999970197678,0.14451250433921814,0.08910000324249268
1788164794743755300,6.12975537109375,-0.009074999950826168,0.16898749768733978,0.08291249722242355
1788164794753843500,6.139843505859375,-0.03478749841451645,0.16651250422000885,0.09515000134706497
1788164794763936300,6.149936279296875,-0.06778749823570251,0.13103750348091125,0.11591249704360962
1788164794774013400,6.160013427734375,-0.07507500052452087,0.13103750348091125,0.13667500019073486
1788164794784095000,6.170094970703125,-0.06531249731779099,0.16032500565052032,0.15991249680519104
1788164794794181000,6.18018115234375,-0.053075000643730164,0.17874999344348907,0.16362500190734863
1788164794804270300,6.190270263671875,-0.04936249926686287,0.16775000095367432,0.14891250431537628
1788164794814348800,6.200348876953125,-0.045787498354911804,0.15427500009536743,0.13667500019073486
1788164794824438000,6.21043798828125,-0.048262499272823334,0.14451250433921814,0.1391499936580658
1788164794834524400,6.2205244140625,-0.05678749829530716,0.12856249511241913,0.13791249692440033
1788164794844614700,6.23061474609375,-0.053075000643730164,0.11027500033378601,0.11591249704360962
1788164794854702800,6.240702880859375,-0.03478749841451645,0.10656250268220901,0.09033749997615814
1788164794874872600,6.26087255859375,0.011687500402331352,0.09556250274181366,0.04262499883770943
1788164794884960300,6.270960205078125,0.028737500309944153,0.047987498342990875,0.013337500393390656
1788164794895053300,6.28105322265625,0.03849999979138374,-0.026537500321865082,-0.006187499966472387
1788164794905150000,6.29114990234375,0.04221250116825104,-0.11329999566078186,-0.015949999913573265
1788164794915229000,6.30122900390625,0.048262499272823334,-0.14258749783039093,-0.01484999991953373
1788164794925320700,6.31132080078125,0.04468749836087227,-0.1023000031709671,-0.0013749999925494194
1788164794935413200,6.321413330078125,0.03849999979138374,-0.04853750020265579,0.0035749999806284904
1788164794945506300,6.33150634765625,0.03244999796152115,-0.027775000780820847,-0.012374999932944775
1788164794955600100,6.34160009765625,0.027499999850988388,-0.009487500414252281,-0.028187500312924385
1788164794965685500,6.351685546875,0.007974999956786633,-0.030249999836087227,-0.029424998909235
1788164794975777000,6.361777099609375,-0.016499999910593033,-0.05458749830722809,-0.028187500312924385
1788164794985872100,6.3718720703125,-0.023787500336766243,-0.04001250118017197,-0.023375000804662704
1788164795006063400,6.3920634765625,-0.01759999990463257,0.0015124999918043613,-0.002612499985843897
1788164795016152000,6.402152099609375,-0.011549999937415123,-0.0032999999821186066,-0.01484999991953373
1788164795026239500,6.412239501953125,-0.007837500423192978,-0.018012499436736107,-0.018424998968839645
1788164795036344600,6.422344482421875,-0.026262499392032623,-0.08401250094175339,-0.030662499368190765
1788164795046431200,6.43243115234375,-0.022549999877810478,-0.12430000305175781,-0.04661250114440918
1788164795056528100,6.442528076171875,-0.0005499999970197678,-0.08882500231266022,-0.029424998909235
1788164795066620400,6.452620361328125,0.0042624999769032,-0.04606249928474426,-0.020899999886751175
1788164795076707800,6.462707763671875,0.016499999910593033,-0.004537499975413084,-0.029424998909235
1788164795086794000,6.4727939453125,0.016499999910593033,0.0002749999985098839,-0.05389999970793724
1788164795096882400,6.48288232421875,-0.015262499451637268,-0.0424874983727932,-0.09047500044107437
1788164795106996700,6.492996826171875,-0.023787500336766243,-0.05829999968409538,-0.09542500227689743
1788164795117091600,6.503091552734375,-0.03849999979138374,-0.0765874981880188,-0.09047500044107437
1788164795127177700,6.513177734375,-0.031075000762939453,-0.026537500321865082,-0.08195000141859055
1788164795137274600,6.523274658203125,-0.012787500396370888,0.016224998980760574,-0.07961250096559525
1788164795147368200,6.5333681640625,-0.014024999924004078,0.008937500417232513,-0.11247500032186508
1788164795157447000,6.543447021484375,-0.005499999970197678,0.005224999971687794,-0.1247124969959259
1788164795167542000,6.5535419921875,-0.010312499478459358,-0.03629999980330467,-0.12594999372959137
1788164795177630200,6.563630126953125,0.010449999943375587,-0.03272499889135361,-0.09542500227689743
1788164795187716400,6.57371630859375,0.017737500369548798,-0.030249999836087227,-0.0648999959230423
1788164795207899600,6.593899658203125,0.014162499457597733,0.008937500417232513,-0.045375000685453415
1788164795217990700,6.60399072265625,0.018975000828504562,0.04427500069141388,-0.03918749839067459
1788164795228073000,6.614072998046875,0.016499999910593033,0.055275000631809235,-0.03189999982714653
1788164795238163200,6.6241630859375,0.022687500342726707,0.07122500240802765,-0.018424998968839645
1788164795248255000,6.6342548828125,0.029975000768899918,0.06270000338554382,-0.008662499487400055
1788164795258349000,6.64434912109375,0.029975000768899918,0.016224998980760574,-0.02461249940097332
1788164795268443600,6.654443603515625,0.026262499392032623,-0.01677500084042549,-0.04166249930858612
1788164795278535700,6.66453564453125,0.04702499881386757,-0.0057749999687075615,-0.03684999793767929
1788164795288635100,6.67463525390625,0.04702499881386757,-0.011824999935925007,-0.05389999970793724
1788164795298720800,6.684720703125,0.036024998873472214,-0.0448249988257885,-0.07961250096559525
1788164795308795000,6.694794921875,0.06297499686479568,-0.0705375000834465,-0.08318749815225601
1788164795318884400,6.70488427734375,0.058024998754262924,-0.04729999974370003,-0.07218749821186066
1788164795328967200,6.71496728515625,0.04221250116825104,-0.025299999862909317,-0.07837499678134918
1788164795339067000,6.72506689453125,0.04702499881386757,-0.018012499436736107,-0.07590000331401825
1788164795349169200,6.735169189453125,0.03368749842047691,-0.007012499962002039,-0.06861250102519989
1788164795359268000,6.74526806640625,0.006737499963492155,-0.024062499403953552,-0.07342500239610672
1788164795369357000,6.755357177734375,-0.0042624999769032,-0.0387750007212162,-0.06613750010728836
1788164795379453200,6.765453125,-0.012787500396370888,-0.03382499888539314,-0.0648999959230423
1788164795389536000,6.775535888671875,-0.04207500070333481,-0.03629999980330467,-0.07466249912977219
1788164795399633200,6.785633056640625,-0.060362499207258224,-0.0448249988257885,-0.059950001537799835
1788164795409719000,6.795718994140625,-0.048262499272823334,-0.013062499463558197,-0.02694999985396862
1788164795419809300,6.805809326171875,-0.050599999725818634,0.023512499406933784,-0.04166249930858612
1788164795429899800,6.815899658203125,-0.03478749841451645,0.055275000631809235,-0.07095000147819519
1788164795439989000,6.825989013671875,0.03492499887943268,0.10422500222921371,-0.06861250102519989
1788164795450081300,6.836081298828125,0.07273750007152557,0.0882750004529953,-0.10147500038146973
1788164795460173300,6.84617333984375,0.0812624990940094,0.018699999898672104,-0.18095000088214874
1788164795470268700,6.8562685546875,0.11055000126361847,-0.007012499962002039,-0.20295000076293945
1788164795480352500,6.8663525390625,0.11178749799728394,-0.0387750007212162,-0.1956624984741211
1788164795490448600,6.87644873046875,0.0849749967455864,-0.06806249916553497,-0.23100000619888306
1788164795500535300,6.886535400390625,0.0752125009894371,-0.030249999836087227,-0.2579500079154968
1788164795510623200,6.896623291015625,0.07150000333786011,0.07356250286102295,-0.2615250051021576
1788164795520708900,6.906708984375,0.058024998754262924,0.17008750140666962,-0.2909500002861023
1788164795530801000,6.91680078125,0.05444999784231186,0.20679999887943268,-0.30428749322891235
1788164795540882200,6.926882080078125,0.04468749836087227,0.19951249659061432,-0.31171250343322754
1788164795550969300,6.93696923828125,0.009212499484419823,0.113987497985363,-0.32023748755455017
1788164795561061400,6.947061279296875,0.0019249999895691872,-0.030249999836087227,-0.28847500681877136
1788164795571146200,6.957146240234375,0.017737500369548798,-0.1621125042438507,-0.24447499215602875
1788164795581228800,6.967228759765625,-0.010312499478459358,-0.24406249821186066,-0.20776249468326569
1788164795591318300,6.977318359375,-0.045787498354911804,-0.24034999310970306,-0.1639000028371811
1788164795601404000,6.98740380859375,-0.048262499272823334,-0.13901250064373016,-0.09542500227689743
1788164795611489800,6.99748974609375,-0.07507500052452087,-0.05224999785423279,-0.057612501084804535
1788164795621573600,7.00757373046875,-0.11659999936819077,-0.03148749843239784,-0.062424998730421066
1788164795631657000,7.017656982421875,-0.11178749799728394,-0.04358749836683273,-0.04895000159740448
1788164795641750300,7.027750244140625,-0.14354999363422394,-0.09129999577999115,-0.05389999970793724
1788164795651841300,7.03784130859375,-0.22165000438690186,-0.1438249945640564,-0.07466249912977219
1788164795661933000,7.04793310546875,-0.2546499967575073,-0.13282500207424164,-0.04166249930858612
1788164795672026600,7.058026611328125,-0.28517499566078186,-0.1303499937057495,-0.020899999886751175
1788164795682112500,7.068112548828125,-0.3328875005245209,-0.19511249661445618,-0.045375000685453415
1788164795692202200,7.0782021484375,-0.319412499666214,-0.17077499628067017,-0.02213750034570694
1788164795702291500,7.08829150390625,-0.2974124848842621,-0.07548750191926956,0.0193875003606081
1788164795712382700,7.0983828125,-0.30717501044273376,-0.03506249934434891,0.01691249944269657
1788164795722469400,7.108469482421875,-0.28888750076293945,-0.0032999999821186066,0.01209999993443489
1788164795732570600,7.118570556640625,-0.28036248683929443,0.01251249946653843,0.014574999921023846
1788164795742651600,7.128651611328125,-0.33660000562667847,-0.06201250106096268,-0.01966249942779541
1788164795752740600,7.13874072265625,-0.36217498779296875,-0.14630000293254852,-0.03437500074505806
1788164795762827300,7.1488271484375,-0.3634124994277954,-0.18053749203681946,-0.018424998968839645
1788164795772918500,7.15891845703125,-0.3964124917984009,-0.18658749759197235,-0.03918749839067459
1788164795783003600,7.169003662109375,-0.39393749833106995,-0.11577499657869339,-0.033137500286102295
1788164795793093400,7.17909326171875,-0.3511750102043152,-0.01924999989569187,-0.0013749999925494194
1788164795803184000,7.18918408203125,-0.3499374985694885,-0.025299999862909317,-0.01966249942779541
1788164795813269500,7.19926953125,-0.36217498779296875,-0.09129999577999115,-0.04895000159740448
1788164795823355000,7.20935498046875,-0.34759998321533203,-0.11811249703168869,-0.037950001657009125
1788164795833441000,7.21944091796875,-0.3731749951839447,-0.1975875049829483,-0.057612501084804535
1788164795843520500,7.2295205078125,-0.38417500257492065,-0.2770625054836273,-0.08813749998807907
1788164795853611000,7.239611083984375,-0.3451249897480011,-0.2171124964952469,-0.059950001537799835
1788164795863684000,7.24968408203125,-0.3316499888896942,-0.16706250607967377,-0.04166249930858612
1788164795873779500,7.259779541015625,-0.33660000562667847,-0.18053749203681946,-0.057612501084804535
1788164795883867100,7.2698671875,-0.31088748574256897,-0.11935000121593475,-0.03684999793767929
1788164795893961200,7.279961181640625,-0.31817498803138733,-0.0765874981880188,-0.020899999886751175
1788164795904042200,7.290042236328125,-0.34869998693466187,-0.11811249703168869,-0.04413750022649765
1788164795914128000,7.3001279296875,-0.3353624939918518,-0.1340624988079071,-0.047849997878074646
1788164795924225300,7.310225341796875,-0.3438875079154968,-0.17311249673366547,-0.07095000147819519
1788164795934316800,7.32031689453125,-0.3768875002861023,-0.24529999494552612,-0.1247124969959259
1788164795944395300,7.330395263671875,-0.35612499713897705,-0.23663750290870667,-0.1223749965429306
1788164795954487000,7.340487060546875,-0.34869998693466187,-0.27582499384880066,-0.11618749797344208
1788164795964574200,7.35057421875,-0.37564998865127563,-0.3441624939441681,-0.12718750536441803
1788164795974663200,7.3606630859375,-0.3573625087738037,-0.25011250376701355,-0.08071249723434448
1788164795984746800,7.370746826171875,-0.3377000093460083,-0.15606249868869781,-0.037950001657009125
1788164795994834700,7.380834716796875,-0.3596999943256378,-0.20982499420642853,-0.08071249723434448
1788164796004911600,7.39091162109375,-0.3573625087738037,-0.23539999127388,-0.13571250438690186
1788164796015007500,7.401007568359375,-0.3536500036716461,-0.21834999322891235,-0.1601874977350235
1788164796025097000,7.411096923828125,-0.3817000091075897,-0.2843500077724457,-0.19071249663829803
1788164796035190000,7.42118994140625,-0.37193748354911804,-0.3026374876499176,-0.1979999989271164
1788164796045274000,7.431274169921875,-0.3451249897480011,-0.2293500006198883,-0.17723749577999115
1788164796055362600,7.441362548828125,-0.37564998865127563,-0.2293500006198883,-0.19689999520778656
1788164796065445000,7.451445068359375,-0.3964124917984009,-0.23663750290870667,-0.20776249468326569
1788164796075533000,7.461532958984375,-0.391462504863739,-0.2110625058412552,-0.17847499251365662
1788164796085617000,7.471616943359375,-0.4366999864578247,-0.2623499929904938,-0.1919499933719635
1788164796095702000,7.481701904296875,-0.47341248393058777,-0.26606249809265137,-0.20666250586509705
1788164796105788000,7.491787841796875,-0.4721750020980835,-0.15606249868869781,-0.17971250414848328
1788164796115871000,7.50187109375,-0.5076500177383423,-0.10353749990463257,-0.17599999904632568
1788164796125956400,7.511956298828125,-0.5369374752044678,-0.05953750014305115,-0.16513749957084656
1788164796136048400,7.52204833984375,-0.5284125208854675,0.003987499978393316,-0.1247124969959259
1788164796146128100,7.532128173828125,-0.5454624891281128,-0.03629999980330467,-0.13323749601840973
1788164796156213200,7.542213134765625,-0.5759875178337097,-0.12306249886751175,-0.1699499934911728
1788164796166308900,7.552308837890625,-0.5809375047683716,-0.14506250619888306,-0.17599999904632568
1788164796176398600,7.562398681640625,-0.6089875102043152,-0.16087499260902405,-0.18700000643730164
1788164796186496500,7.57249658203125,-0.632224977016449,-0.14506250619888306,-0.19923749566078186
1788164796196579300,7.582579345703125,-0.6065124869346619,-0.06558749824762344,-0.18342499434947968
1788164796206675700,7.59267578125,-0.5979874730110168,0.01251249946653843,-0.17489999532699585
1788164796216756500,7.602756591796875,-0.6126999855041504,0.056512501090765,-0.1956624984741211
1788164796226850000,7.61285009765625,-0.6187499761581421,0.052799999713897705,-0.1979999989271164
1788164796236937200,7.622937255859375,-0.6382749676704407,0.0015124999918043613,-0.20899999141693115
1788164796247027000,7.63302685546875,-0.6908000111579895,-0.0705375000834465,-0.23718750476837158
1788164796257108000,7.64310791015625,-0.71527498960495,-0.12182500213384628,-0.23842500150203705
1788164796267199700,7.65319970703125,-0.6982250213623047,-0.09129999577999115,-0.20295000076293945
1788164796277294800,7.663294921875,-0.6920375227928162,-0.027775000780820847,-0.17971250414848328
1788164796287388000,7.673387939453125,-0.6872249841690063,0.043037500232458115,-0.1699499934911728
1788164796297474600,7.683474609375,-0.6737499833106995,0.0882750004529953,-0.15895000100135803
1788164796307563800,7.693563720703125,-0.6908000111579895,0.025987500324845314,-0.1639000028371811
1788164796317695000,7.703695068359375,-0.7165125012397766,-0.1280124932527542,-0.17847499251365662
1788164796327781400,7.713781494140625,-0.7030375003814697,-0.22811250388622284,-0.1639000028371811
1788164796337869300,7.723869384765625,-0.696987509727478,-0.19030000269412994,-0.1223749965429306
1788164796347948300,7.7339482421875,-0.693274974822998,-0.10477499663829803,-0.10642500221729279
1788164796358032100,7.7440322265625,-0.6687999963760376,-0.04853750020265579,-0.09790000319480896
1788164796368110600,7.754110595703125,-0.6505125164985657,-0.010724999941885471,-0.0906125009059906
1788164796378189000,7.76418896484375,-0.6542249917984009,0.003987499978393316,-0.08689999580383301
1788164796388277500,7.774277587890625,-0.6382749676704407,-0.002062499988824129,-0.04895000159740448
1788164796398363100,7.784363037109375,-0.6004624962806702,-0.007012499962002039,-0.00989999994635582
1788164796408459000,7.794458984375,-0.5832750201225281,-0.010724999941885471,-0.00989999994635582
1788164796418541800,7.804541748046875,-0.5711749792098999,-0.04729999974370003,-0.033137500286102295
1788164796428626000,7.8146259765625,-0.5381749868392944,-0.09982500225305557,-0.042899999767541885
1788164796438705700,7.82470556640625,-0.505174994468689,-0.1340624988079071,-0.050187498331069946
1788164796448796200,7.834796142578125,-0.46970000863075256,-0.11329999566078186,-0.030662499368190765
1788164796458876400,7.84487646484375,-0.4281750023365021,-0.04606249928474426,0.0193875003606081
1788164796468957700,7.854957763671875,-0.3988874852657318,0.02722499892115593,0.04867500066757202
1788164796479037000,7.865036865234375,-0.3964124917984009,0.023512499406933784,0.023099999874830246
1788164796489126400,7.87512646484375,-0.37193748354911804,0.016224998980760574,-0.0038499999791383743
1788164796499199000,7.885198974609375,-0.31817498803138733,0.06998749822378159,-0.01966249942779541
1788164796509283800,7.895283935546875,-0.284074991941452,0.11151249706745148,-0.033137500286102295
1788164796519361500,7.905361572265625,-0.26317501068115234,0.1200374960899353,-0.035612501204013824
1788164796529442600,7.915442626953125,-0.25107499957084656,0.11027500033378601,-0.028187500312924385
1788164796539522000,7.92552197265625,-0.2583625018596649,0.11027500033378601,-0.020899999886751175
1788164796549613300,7.93561328125,-0.26083749532699585,0.11275000125169754,-0.0013749999925494194
1788164796559686100,7.94568603515625,-0.23759999871253967,0.1335124969482422,0.01691249944269657
1788164796569777400,7.95577734375,-0.22055000066757202,0.15798750519752502,0.010862499475479126
1788164796579859700,7.965859619140625,-0.21312500536441803,0.1555124968290329,-0.0038499999791383743
1788164796589964300,7.97596435546875,-0.20583750307559967,0.07479999959468842,-0.018424998968839645
1788164796600052000,7.986052001953125,-0.18754999339580536,-0.007012499962002039,-0.029424998909235
1788164796610153000,7.996153076171875,-0.16183750331401825,-0.03382499888539314,-0.030662499368190765
1788164796620236800,8.00623681640625,-0.13007499277591705,-0.014299999922513962,-0.00989999994635582
1788164796630331100,8.0163310546875,-0.10559999942779541,0.006462499964982271,0.0035749999806284904
1788164796640416500,8.02641650390625,-0.08002500236034393,0.050462499260902405,0.0010999999940395355
1788164796650499600,8.03649951171875,-0.0518375001847744,0.08951249718666077,0.002337499987334013
1788164796660582000,8.046581787109375,-0.023787500336766243,0.10422500222921371,0.004812499973922968
1788164796670670300,8.05667041015625,-0.012787500396370888,0.09446249902248383,0.010862499475479126
1788164796680750800,8.066750732421875,-0.023787500336766243,0.050462499260902405,0.0035749999806284904
1788164796690846200,8.07684619140625,-0.0518375001847744,-0.008249999955296516,-0.00013749999925494194
1788164796700935400,8.086935302734375,-0.0812624990940094,-0.021724998950958252,0.005912499967962503
1788164796711037400,8.097037353515624,-0.07383749634027481,0.05169999971985817,0.05843750014901161
1788164796721137400,8.107137451171875,-0.05926249921321869,0.1457500010728836,0.11343749612569809
1788164796731221800,8.1172216796875,-0.05431250110268593,0.2116124927997589,0.14891250431537628
1788164796741312800,8.127312744140625,-0.09955000132322311,0.17008750140666962,0.12691250443458557
1788164796751400200,8.137400146484374,-0.16183750331401825,0.12856249511241913,0.08415000140666962
1788164796761481500,8.1474814453125,-0.20583750307559967,0.15056249499320984,0.08043749630451202
1788164796771569700,8.157569580078125,-0.2143625020980835,0.16775000095367432,0.10119999945163727
1788164796781661700,8.16766162109375,-0.18507499992847443,0.23127499222755432,0.12815000116825104
1788164796791745300,8.177745361328125,-0.15936249494552612,0.3240875005722046,0.14643749594688416
1788164796801839000,8.187839111328126,-0.1568875014781952,0.3961375057697296,0.14396250247955322
1788164796811931100,8.19793115234375,-0.19359999895095825,0.3558500111103058,0.1354375034570694
1788164796822025700,8.208025634765624,-0.2424124926328659,0.23980000615119934,0.13296249508857727
1788164796832110800,8.21811083984375,-0.25712499022483826,0.13103750348091125,0.14767499268054962
1788164796842202000,8.2282021484375,-0.23141250014305115,0.11275000125169754,0.17338749766349792
1788164796852296000,8.2382958984375,-0.18507499992847443,0.1518000066280365,0.21367499232292175
1788164796862389200,8.24838916015625,-0.1471250057220459,0.17132499814033508,0.2404875010251999
1788164796872474400,8.258474365234376,-0.10436250269412994,0.15798750519752502,0.2381500005722046
1788164796882557000,8.268556884765625,-0.036024998873472214,0.03203750029206276,0.21848750114440918
1788164796892647000,8.27864697265625,0.045787498354911804,-0.19030000269412994,0.1769624948501587
1788164796902734300,8.288734375,0.13997499644756317,-0.2891624867916107,0.15262499451637268
1788164796912820500,8.298820556640624,0.24626250565052032,-0.19882500171661377,0.15867500007152557
1788164796922910200,8.30891015625,0.38183748722076416,-0.0742499977350235,0.1611499935388565
1788164796932991000,8.318990966796875,0.5198875069618225,0.014987500384449959,0.16967499256134033
1788164796943079700,8.32907958984375,0.6604124903678894,0.06875000149011612,0.1769624948501587
1788164796953163500,8.33916357421875,0.7764624953269958,0.1555124968290329,0.19538749754428864
1788164796963252200,8.349252197265624,0.7532249689102173,0.14451250433921814,0.20019999146461487
1788164796973338000,8.359338134765625,0.5772249698638916,0.006462499964982271,0.17572499811649323
1788164796983431000,8.369430908203125,0.4258374869823456,-0.13901250064373016,0.15262499451637268
1788164796993518600,8.3795185546875,0.3768875002861023,-0.22206249833106995,0.1574375033378601
1788164797003614500,8.389614501953124,0.4355999827384949,-0.2671625018119812,0.19648750126361847
1788164797013697000,8.399697021484375,0.5772249698638916,-0.24763749539852142,0.24791249632835388
1788164797023783400,8.409783447265625,0.7569375038146973,-0.15358750522136688,0.28091248869895935
1788164797033869600,8.41986962890625,0.9145125150680542,-0.06077500060200691,0.28943750262260437
1788164797043957000,8.42995703125,1.0012749433517456,-0.021724998950958252,0.2759625017642975
1788164797054042600,8.440042724609375,1.0195624828338623,-0.03148749843239784,0.22948749363422394
1788164797064125700,8.450125732421874,0.9865624904632568,-0.07906249910593033,0.1611499935388565
1788164797074222000,8.46022216796875,0.9498500227928162,-0.11329999566078186,0.08662500232458115
1788164797084305700,8.4703056640625,0.9230374693870544,-0.08648750185966492,0.03162499889731407
1788164797094393300,8.480393310546875,0.8973249793052673,-0.025299999862909317,0.007149999961256981
1788164797104481500,8.4904814453125,0.8447999954223633,0.04427500069141388,0.013337500393390656
1788164797114568700,8.500568603515624,0.7434625029563904,0.10903749614953995,0.05362499877810478
1788164797124659000,8.510658935546875,0.6212249994277954,0.19208750128746033,0.11343749612569809
1788164797134747600,8.52074755859375,0.5246999859809875,0.2983750104904175,0.1671999990940094
1788164797144840700,8.5308408203125,0.4844124913215637,0.41442498564720154,0.21367499232292175
1788164797154931500,8.540931396484375,0.5016000270843506,0.4889499843120575,0.23567499220371246
1788164797165017600,8.551017578125,0.5516499876976013,0.4816625118255615,0.21615000069141388
1788164797175103200,8.561103271484376,0.5894625186920166,0.359562486410141,0.1746249943971634
1788164797185188400,8.571188232421875,0.6004624962806702,0.1835625022649765,0.11110000312328339
1788164797195278000,8.581278076171875,0.5906999707221985,0.06751249730587006,0.027912499383091927
1788164797205366000,8.591365966796875,0.5711749792098999,0.002749999985098839,-0.04166249930858612
1788164797215445000,8.601445068359375,0.552887499332428,-0.03272499889135361,-0.07095000147819519
1788164797225537500,8.61153759765625,0.544362485408783,0.007699999958276749,-0.07713750004768372
1788164797235628300,8.621628173828125,0.5333625078201294,0.0882750004529953,-0.05884999781847
1788164797245715000,8.63171484375,0.5149375200271606,0.14451250433921814,-0.03437500074505806
1788164797255802600,8.641802734375,0.4978874921798706,0.18479999899864197,-0.02461249940097332
1788164797265889800,8.651889892578126,0.4721750020980835,0.18479999899864197,-0.02213750034570694
1788164797275977200,8.661977294921876,0.44288748502731323,0.14079999923706055,-0.002612499985843897
1788164797286068700,8.67206884765625,0.40988749265670776,0.09927500039339066,0.023099999874830246
1788164797296147200,8.682147216796874,0.3806000053882599,0.10532499849796295,0.05486249923706055
1788164797306236200,8.692236083984374,0.367125004529953,0.1297999918460846,0.07438749819993973
1788164797316329200,8.7023291015625,0.34759998321533203,0.13474999368190765,0.07919999957084656
1788164797326415400,8.712415283203125,0.33412501215934753,0.13474999368190765,0.08910000324249268
1788164797336500700,8.722500732421874,0.32436248660087585,0.1237500011920929,0.12086249887943268
1788164797346584600,8.73258447265625,0.2975499927997589,0.10051249712705612,0.16362500190734863
1788164797356687400,8.742687255859375,0.2595999836921692,0.10298749804496765,0.1929125040769577
1788164797366775600,8.752775634765625,0.22302499413490295,0.14327499270439148,0.2209624946117401
1788164797376867600,8.76286767578125,0.18383750319480896,0.16403749585151672,0.2539624869823456
1788164797386952200,8.7729521484375,0.14231249690055847,0.1480875015258789,0.297962486743927
1788164797397043000,8.78304296875,0.116737499833107,0.08951249718666077,0.3492499887943268
1788164797407125000,8.793125,0.13626250624656677,-0.0448249988257885,0.38596248626708984
1788164797417219600,8.803219482421875,0.16802500188350677,-0.18411250412464142,0.41401249170303345
1788164797427302700,8.813302734375,0.22055000066757202,-0.2428250014781952,0.4250124990940094
1788164797437393200,8.82339306640625,0.29631251096725464,-0.21230000257492065,0.42625001072883606
1788164797447478000,8.83347802734375,0.35612499713897705,-0.1695374995470047,0.42625001072883606
1788164797457566200,8.843566162109376,0.3940750062465668,-0.14506250619888306,0.4189625084400177
1788164797477772800,8.863772705078125,0.5418875217437744,-0.05224999785423279,0.23691250383853912
1788164797487865300,8.873865234375,0.6419875025749207,0.05403750017285347,0.06091250106692314
1788164797497959200,8.883959228515625,0.7409874796867371,0.17503750324249268,-0.12113749980926514
1788164797508044000,8.8940439453125,0.8314625024795532,0.2287999987602234,-0.27994999289512634
1788164797518125300,8.904125244140625,0.9010375142097473,0.25808748602867126,-0.3605250120162964
1788164797528203800,8.914203857421874,0.9475125074386597,0.28737500309944153,-0.32999998331069946
1788164797538294500,8.92429443359375,0.9315624833106995,0.2287999987602234,-0.2237125039100647
1788164797548377300,8.93437744140625,0.8338000178337097,0.060224998742341995,-0.08813749998807907
1788164797558463000,8.944462890625,0.6529874801635742,-0.21353749930858612,0.0976250022649765
1788164797578640000,8.964639892578125,0.2083124965429306,-0.5372124910354614,0.5923500061035156
1788164797588728000,8.97472802734375,-0.03355000168085098,-0.26358750462532043,0.7231125235557556
1788164797598815000,8.98481494140625,-0.23759999871253967,0.359562486410141,0.6546375155448914
1788164797608895000,8.99489501953125,-0.3231250047683716,1.0656249523162842,0.4127750098705292
1788164797618990600,9.004990478515625,-0.11783749610185623,1.3454375267028809,0.07315000146627426
1788164797629067800,9.01506787109375,0.14231249690055847,0.9923374652862549,-0.1699499934911728
1788164797639154700,9.02515478515625,0.22426250576972961,0.3716624975204468,-0.21147499978542328
1788164797649227500,9.0352275390625,0.16554999351501465,-0.2330625057220459,-0.11866249889135361
1788164797659318500,9.045318603515625,0.07150000333786011,-0.5861625075340271,-0.025849999859929085
1788164797669405400,9.055405517578125,0.0030249999836087227,-0.5726875066757202,0.040150001645088196
1788164797679485700,9.065485595703125,-0.04331250116229057,-0.2745875120162964,0.09886249899864197
1788164797689564000,9.07556396484375,-0.06283749639987946,0.08703749626874924,0.15138749778270721
1788164797699657500,9.085657470703126,-0.018975000828504562,0.3386625051498413,0.20019999146461487
1788164797709740300,9.095740234375,0.09473749995231628,0.4059000015258789,0.22591249644756317
1788164797719833300,9.105833251953126,0.2363625019788742,0.35708749294281006,0.19538749754428864
1788164797729913600,9.11591357421875,0.34031251072883606,0.28008750081062317,0.14038750529289246
1788164797740005600,9.126005615234375,0.3328875005245209,0.1555124968290329,0.1036750003695488
1788164797750085000,9.136085205078125,0.25712499022483826,0.02474999986588955,0.10119999945163727
1788164797760179200,9.14617919921875,0.1704999953508377,-0.04372499883174896,0.09886249899864197
1788164797770268000,9.156267822265624,0.07631249725818634,-0.03272499889135361,0.07438749819993973
1788164797780364500,9.166364501953124,0.0017874999903142452,0.010037500411272049,0.04867500066757202
1788164797790463000,9.176462890625,-0.04331250116229057,0.052799999713897705,0.03891250118613243
1788164797800554000,9.186553955078125,-0.028737500309944153,0.1518000066280365,0.035337500274181366
1788164797810634200,9.19663427734375,0.045787498354911804,0.32532501220703125,0.02914999984204769
1788164797820724700,9.206724853515626,0.141075000166893,0.5366625189781189,0.04262499883770943
1788164797830809600,9.2168095703125,0.20350000262260437,0.7467625141143799,0.08910000324249268
1788164797840902000,9.22690185546875,0.24502499401569366,0.9129999876022339,0.14643749594688416
1788164797850987500,9.236987548828125,0.2535499930381775,0.964287519454956,0.17943750321865082
1788164797861081900,9.247081787109375,0.2046000063419342,0.9117624759674072,0.15619999170303345
1788164797871168500,9.25716845703125,0.1508374959230423,0.8115249872207642,0.10615000128746033
1788164797881267500,9.267267333984375,0.1264999955892563,0.6661875247955322,0.0719124972820282
1788164797891355100,9.277355224609375,0.13007499277591705,0.5317124724388123,0.06462500244379044
1788164797901446000,9.28744580078125,0.1190750002861023,0.4828999936580658,0.07809999585151672
1788164797911528700,9.29752880859375,0.08978749811649323,0.4987125098705292,0.10119999945163727
1788164797921616100,9.3076162109375,0.05678749829530716,0.5341874957084656,0.13791249692440033
1788164797931702500,9.31770263671875,0.026262499392032623,0.5659499764442444,0.17572499811649323
1788164797941789200,9.3277890625,0.058024998754262924,0.49994999170303345,0.170912504196167
1788164797951878400,9.33787841796875,0.14354999363422394,0.3583250045776367,0.12815000116825104
1788164797961974300,9.347974365234375,0.26455000042915344,0.22151249647140503,0.08291249722242355
1788164797972052500,9.358052490234375,0.3634124994277954,0.13103750348091125,0.049912501126527786
1788164797982147600,9.368147705078124,0.4404124915599823,0.082225002348423,0.020624998956918716
1788164797992229400,9.3782294921875,0.494174987077713,0.01746249943971634,-0.025849999859929085
1788164798012396800,9.398396728515625,0.5761250257492065,-0.17682500183582306,-0.1284250020980835
1788164798022477000,9.40847705078125,0.613937497138977,-0.267300009727478,-0.11261250078678131
1788164798032561700,9.418561767578124,0.6249374747276306,-0.34540000557899475,-0.05884999781847
1788164798042643500,9.4286435546875,0.5979874730110168,-0.3429250121116638,0.005912499967962503
1788164798052734000,9.43873388671875,0.5344625115394592,-0.2550624907016754,0.049912501126527786
1788164798062822000,9.44882177734375,0.4563624858856201,-0.13529999554157257,0.04386249929666519
1788164798072904000,9.458904052734376,0.3964124917984009,-0.022962499409914017,0.014574999921023846
1788164798082992600,9.46899267578125,0.34264999628067017,0.05898749828338623,0.007149999961256981
1788164798093080000,9.479080078125,0.29631251096725464,0.11275000125169754,0.03891250118613243
1788164798103176400,9.489176513671875,0.2560249865055084,0.12127500027418137,0.0658624991774559
1788164798113266200,9.49926611328125,0.22783750295639038,0.13103750348091125,0.06091250106692314
1788164798123362800,9.50936279296875,0.22055000066757202,0.10656250268220901,0.020624998956918716
1788164798133445600,9.519445556640624,0.22907499969005585,0.02969999983906746,-0.038087498396635056
1788164798143536400,9.529536376953125,0.2560249865055084,-0.007012499962002039,-0.07837499678134918
1788164798153622000,9.5396220703125,0.27431249618530273,-0.011962499469518661,-0.07837499678134918
1788164798163714300,9.54971435546875,0.2913624942302704,-0.004537499975413084,-0.05142499879002571
1788164798173801000,9.559801025390625,0.30236250162124634,0.033275000751018524,-0.01718750037252903
1788164798183898000,9.569898193359375,0.2998875081539154,0.09556250274181366,0.030387500301003456
1788164798193985800,9.57998583984375,0.2877874970436096,0.1163249984383583,0.08043749630451202
1788164798204076300,9.590076171875,0.284074991941452,0.113987497985363,0.10615000128746033
1788164798214166000,9.600166015625,0.2815999984741211,0.15056249499320984,0.11962500214576721
1788164798224249000,9.6102490234375,0.2718375027179718,0.17503750324249268,0.1354375034570694
1788164798234335700,9.620335693359374,0.25712499022483826,0.13956250250339508,0.13420000672340393
1788164798244421000,9.630421142578125,0.24255000054836273,0.0845625028014183,0.10862500220537186
1788164798254505000,9.6405048828125,0.22302499413490295,0.043037500232458115,0.08538749814033508
1788164798264597800,9.65059765625,0.1985500007867813,-0.04853750020265579,0.08662500232458115
1788164798274681300,9.660681396484375,0.18150000274181366,-0.13282500207424164,0.11096250265836716
1788164798284774400,9.6707744140625,0.1704999953508377,-0.15234999358654022,0.16362500190734863
1788164798294858500,9.6808583984375,0.1508374959230423,-0.147537499666214,0.24296249449253082
1788164798304950500,9.690950439453125,0.11550000309944153,-0.14506250619888306,0.3235374987125397
1788164798315038500,9.70103857421875,0.06421250104904175,-0.14258749783039093,0.39806249737739563
1788164798325128700,9.711128662109376,0.0042624999769032,-0.147537499666214,0.4800125062465668
1788164798335214600,9.721214599609375,-0.07507500052452087,-0.18287499248981476,0.5630624890327454
1788164798345308400,9.731308349609375,-0.17036250233650208,-0.15482500195503235,0.6315374970436096
1788164798355392800,9.741392822265626,-0.2778874933719635,-0.0057749999687075615,0.6743000149726868
1788164798365478000,9.751477783203125,-0.3731749951839447,0.19951249659061432,0.6766374707221985
1788164798375564300,9.761564208984375,-0.42570000886917114,0.3546124994754791,0.6448749899864197
1788164798385658000,9.771658203125,-0.4049375057220459,0.3704249858856201,0.5680124759674072
1788164798395740700,9.78174072265625,-0.3536500036716461,0.2116124927997589,0.4628250002861023
1788164798405834200,9.791834228515626,-0.33041250705718994,-0.018012499436736107,0.3419624865055084
1788164798415926000,9.801926025390625,-0.31212499737739563,-0.18053749203681946,0.2063875049352646
1788164798426017500,9.812017578125,-0.26455000042915344,-0.22811250388622284,0.07315000146627426
1788164798436096800,9.8220966796875,-0.17159999907016754,-0.19882500171661377,-0.038087498396635056
1788164798446179800,9.832179931640624,-0.05431250110268593,-0.11935000121593475,-0.12966249883174896
1788164798456269000,9.84226904296875,0.043449997901916504,-0.015537500381469727,-0.19689999520778656
1788164798466363600,9.85236376953125,0.0752125009894371,0.07479999959468842,-0.22247499227523804
1788164798476457500,9.86245751953125,0.05555000156164169,0.11275000125169754,-0.19689999520778656
1788164798486542600,9.87254248046875,0.05444999784231186,0.14451250433921814,-0.14190000295639038
1788164798496636000,9.882635986328125,0.04221250116825104,0.20308749377727509,-0.059950001537799835
1788164798506716700,9.892716552734376,0.020212499424815178,0.26179999113082886,0.008387500420212746
1788164798516810200,9.902810302734375,-0.0042624999769032,0.3008500039577484,0.02914999984204769
1788164798526898200,9.912898193359375,-0.010174999944865704,0.28751251101493835,0.007149999961256981
1788164798536984600,9.922984619140625,-0.0004124999977648258,0.2167000025510788,-0.01732499897480011
1788164798547074600,9.933074462890625,0.011824999935925007,0.12993749976158142,-0.028324998915195465
1788164798557162500,9.94316259765625,0.0471624992787838,0.10793749988079071,-0.013612499460577965
1788164798567250200,9.953250244140625,0.08511249721050262,0.14093749225139618,0.015675000846385956
1788164798577337300,9.96333740234375,0.1143999993801117,0.17998750507831573,0.037675000727176666
1788164798587419600,9.973419677734375,0.1522125005722046,0.21175000071525574,0.04619999974966049
1788164798597511000,9.983510986328126,0.17544999718666077,0.20817500352859497,0.06338749825954437
1788164798607595500,9.993595458984375,0.14739999175071716,0.11893749982118607,0.08043749630451202
1788164798617677600,10.003677490234375,0.10821250081062317,0.026124998927116394,0.08538749814033508
1788164798627764200,10.01376416015625,0.09844999760389328,0.007699999958276749,0.09267500042915344
1788164798637862000,10.02386181640625,0.09721250087022781,0.02736249938607216,0.09748750180006027
1788164798647948500,10.033948486328125,0.11192499846220016,0.04193750023841858,0.09391249716281891
1788164798658037000,10.044037109375,0.17173749208450317,0.06517499685287476,0.09143749624490738
1788164798668123100,10.054123046875,0.22068749368190765,0.06888750195503235,0.08896250277757645
1788164798678206500,10.06420654296875,0.2134000062942505,0.007699999958276749,0.08043749630451202
1788164798688291300,10.074291259765625,0.19373749196529388,-0.04358749836683273,0.05719999969005585
1788164798698381800,10.0843818359375,0.164450004696846,-0.04235000163316727,0.04138749837875366
1788164798708466200,10.094466064453124,0.11687500029802322,-0.028875000774860382,0.04619999974966049
1788164798718553300,10.10455322265625,0.08511249721050262,-0.03616249933838844,0.07315000146627426
1788164798728641000,10.11464111328125,0.0789249986410141,-0.009349999949336052,0.10615000128746033
1788164798738724000,10.12472412109375,0.07535000145435333,0.02488750033080578,0.13420000672340393
1788164798758891500,10.1448916015625,0.06435000151395798,0.040699999779462814,0.10848750174045563
1788164798779054800,10.165054931640626,0.05444999784231186,0.09941250085830688,0.08167500048875809
1788164798789133600,10.175133544921875,0.028875000774860382,0.0919874981045723,0.08167500048875809
1788164798799210200,10.185210205078125,0.015399999916553497,0.06888750195503235,0.0719124972820282
1788164798809299700,10.1952998046875,0.0031624999828636646,0.010174999944865704,0.06091250106692314
1788164798819383600,10.205383544921874,-0.013887500390410423,-0.027637500315904617,0.04496249929070473
1788164798829507300,10.21550732421875,-0.009074999950826168,0.0004124999977648258,0.020624998956918716
1788164798839595000,10.225594970703124,0.004399999976158142,0.021175000816583633,0.007149999961256981
1788164798849686800,10.235686767578125,0.010587500408291817,0.012649999931454659,0.008387500420212746
1788164798859779800,10.24577978515625,0.0019249999895691872,-0.002062499988824129,0.008387500420212746
1788164798869869000,10.255869140625,-0.005362499970942736,-0.016637500375509262,0.0193875003606081
1788164798879965700,10.265965576171874,-0.02736249938607216,-0.06558749824762344,0.02914999984204769
1788164798890062300,10.276062255859374,-0.03712499886751175,-0.0789249986410141,0.03272499889135361
1788164798900157400,10.286157470703126,-0.026124998927116394,-0.027637500315904617,0.030387500301003456
1788164798910254000,10.296254150390626,-0.01759999990463257,0.01993750035762787,0.022962499409914017
1788164798920348700,10.3063486328125,-0.015124999918043613,0.026124998927116394,0.009624999947845936
1788164798930445000,10.316445068359375,-0.013887500390410423,0.01993750035762787,-0.013612499460577965
1788164798940536600,10.32653662109375,-0.016362499445676804,-0.020349999889731407,-0.033137500286102295
1788164798950631700,10.336631591796875,-0.02736249938607216,-0.09487500041723251,-0.052799999713897705
1788164798960730600,10.346730712890626,-0.026124998927116394,-0.11935000121593475,-0.07232499867677689
1788164798970817000,10.356817138671875,-0.015124999918043613,-0.08758749812841415,-0.07961250096559525
1788164798980911000,10.3669111328125,-0.007837500423192978,-0.04963750019669533,-0.06737499684095383
1788164798990997200,10.376997314453124,-0.013887500390410423,-0.03616249933838844,-0.052799999713897705
1788164799011176000,10.397176025390625,-0.010174999944865704,-0.07411249727010727,-0.038087498396635056
1788164799021279200,10.407279296875,-0.038362499326467514,-0.1266375035047531,-0.030799999833106995
1788164799031366400,10.417366455078126,-0.045649997889995575,-0.11316250264644623,-0.025849999859929085
1788164799041453000,10.427453125,-0.04936249926686287,-0.05939999967813492,-0.018562499433755875
1788164799051538200,10.4375380859375,-0.04441250115633011,0.0028874999843537807,-0.008799999952316284
1788164799061636900,10.447636962890625,-0.050599999725818634,0.02241249941289425,-0.0038499999791383743
1788164799071727900,10.457727783203126,-0.0518375001847744,0.015124999918043613,0.0009624999947845936
1788164799081820000,10.46781982421875,-0.055412501096725464,-0.017875000834465027,0.010724999941885471
1788164799091910700,10.47791064453125,-0.060362499207258224,-0.0471624992787838,0.014437500387430191
1788164799102004500,10.48800439453125,-0.043175000697374344,-0.028875000774860382,0.015675000846385956
1788164799112103200,10.498103271484375,-0.02983750030398369,0.011412499472498894,0.02419999986886978
1788164799122195500,10.508195556640626,-0.007837500423192978,0.06641250103712082,0.037675000727176666
1788164799132290000,10.5182900390625,0.0006874999962747097,0.08346249908208847,0.03396249935030937
1788164799142377000,10.528376953125,0.004399999976158142,0.057887498289346695,0.025437500327825546
1788164799152468500,10.538468505859376,-0.007837500423192978,0.013887500390410423,0.0193875003606081
1788164799162556400,10.548556396484376,-0.015124999918043613,-0.013062499463558197,0.018149999901652336
1788164799172650200,10.558650146484375,-0.0028874999843537807,0.0028874999843537807,0.022962499409914017
1788164799182744600,10.56874462890625,0.0031624999828636646,0.04441250115633011,0.04138749837875366
1788164799192840200,10.578840087890624,0.010587500408291817,0.0859375,0.06338749825954437
1788164799202926600,10.588926513671876,0.017875000834465027,0.133650004863739,0.07438749819993973
1788164799213013000,10.599012939453125,0.0471624992787838,0.15674999356269836,0.07919999957084656
1788164799223104500,10.6091044921875,0.05939999967813492,0.16898749768733978,0.07067500054836273
1788164799233196500,10.619196533203125,0.08621250092983246,0.17998750507831573,0.05348749831318855
1788164799243286800,10.629286865234375,0.11921250075101852,0.20198750495910645,0.06091250106692314
1788164799253371400,10.639371337890625,0.13392500579357147,0.2264624983072281,0.08896250277757645
1788164799263462700,10.649462646484375,0.13997499644756317,0.23127499222755432,0.12925000488758087
1788164799273543000,10.65954296875,0.1522125005722046,0.25575000047683716,0.13901250064373016
1788164799283628500,10.669628662109375,0.16940000653266907,0.27403751015663147,0.1280124932527542
1788164799293715000,10.67971484375,0.17297500371932983,0.27403751015663147,0.10724999755620956
1788164799303804400,10.689804443359375,0.1742125004529953,0.260699987411499,0.08896250277757645
1788164799313888800,10.699888671875,0.17916250228881836,0.23622499406337738,0.08896250277757645
1788164799323980500,10.70998046875,0.18892499804496765,0.21793749928474426,0.11467500030994415
1788164799334071600,10.720071533203125,0.20239999890327454,0.17998750507831573,0.14767499268054962
1788164799344160800,10.730160888671875,0.2157374918460846,0.15441249310970306,0.15125000476837158
1788164799354251300,10.740251220703126,0.22068749368190765,0.12017499655485153,0.1317249983549118
1788164799364341200,10.75034130859375,0.2134000062942505,0.08346249908208847,0.0999625027179718
1788164799374429700,10.7604296875,0.227974995970726,0.07741250097751617,0.06572499871253967
1788164799384519000,10.770518798828125,0.2414499968290329,0.06517499685287476,0.04138749837875366
1788164799394607600,10.780607666015625,0.24268749356269836,0.040699999779462814,0.02914999984204769
1788164799404690200,10.790690185546875,0.22426250576972961,-0.0008249999955296516,0.014437500387430191
1788164799414775800,10.80077587890625,0.19868749380111694,-0.03863750025629997,-0.008799999952316284
1788164799424864800,10.81086474609375,0.16321249306201935,-0.10711249709129333,-0.01732499897480011
1788164799434946300,10.8209462890625,0.12044999748468399,-0.15344999730587006,-0.023375000804662704
1788164799445038000,10.8310380859375,0.09239999949932098,-0.10958749800920486,-0.03684999793767929
1788164799455125800,10.841125732421874,0.05816249921917915,-0.05582499876618385,-0.03932499885559082
1788164799465214000,10.8512138671875,0.014162499457597733,-0.03382499888539314,-0.03189999982714653
1788164799475313400,10.8613134765625,-0.03464999794960022,-0.010587500408291817,-0.03932499885559082
1788164799485408000,10.871407958984374,-0.07136250287294388,0.016362499445676804,-0.05637500062584877
1788164799495499000,10.8814990234375,-0.1116499975323677,-0.0032999999821186066,-0.06132499873638153
1788164799505577700,10.89157763671875,-0.1373624950647354,-0.0032999999821186066,-0.06132499873638153
1788164799515671800,10.901671875,-0.1471250057220459,0.02969999983906746,-0.052799999713897705
1788164799525750300,10.911750244140626,-0.15565000474452972,0.03341250121593475,-0.033137500286102295
1788164799535842600,10.921842529296875,-0.15193749964237213,0.03712499886751175,-0.011137500405311584
1788164799545923800,10.931923828125,-0.14836250245571136,0.06517499685287476,-0.008799999952316284
1788164799556019200,10.942019287109375,-0.13612499833106995,0.06517499685287476,-0.018562499433755875
1788164799566110200,10.952110107421875,-0.12993749976158142,0.02736249938607216,-0.02213750034570694
1788164799576197400,10.962197265625,-0.12388750165700912,0.02241249941289425,-0.02708750031888485
1788164799586290700,10.972290771484374,-0.10188750177621841,0.05912499874830246,-0.023375000804662704
1788164799596382700,10.9823828125,-0.08236250281333923,0.055412501096725464,-0.008799999952316284
1788164799606468900,10.99246875,-0.07383749634027481,0.011412499472498894,0.0009624999947845936
1788164799616559900,11.002559814453125,-0.0518375001847744,0.007699999958276749,0.011962499469518661
1788164799626644000,11.01264404296875,-0.031075000762939453,0.0004124999977648258,0.02419999986886978
1788164799636742000,11.022741943359375,-0.021175000816583633,-0.04606249928474426,0.022962499409914017
1788164799646832600,11.03283251953125,0.0056374999694526196,-0.027637500315904617,0.022962499409914017
1788164799656923600,11.042923583984376,0.022687500342726707,0.01746249943971634,0.02914999984204769
1788164799667011300,11.05301123046875,0.0411125011742115,0.012649999931454659,0.030387500301003456
1788164799677097000,11.063096923828125,0.04468749836087227,-0.004399999976158142,0.027912499383091927
1788164799687196700,11.07319677734375,0.04235000163316727,-0.0008249999955296516,0.011962499469518661
1788164799697286400,11.083286376953126,0.03492499887943268,-0.0411125011742115,0.010724999941885471
1788164799707378700,11.093378662109375,0.028875000774860382,-0.0728750005364418,0.013199999928474426
1788164799717469400,11.103469482421875,0.03863750025629997,-0.03258749842643738,0.02419999986886978
1788164799727559200,11.11355908203125,0.0471624992787838,0.02241249941289425,0.04496249929070473
1788164799737657300,11.1236572265625,0.05335000157356262,0.050462499260902405,0.05719999969005585
1788164799747744800,11.133744873046876,0.03863750025629997,0.05169999971985817,0.05348749831318855
1788164799757836800,11.1438369140625,0.03987500071525574,0.06270000338554382,0.04138749837875366
1788164799767928800,11.1539287109375,0.026399999856948853,0.028462499380111694,0.037675000727176666
1788164799778017800,11.164017822265626,0.004399999976158142,-0.013062499463558197,0.022962499409914017
1788164799788110600,11.174110595703125,0.014162499457597733,0.007699999958276749,0.021724998950958252
1788164799798199300,11.18419921875,0.021587500348687172,0.035887498408555984,0.030387500301003456
1788164799808286000,11.194285888671875,0.03616249933838844,0.06764999777078629,0.037675000727176666
1788164799818377200,11.204377197265625,0.03135000169277191,0.07864999771118164,0.037675000727176666
1788164799828464400,11.21446435546875,0.028875000774860382,0.08717499673366547,0.03272499889135361
1788164799838557400,11.224557373046874,0.019112499430775642,0.05169999971985817,0.027912499383091927
1788164799848644000,11.23464404296875,-0.0004124999977648258,0.016362499445676804,0.011962499469518661
1788164799858737200,11.244737060546875,0.017875000834465027,0.03712499886751175,-0.0038499999791383743
1788164799868826600,11.25482666015625,0.04963750019669533,0.06146249920129776,0.002199999988079071
1788164799878917000,11.264917236328126,0.0826374962925911,0.07246249914169312,0.018149999901652336
1788164799888997400,11.274997314453126,0.08744999766349792,0.048124998807907104,0.02419999986886978
1788164799899085000,11.2850849609375,0.08744999766349792,0.030937500298023224,0.03519999980926514
1788164799909159200,11.2951591796875,0.07411249727010727,0.010174999944865704,0.0424874983727932
1788164799919252000,11.305251953125,0.055687498301267624,-0.0032999999821186066,0.04138749837875366
1788164799929342700,11.3153427734375,0.06063750013709068,0.03341250121593475,0.0424874983727932
1788164799939436000,11.32543603515625,0.06311249732971191,0.06270000338554382,0.04372499883174896
1788164799949518000,11.33551806640625,0.06311249732971191,0.06146249920129776,0.03891250118613243
1788164799959601400,11.345601318359375,0.04839999973773956,0.040699999779462814,0.025437500327825546
1788164799969692000,11.35569189453125,0.0411125011742115,0.0028874999843537807,0.013199999928474426
1788164799979783000,11.365782958984376,0.026399999856948853,-0.06558749824762344,0.004674999974668026
1788164799989880600,11.375880615234376,0.014162499457597733,-0.07782500237226486,0.0009624999947845936
1788164799999965400,11.38596533203125,0.020349999889731407,-0.025299999862909317,-0.00013749999925494194
1788164800010060800,11.396060791015625,0.022687500342726707,0.011412499472498894,0.0009624999947845936
1788164800020157200,11.4061572265625,0.025162499397993088,0.016362499445676804,0.002199999988079071
1788164800030248400,11.41624853515625,0.020349999889731407,-0.0032999999821186066,-0.010037500411272049
1788164800040344300,11.42634423828125,0.014162499457597733,-0.027637500315904617,-0.018562499433755875
1788164800050436900,11.436436767578124,-0.004124999977648258,-0.0668250024318695,-0.023375000804662704
1788164800060529200,11.446529052734375,-0.018837500363588333,-0.05582499876618385,-0.030799999833106995
1788164800070620000,11.456619873046876,-0.012649999931454659,-0.006874999962747097,-0.02461249940097332
1788164800080702700,11.46670263671875,-0.004124999977648258,0.018699999898672104,-0.018562499433755875
1788164800090791700,11.476791748046875,0.0031624999828636646,0.02241249941289425,-0.011137500405311584
1788164800100879600,11.486879638671875,0.0056374999694526196,0.018699999898672104,-0.010037500411272049
1788164800110971000,11.496970947265625,0.006874999962747097,0.007699999958276749,-0.0013749999925494194
1788164800121064200,11.507064208984374,-0.006599999964237213,-0.03506249934434891,0.002199999988079071
1788164800131156000,11.517156005859375,-0.013887500390410423,-0.03863750025629997,0.0009624999947845936
1788164800141249000,11.5272490234375,-0.012649999931454659,0.0028874999843537807,0.0034374999813735485
1788164800151333000,11.5373330078125,-0.0028874999843537807,0.026124998927116394,0.008387500420212746
1788164800161423000,11.547423095703126,0.004399999976158142,0.015124999918043613,0.010724999941885471
1788164800171511800,11.55751171875,0.009349999949336052,0.004124999977648258,0.009624999947845936
1788164800181599200,11.56759912109375,0.010449999943375587,-0.009349999949336052,0.014437500387430191
1788164800191694000,11.577694091796875,-0.011412499472498894,-0.05087500065565109,0.005912499967962503
1788164800201785300,11.587785400390626,-0.020075000822544098,-0.05816249921917915,-0.016087500378489494
1788164800211878700,11.597878662109375,-0.013887500390410423,-0.013062499463558197,-0.02708750031888485
1788164800221973800,11.607973876953125,-0.006599999964237213,0.018699999898672104,-0.025849999859929085
1788164800232067000,11.618067138671876,-0.012649999931454659,0.012649999931454659,-0.030799999833106995
1788164800242163000,11.628162841796875,-0.016362499445676804,0.0004124999977648258,-0.028324998915195465
1788164800252249600,11.63824951171875,-0.02488750033080578,-0.04606249928474426,-0.01979999989271164
1788164800262336500,11.64833642578125,-0.045649997889995575,-0.10092499852180481,-0.016087500378489494
1788164800272422000,11.658421875,-0.055412501096725464,-0.06916250288486481,-0.010037500411272049
1788164800282514200,11.66851416015625,-0.060362499207258224,-0.0032999999821186066,-0.013612499460577965
1788164800292596500,11.678596435546876,-0.06159999966621399,0.02488750033080578,-0.01979999989271164
1788164800302696200,11.6886962890625,-0.06764999777078629,0.013887500390410423,-0.030799999833106995
1788164800312791300,11.698791259765626,-0.08236250281333923,-0.022824998944997787,-0.042899999767541885
1788164800322887000,11.708886962890626,-0.08717499673366547,-0.09116250276565552,-0.04179999977350235
1788164800332972800,11.718972900390625,-0.10670000314712524,-0.164450004696846,-0.042899999767541885
1788164800343065000,11.729065185546874,-0.12264999747276306,-0.16087499260902405,-0.042899999767541885
1788164800353152800,11.73915283203125,-0.12993749976158142,-0.10092499852180481,-0.038087498396635056
1788164800363244000,11.749244140625,-0.1311749964952469,-0.0471624992787838,-0.028324998915195465
1788164800373329000,11.759328857421876,-0.133650004863739,-0.0411125011742115,-0.023375000804662704
1788164800383421000,11.7694208984375,-0.13859999179840088,-0.04358749836683273,-0.02956249937415123
1788164800393511400,11.779511474609375,-0.1434125006198883,-0.06916250288486481,-0.03684999793767929
1788164800403600000,11.789599853515625,-0.14217500388622284,-0.10339999943971634,-0.052799999713897705
1788164800413689300,11.799689453125,-0.133650004863739,-0.12416250258684158,-0.07108750194311142
1788164800423779600,11.809779541015626,-0.12759999930858612,-0.1143999993801117,-0.0845625028014183
1788164800433870300,11.819870361328125,-0.12993749976158142,-0.08992499858140945,-0.0906125009059906
1788164800443964400,11.82996435546875,-0.12870000302791595,-0.0668250024318695,-0.08937499672174454
1788164800454049000,11.840049072265625,-0.1311749964952469,-0.05706249922513962,-0.08813749998807907
1788164800464142600,11.850142578125,-0.13241249322891235,-0.06063750013709068,-0.07961250096559525
1788164800474226700,11.860226806640625,-0.13859999179840088,-0.0668250024318695,-0.07232499867677689
1788164800484316000,11.87031591796875,-0.15070000290870667,-0.06558749824762344,-0.07356250286102295
1788164800494400300,11.880400146484375,-0.16788749396800995,-0.05335000157356262,-0.07232499867677689
1788164800504492000,11.890491943359375,-0.17765000462532043,-0.04358749836683273,-0.07590000331401825
1788164800514577700,11.90057763671875,-0.1691250056028366,-0.0471624992787838,-0.06984999775886536
1788164800524666000,11.910666015625,-0.16417500376701355,-0.05582499876618385,-0.050324998795986176
1788164800534762800,11.9207626953125,-0.1788875013589859,-0.09982500225305557,-0.023375000804662704
1788164800544848000,11.930847900390624,-0.20569999516010284,-0.1621125042438507,-0.007562499959021807
1788164800554932500,11.940932373046875,-0.22165000438690186,-0.16692499816417694,-0.002612499985843897
1788164800565024000,11.95102392578125,-0.2264624983072281,-0.1083500012755394,-0.005087499972432852
1788164800575110400,11.9611103515625,-0.23017500340938568,-0.03506249934434891,0.0009624999947845936
1788164800585197300,11.971197265625,-0.22893749177455902,0.007699999958276749,0.011962499469518661
1788164800595286300,11.981286376953125,-0.23017500340938568,0.030937500298023224,0.002199999988079071
1788164800605378600,11.991378662109375,-0.23141250014305115,0.028462499380111694,-0.01484999991953373
1788164800615457500,12.00145751953125,-0.2264624983072281,0.004124999977648258,-0.030799999833106995
1788164800625549800,12.0115498046875,-0.20941250026226044,-0.015399999916553497,-0.042899999767541885
1788164800635642600,12.021642578125,-0.17641249299049377,-0.024062499403953552,-0.04179999977350235
1788164800645727200,12.031727294921875,-0.15193749964237213,-0.026399999856948853,-0.028324998915195465
1788164800655810300,12.041810302734374,-0.13859999179840088,-0.03258749842643738,-0.013612499460577965
1788164800665896400,12.051896484375,-0.1116499975323677,-0.021587500348687172,-0.010037500411272049
1788164800675988700,12.06198876953125,-0.09212499856948853,-0.008112499490380287,0.0034374999813735485
1788164800686084900,12.0720849609375,-0.0798875018954277,-0.011824999935925007,0.014437500387430191
1788164800696175900,12.08217578125,-0.06407500058412552,-0.016637500375509262,0.011962499469518661
1788164800706273800,12.092273681640625,-0.040837500244379044,-0.014299999922513962,0.007149999961256981
1788164800716371000,12.102370849609375,-0.026124998927116394,-0.019112499430775642,0.002199999988079071
1788164800726459600,12.112459716796875,-0.0004124999977648258,-0.0411125011742115,-0.01484999991953373
1788164800736545300,12.122545166015625,0.03863750025629997,-0.03739999979734421,-0.03932499885559082
1788164800746641000,12.132640869140625,0.05939999967813492,-0.06435000151395798,-0.05156249925494194
1788164800756723000,12.142722900390625,0.06063750013709068,-0.1143999993801117,-0.0625625029206276
1788164800766809900,12.152809814453125,0.0789249986410141,-0.12058749794960022,-0.07232499867677689
1788164800776894700,12.162894775390624,0.08992499858140945,-0.10587500035762787,-0.08208750188350677
1788164800786986500,12.172986572265625,0.08387500047683716,-0.08882500231266022,-0.08084999769926071
1788164800797072100,12.183072021484374,0.07768750190734863,-0.07411249727010727,-0.07479999959468842
1788164800807170300,12.19317041015625,0.08016250282526016,-0.05582499876618385,-0.07479999959468842
1788164800817261300,12.20326123046875,0.07768750190734863,-0.0668250024318695,-0.07713750004768372
1788164800827354000,12.21335400390625,0.06544999778270721,-0.10711249709129333,-0.07590000331401825
1788164800837435100,12.22343505859375,0.06421250104904175,-0.12058749794960022,-0.0845625028014183
1788164800847528700,12.23352880859375,0.06063750013709068,-0.11935000121593475,-0.10656250268220901
1788164800857608700,12.243608642578126,0.06063750013709068,-0.11563749611377716,-0.12113749980926514
1788164800867690500,12.2536904296875,0.05816249921917915,-0.13392500579357147,-0.13708749413490295
1788164800877774800,12.26377490234375,0.05321250110864639,-0.15234999358654022,-0.15166249871253967
1788164800887859000,12.27385888671875,0.03244999796152115,-0.19263750314712524,-0.14918750524520874
1788164800897945000,12.283945068359374,0.004399999976158142,-0.22192500531673431,-0.13708749413490295
1788164800908031000,12.294031005859376,-0.010312499478459358,-0.2096875011920929,-0.12732499837875366
1788164800918105900,12.30410595703125,-0.021312499418854713,-0.18039999902248383,-0.1223749965429306
1788164800928185300,12.314185302734375,-0.02488750033080578,-0.1461624950170517,-0.11508750170469284
1788164800938273500,12.3242734375,-0.028599999845027924,-0.14011250436306,-0.11137499660253525
1788164800948363300,12.33436328125,-0.026124998927116394,-0.13763749599456787,-0.11742500215768814
1788164800958451700,12.34445166015625,-0.02736249938607216,-0.15592500567436218,-0.11742500215768814
1788164800968529200,12.354529052734375,-0.04688749834895134,-0.18521249294281006,-0.10889999568462372
1788164800978612700,12.36461279296875,-0.05664999783039093,-0.18411250412464142,-0.10161250084638596
1788164800988703000,12.374702880859376,-0.06641250103712082,-0.18287499248981476,-0.10161250084638596
1788164800998789600,12.38478955078125,-0.07383749634027481,-0.15963749587535858,-0.10532499849796295
1788164801008888000,12.39488818359375,-0.07012499868869781,-0.14863750338554382,-0.11866249889135361
1788164801018963700,12.404963623046875,-0.0541750006377697,-0.15468749403953552,-0.13832500576972961
1788164801029049000,12.415049072265624,-0.04331250116229057,-0.17544999718666077,-0.14685000479221344
1788164801039130400,12.42513037109375,-0.040837500244379044,-0.20116250216960907,-0.14685000479221344
1788164801049209000,12.435208984375,-0.04441250115633011,-0.20721249282360077,-0.14313749969005585
1788164801059291100,12.445291015625,-0.053075000643730164,-0.2134000062942505,-0.14066250622272491
1788164801069377800,12.455377685546875,-0.06764999777078629,-0.21092499792575836,-0.1358499974012375
1788164801079454200,12.4654541015625,-0.0859375,-0.20116250216960907,-0.1321374922990799
1788164801089542400,12.47554248046875,-0.09583749622106552,-0.18645000457763672,-0.13708749413490295
1788164801099614700,12.48561474609375,-0.10064999759197235,-0.17063750326633453,-0.13942499458789825
1788164801109705000,12.495705078125,-0.10683749616146088,-0.16692499816417694,-0.1321374922990799
1788164801119786500,12.505786376953125,-0.10312499850988388,-0.15839999914169312,-0.1223749965429306
1788164801129876700,12.515876708984376,-0.09941250085830688,-0.15468749403953552,-0.1163249984383583
1788164801139952600,12.52595263671875,-0.10064999759197235,-0.1498750001192093,-0.10532499849796295
1788164801150051300,12.53605126953125,-0.09941250085830688,-0.14011250436306,-0.08689999580383301
1788164801160137200,12.54613720703125,-0.09693749994039536,-0.12540000677108765,-0.07837499678134918
1788164801170224000,12.55622412109375,-0.10188750177621841,-0.11082500219345093,-0.0648999959230423
1788164801180310800,12.566310791015624,-0.11288750171661377,-0.08635000139474869,-0.052799999713897705
1788164801190415400,12.576415283203126,-0.11288750171661377,-0.05816249921917915,-0.04908749833703041
1788164801200495600,12.58649560546875,-0.11041250079870224,-0.04839999973773956,-0.04908749833703041
1788164801210586600,12.596586669921875,-0.10188750177621841,-0.03506249934434891,-0.043037500232458115
1788164801220667100,12.606667236328125,-0.09212499856948853,-0.020349999889731407,-0.03203750029206276
1788164801230767600,12.616767578125,-0.0798875018954277,-0.0008249999955296516,-0.025849999859929085
1788164801240862000,12.626862060546875,-0.0798875018954277,0.010174999944865704,-0.016087500378489494
1788164801250953200,12.636953125,-0.089649997651577,-0.002062499988824129,-0.0038499999791383743
1788164801261047000,12.647047119140625,-0.07259999960660934,0.004124999977648258,0.011962499469518661
1788164801271140600,12.657140625,-0.0518375001847744,0.018699999898672104,0.02419999986886978
1788164801281227300,12.667227294921876,-0.02736249938607216,0.035887498408555984,0.030387500301003456
1788164801291323400,12.677323486328126,0.0031624999828636646,0.043175000697374344,0.02914999984204769
1788164801301419800,12.687419677734376,0.025162499397993088,0.035887498408555984,0.03396249935030937
1788164801311511300,12.69751123046875,0.014162499457597733,0.02488750033080578,0.040150001645088196
1788164801321601500,12.7076015625,0.011687500402331352,0.01746249943971634,0.03519999980926514
1788164801331693800,12.71769384765625,0.021449999883770943,0.010174999944865704,0.040150001645088196
1788164801341779200,12.727779296875,0.020349999889731407,0.004124999977648258,0.03148749843239784
