time,seconds_elapsed,z,y,x
1788108184918830300,0.120830322265625,-1.2351679801940918,0.2956779897212982,-0.12974800169467926
1788108184939006700,0.1410068359375,-0.6358619928359985,0.3649420142173767,-0.28545600175857544
1788108184949101000,0.15110107421875,-0.4363270103931427,0.2777630090713501,-0.022505000233650208
1788108184959192600,0.161192626953125,-0.3127340078353882,0.1798810064792633,0.2883549928665161
1788108184979370500,0.18137060546875,0.36810800433158875,-0.11327700316905975,0.04487000033259392
1788108184989456100,0.1914560546875,-0.08492600172758102,0.06482300162315369,-0.6927409768104553
1788108184999541800,0.201541748046875,-0.6369569897651672,0.030275000259280205,-1.2039790153503418
1788108185009640200,0.21164013671875,-0.9189490079879761,0.0022219999227672815,-1.2449300289154053
1788108185019723300,0.22172314453125,-1.1169830560684204,-0.21258500218391418,-0.7169139981269836
1788108185029817600,0.231817626953125,-1.1555349826812744,-0.10825800150632858,-0.5322219729423523
1788108185039905800,0.24190576171875,-0.9407939910888672,0.15726199746131897,-0.4424099922180176
1788108185050004700,0.252004638671875,-0.6893020272254944,0.1898230016231537,-0.4478839933872223
1788108185060089000,0.262089111328125,-0.4705910086631775,-0.018572000786662102,-0.2728390097618103
1788108185070176000,0.272176025390625,-0.5181390047073364,0.007083000149577856,-0.23474200069904327
1788108185080260900,0.2822607421875,-0.42454901337623596,0.24147599935531616,-0.41128501296043396
1788108185090358800,0.29235888671875,-0.2877559959888458,0.23949399590492249,-0.5170379877090454
1788108185100449800,0.30244970703125,-0.11874599754810333,0.13178500533103943,-0.2161400020122528
1788108185110541000,0.312541015625,-0.06475400179624557,0.2410230040550232,0.0329740010201931
1788108185120635000,0.322634765625,-0.043549999594688416,0.4140239953994751,0.1666329950094223
1788108185130728700,0.332728759765625,-0.33840200304985046,0.41543298959732056,0.18853799998760223
1788108185140819000,0.34281884765625,-0.8059229850769043,0.3075140118598938,0.0011630000080913305
1788108185150918400,0.35291845703125,-0.9953150153160095,0.42856499552726746,-0.5051760077476501
1788108185161006000,0.363006103515625,-0.6357600092887878,0.6427710056304932,-0.6448349952697754
1788108185171105000,0.37310498046875,0.11313600093126297,0.56979900598526,-0.5641300082206726
1788108185181192400,0.3831923828125,1.008849024772644,0.052028998732566833,0.06607100367546082
1788108185191285200,0.39328515625,1.4387919902801514,-0.32859501242637634,0.8399050235748291
1788108185201375000,0.403375,1.4695509672164917,-0.30562999844551086,0.7755039930343628
1788108185211468800,0.41346875,0.5288259983062744,-0.12744499742984772,0.0374549999833107
1788108185221557800,0.423557861328125,-0.18006299436092377,-0.330951988697052,-0.15114200115203857
1788108185231654700,0.433654541015625,-0.36423999071121216,0.14839600026607513,-0.6840029954910278
1788108185241735000,0.44373486328125,-0.9083690047264099,0.6275830268859863,-0.6799460053443909
1788108185251824000,0.45382421875,-1.04196298122406,0.6053450107574463,-0.5930560231208801
1788108185261915000,0.463914794921875,-1.1648999452590942,0.5994939804077148,-0.5539789795875549
1788108185272012300,0.47401220703125,-1.1467740535736084,0.559486985206604,-0.7453179955482483
1788108185282093300,0.48409326171875,-1.1891510486602783,0.5904830098152161,-1.0999410152435303
1788108185292192000,0.49419189453125,-0.8392009735107422,0.8925600051879883,-1.078734040260315
1788108185302282800,0.50428271484375,-0.7050859928131104,0.851514995098114,-0.5447009801864624
1788108185312386300,0.51438623046875,-0.5637099742889404,0.30323201417922974,-0.005421000067144632
1788108185322475000,0.52447509765625,-0.5021029710769653,0.33900800347328186,-0.02980400063097477
1788108185332560400,0.534560302734375,-0.4643380045890808,0.6117429733276367,-0.10388500243425369
1788108185342655700,0.54465576171875,-0.5180609822273254,0.4455449879169464,-0.41965198516845703
1788108185352775200,0.554775146484375,-0.04753199964761734,0.4445919990539551,-0.5308300256729126
1788108185362865700,0.56486572265625,0.3181290030479431,0.3788599967956543,-0.42318400740623474
1788108185372960300,0.574960205078125,0.5359259843826294,0.21613000333309174,-0.26076799631118774
1788108185383042800,0.585042724609375,0.8567569851875305,0.21734300255775452,-0.27220600843429565
1788108185393131500,0.595131591796875,0.9224799871444702,0.033601999282836914,-0.11403899639844894
1788108185403223800,0.605223876953125,0.7293949723243713,0.21236999332904816,-0.2184859961271286
1788108185413319200,0.615319091796875,0.223021999001503,0.2903499901294708,-0.41778698563575745
1788108185423412700,0.625412841796875,-0.2383510023355484,0.18799400329589844,-0.21490399539470673
1788108185433514800,0.6355146484375,-0.14723199605941772,0.06685099750757217,-0.20406199991703033
1788108185443608300,0.6456083984375,-0.11480599641799927,0.35076001286506653,-0.20551499724388123
1788108185453708000,0.6557080078125,-0.22470000386238098,0.30984199047088623,-0.00253800000064075
1788108185463792400,0.66579248046875,-0.3941490054130554,0.152755007147789,0.09087599813938141
1788108185473878000,0.6758779296875,-0.38187700510025024,0.05079000070691109,-0.06247200071811676
1788108185483973000,0.68597314453125,-0.3525879979133606,0.1701049953699112,-0.22135500609874725
1788108185504163300,0.706163330078125,-0.19582700729370117,-0.06332699954509735,-0.10673599690198898
1788108185514263300,0.71626318359375,0.07727599889039993,-0.10607700049877167,0.08232100307941437
1788108185524353800,0.726353759765625,0.1731330007314682,0.027303000912070274,0.16559700667858124
1788108185534453800,0.736453857421875,0.07742500305175781,0.030247999355196953,0.1559540033340454
1788108185544539600,0.74653955078125,0.007934999652206898,-0.1412850022315979,0.28974899649620056
1788108185554632400,0.756632568359375,-0.06139799952507019,-0.03560899943113327,0.1579580008983612
1788108185564722700,0.76672265625,-0.29120099544525146,-0.00039500001003034413,0.08954200148582458
1788108185574830600,0.77683056640625,-0.4493190050125122,-0.12082900106906891,0.17957699298858643
1788108185584917500,0.78691748046875,-0.3872869908809662,-0.2004770040512085,0.17209500074386597
1788108185595009300,0.79700927734375,-0.20407000184059143,-0.1662379950284958,0.06111900135874748
1788108185605106400,0.8071064453125,-0.13680000603199005,-0.2689329981803894,0.05147700011730194
1788108185615197200,0.817197265625,-0.16920900344848633,-0.29192399978637695,-0.0672840029001236
1788108185625297700,0.827297607421875,-0.11977100372314453,-0.25766798853874207,-0.05757199972867966
1788108185635388700,0.837388671875,-0.18988700211048126,-0.20670099556446075,0.05821799859404564
1788108185645483300,0.847483154296875,-0.2560350000858307,-0.1790270060300827,0.18909600377082825
1788108185655582000,0.85758203125,-0.4666529893875122,-0.16541799902915955,0.15972499549388885
1788108185665680400,0.867680419921875,-0.7360579967498779,-0.1652749925851822,0.04344100132584572
1788108185675783700,0.87778369140625,-0.9420310258865356,-0.18281100690364838,-0.11098500341176987
1788108185685875500,0.88787548828125,-0.9768890142440796,-0.12800100445747375,-0.21289899945259094
1788108185695967500,0.897967529296875,-0.8506770133972168,-0.05955300107598305,-0.26342400908470154
1788108185706055700,0.9080556640625,-0.8104010224342346,-0.06648000329732895,-0.23437300324440002
1788108185716144000,0.91814404296875,-0.6974989771842957,-0.1422629952430725,-0.11405699700117111
1788108185726229000,0.92822900390625,-0.6369649767875671,-0.09481000155210495,-0.020315999165177345
1788108185736319700,0.93831982421875,-0.46830499172210693,-0.01322999969124794,-0.04263700172305107
1788108185746409700,0.94840966796875,-0.31481900811195374,0.012547999620437622,-0.14681600034236908
1788108185756500500,0.95850048828125,-0.10923600196838379,-0.014201000332832336,-0.14827899634838104
1788108185766609400,0.968609375,0.19887800514698029,-0.031401000916957855,-0.11607100069522858
1788108185776726000,0.97872607421875,0.4416069984436035,-0.0657690018415451,-0.01587500050663948
1788108185786818000,0.988818115234375,0.6659610271453857,-0.0025239998940378428,0.04718000069260597
1788108185796914000,0.998913818359375,0.6525650024414062,0.15236100554466248,0.25401100516319275
1788108185807009300,1.00900927734375,0.45004400610923767,0.10504200309515,0.5069490075111389
1788108185817100300,1.019100341796875,0.4371289908885956,0.005805000197142363,0.548130989074707
1788108185827191800,1.02919189453125,0.5419660210609436,0.004308000206947327,0.3492650091648102
1788108185837278200,1.0392783203125,0.5414620041847229,0.047256000339984894,0.2246280014514923
1788108185847370800,1.049370849609375,0.40291500091552734,0.019310999661684036,0.23888500034809113
1788108185857459000,1.059458984375,0.22862599790096283,-0.04321900010108948,0.3146190047264099
1788108185867545900,1.0695458984375,0.07609499990940094,-0.06262300163507462,0.25464800000190735
1788108185877633300,1.07963330078125,0.03170999884605408,-0.10739699751138687,0.32306599617004395
1788108185887721500,1.089721435546875,-0.08524200320243835,-0.029474999755620956,0.2584089934825897
1788108185897812200,1.099812255859375,-0.3200010061264038,0.005535000003874302,0.10735700279474258
1788108185907906800,1.10990673828125,-0.4781700074672699,-0.05251099914312363,0.06057799980044365
1788108185918000400,1.12000048828125,-0.5416470170021057,-0.026496000587940216,-0.05795599892735481
1788108185928090000,1.130090087890625,-0.4483470022678375,-0.011646999977529049,-0.15069900453090668
1788108185938182400,1.140182373046875,-0.42166900634765625,-0.023437000811100006,-0.1727689951658249
1788108185948271900,1.15027197265625,-0.4906879961490631,-0.0660799965262413,-0.20431099832057953
1788108185958364700,1.16036474609375,-0.5835999846458435,-0.0012290000449866056,-0.19951899349689484
1788108185968462000,1.170462158203125,-0.5409759879112244,-0.11517400294542313,-0.10507799685001373
1788108185978564000,1.180564208984375,-0.5160760283470154,-0.11883500218391418,-0.13388599455356598
1788108185988661800,1.190661865234375,-0.45332399010658264,-0.023936999961733818,-0.156031996011734
1788108185998746400,1.200746337890625,-0.3926889896392822,-0.11018499732017517,-0.05447499826550484
1788108186008846300,1.210846435546875,-0.3131609857082367,-0.016589999198913574,-0.08167000114917755
1788108186018939000,1.22093896484375,-0.3048959970474243,0.11106999963521957,-0.07940000295639038
1788108186029033500,1.231033447265625,-0.3662300109863281,0.1170630007982254,-0.11976800113916397
1788108186039129000,1.241129150390625,-0.34137699007987976,0.21953299641609192,-0.15624099969863892
1788108186049220600,1.251220703125,-0.20065400004386902,0.2415419965982437,-0.15666000545024872
1788108186059310800,1.261310791015625,-0.05096900090575218,0.23961199820041656,-0.12825700640678406
1788108186069406000,1.271406005859375,-0.10901299864053726,0.21623800694942474,-0.08479700237512589
1788108186079520000,1.28152001953125,-0.17263300716876984,0.21684999763965607,0.024020999670028687
1788108186089614000,1.291614013671875,-0.3248170018196106,0.22734099626541138,0.05691099911928177
1788108186099711500,1.30171142578125,-0.3429110050201416,0.3079400062561035,0.0751509964466095
1788108186109810700,1.311810791015625,-0.3464309871196747,0.285849004983902,0.10037299990653992
1788108186119909600,1.32190966796875,-0.27876099944114685,0.3102400004863739,0.1480800062417984
1788108186129994500,1.331994384765625,-0.16237500309944153,0.43026798963546753,0.10923799872398376
1788108186140085200,1.342085205078125,-0.026633000001311302,0.3427889943122864,0.024057000875473022
1788108186150175000,1.352175048828125,0.30462801456451416,0.20882099866867065,0.06303299963474274
1788108186160260400,1.36226025390625,0.5561360120773315,0.30893900990486145,0.10316500067710876
1788108186170345700,1.372345703125,0.49076199531555176,0.27683499455451965,0.18977899849414825
1788108186180432400,1.382432373046875,0.12951000034809113,0.30100101232528687,0.21273599565029144
1788108186190536000,1.392535888671875,-0.37984898686408997,0.3697569966316223,0.20791099965572357
1788108186200633900,1.4026337890625,-0.7422879934310913,0.34421101212501526,0.160848006606102
1788108186210725600,1.4127255859375,-0.7218570113182068,0.3846229910850525,0.06616199761629105
1788108186220821000,1.422821044921875,-0.49500200152397156,0.29974499344825745,-0.028567999601364136
1788108186230921700,1.432921630859375,-0.10954900085926056,0.18959100544452667,0.008592000231146812
1788108186241011000,1.443010986328125,0.054207999259233475,0.2523980140686035,0.0839420035481453
1788108186251112200,1.4531123046875,-0.022477999329566956,0.200080007314682,0.1605069935321808
1788108186261201200,1.463201171875,-0.3206610083580017,0.17230500280857086,0.20427300035953522
1788108186271299600,1.473299560546875,-0.4270319938659668,0.09920000284910202,0.19580000638961792
1788108186281400600,1.483400634765625,-0.37337398529052734,-0.056765999644994736,0.14697200059890747
1788108186291498000,1.493498046875,-0.14834600687026978,-0.027786999940872192,0.13083599507808685
1788108186301592800,1.5035927734375,-0.04530400037765503,0.047690000385046005,0.13318899273872375
1788108186311677000,1.513677001953125,-0.14729799330234528,-0.007129000034183264,0.14522799849510193
1788108186321771000,1.52377099609375,-0.4782229959964752,0.051256999373435974,0.08682099729776382
1788108186331861000,1.533861083984375,-0.958420991897583,0.1093520000576973,-0.041196998208761215
1788108186341958700,1.543958740234375,-1.219668984413147,0.029911000281572342,-0.11445599794387817
1788108186352044300,1.554044189453125,-1.2932510375976562,-0.06670299917459488,-0.2137479931116104
1788108186362147000,1.56414697265625,-1.0465760231018066,-0.05614500120282173,-0.2611609995365143
1788108186372238600,1.574238525390625,-0.8213369846343994,-0.04904500022530556,-0.26651400327682495
1788108186382332200,1.584332275390625,-0.6439840197563171,-0.007741999812424183,-0.29832300543785095
1788108186392423000,1.5944228515625,-0.5453320145606995,-0.07520899921655655,-0.3965409994125366
1788108186402518000,1.60451806640625,-0.47990599274635315,-0.06556099653244019,-0.3616600036621094
1788108186412611300,1.614611328125,-0.2825309932231903,-0.06076899915933609,-0.264616996049881
1788108186422703600,1.62470361328125,-0.05008700117468834,-0.09189199656248093,-0.2284339964389801
1788108186432800000,1.634800048828125,0.156483992934227,-0.07322099804878235,-0.07310499995946884
1788108186442901000,1.64490087890625,0.44647398591041565,-0.057840000838041306,0.09009800106287003
1788108186452993000,1.654992919921875,0.7233390212059021,-0.06957899779081345,0.15482500195503235
1788108186463089200,1.665089111328125,0.8726329803466797,-0.005169000010937452,0.17982199788093567
1788108186473177300,1.67517724609375,0.7213450074195862,0.10299800336360931,0.215596005320549
1788108186483290600,1.68529052734375,0.49542298913002014,0.07048200070858002,0.3339439928531647
1788108186493376300,1.695376220703125,0.3891279995441437,0.04494599997997284,0.500220000743866
1788108186503474200,1.70547412109375,0.5421640276908875,-0.016811000183224678,0.7257519960403442
1788108186513571600,1.715571533203125,0.761909008026123,0.03516799956560135,0.7927650213241577
1788108186523671000,1.725671142578125,0.592182993888855,0.2080949991941452,0.6663060188293457
1788108186533761300,1.73576123046875,0.2227260023355484,0.15551599860191345,0.5489839911460876
1788108186543854800,1.745854736328125,-0.021192999556660652,0.030679000541567802,0.4358380138874054
1788108186553951700,1.75595166015625,0.16150499880313873,-0.09705200046300888,0.43273600935935974
1788108186564048100,1.766048095703125,0.42570000886917114,-0.08714400231838226,0.4336870014667511
1788108186574146300,1.776146240234375,0.5215250253677368,0.016510000452399254,0.28575000166893005
1788108186584239900,1.786239990234375,0.4396679997444153,-0.045607998967170715,0.206385999917984
1788108186594334700,1.796334716796875,0.28607800602912903,-0.10663300007581711,0.1526069939136505
1788108186604433700,1.80643359375,0.45252400636672974,-0.20438599586486816,0.2600249946117401
1788108186614537000,1.816536865234375,0.7115240097045898,-0.27912700176239014,0.45778000354766846
1788108186624626200,1.826626220703125,1.2738620042800903,-0.39048200845718384,0.23621100187301636
1788108186634707500,1.83670751953125,1.17056405544281,-0.2921049892902374,0.1496489942073822
1788108186644800300,1.84680029296875,0.4934369921684265,-0.6208620071411133,0.5026140213012695
1788108186654895400,1.856895263671875,0.5081830024719238,-0.4784579873085022,0.5256249904632568
1788108186664990000,1.866989990234375,0.5185120105743408,-0.6185489892959595,0.6483110189437866
1788108186675076000,1.877076171875,0.5359249711036682,-0.530269980430603,0.7144870162010193
1788108186685167600,1.887167724609375,0.7768210172653198,-0.5059379935264587,0.9060720205307007
1788108186695256800,1.8972568359375,1.2583390474319458,-0.6272420287132263,0.8876960277557373
1788108186705347000,1.90734716796875,1.7572029829025269,-0.8933830261230469,0.6260700225830078
1788108186715449900,1.917449951171875,1.8816159963607788,-0.7663630247116089,0.3688330054283142
1788108186725551400,1.92755126953125,1.5788459777832031,-0.8272809982299805,0.4678570032119751
1788108186735635700,1.9376357421875,1.1424939632415771,-0.8380540013313293,0.548753023147583
1788108186745721900,1.947721923828125,0.8202750086784363,-0.7727839946746826,0.5434569716453552
1788108186755806700,1.957806640625,0.5589249730110168,-0.729623019695282,0.5590760111808777
1788108186765898500,1.9678984375,0.391167014837265,-0.7450900077819824,0.5914689898490906
1788108186775980500,1.97798046875,0.2640939950942993,-0.6362580060958862,0.5771430134773254
1788108186786085600,1.988085693359375,0.13624300062656403,-0.5712289810180664,0.5335000157356262
1788108186796171500,1.998171630859375,-0.009968999773263931,-0.43970099091529846,0.4367530047893524
1788108186806261500,2.008261474609375,-0.04392300173640251,-0.37511301040649414,0.35899001359939575
1788108186816353300,2.018353271484375,-0.0006840000278316438,-0.3540639877319336,0.2878060042858124
1788108186826445600,2.028445556640625,0.07173900306224823,-0.29015401005744934,0.16099199652671814
1788108186836537300,2.038537353515625,0.20949600636959076,-0.37755000591278076,0.03456300124526024
1788108186846634500,2.048634521484375,0.3513849973678589,-0.39010000228881836,0.026683999225497246
1788108186856718800,2.05871875,0.4789060056209564,-0.3680190145969391,0.11440300196409225
1788108186866805000,2.068804931640625,0.5064389705657959,-0.3290649950504303,0.25715601444244385
1788108186876896300,2.078896240234375,0.40102800726890564,-0.2081719934940338,0.17932699620723724
1788108186886986000,2.088986083984375,0.23955200612545013,-0.15114200115203857,0.18579499423503876
1788108186897069600,2.099069580078125,0.07617200165987015,-0.06701800227165222,0.0689919963479042
1788108186907155700,2.10915576171875,-0.006411000154912472,-0.0028299998957663774,-0.024072999134659767
1788108186917246000,2.119245849609375,-0.11666499823331833,-0.022880999371409416,-0.013205000199377537
1788108186927334100,2.129334228515625,-0.11126600205898285,-0.015862999483942986,0.02783999964594841
1788108186937427700,2.139427734375,-0.06447199732065201,0.00041700000292621553,0.0467820018529892
1788108186947518200,2.149518310546875,-0.11064700037240982,0.0596419982612133,0.05254900082945824
1788108186957603800,2.159603759765625,-0.2505599856376648,0.11596400290727615,-0.09300900250673294
1788108186967692300,2.1696923828125,-0.5032820105552673,0.06922300159931183,-0.26142099499702454
1788108186977783600,2.179783447265625,-0.7385039925575256,0.03791400045156479,-0.38678398728370667
1788108186987880400,2.18988037109375,-0.7271080017089844,0.012981000356376171,-0.45876699686050415
1788108187008069000,2.210069091796875,-0.3137750029563904,-0.013531000353395939,-0.5397210121154785
1788108187018163700,2.220163818359375,-0.2055779993534088,0.006163000129163265,-0.5121359825134277
1788108187028251000,2.2302509765625,-0.16207699477672577,0.0940219983458519,-0.38375699520111084
1788108187038351000,2.24035107421875,-0.1520960032939911,0.08993200212717056,-0.37696200609207153
1788108187048442600,2.250442626953125,-0.2572399973869324,0.13583000004291534,-0.1431719958782196
1788108187058539500,2.26053955078125,-0.3195149898529053,0.2454490065574646,-0.07048899680376053
1788108187068629000,2.27062890625,-0.38229700922966003,0.33756500482559204,-0.030299000442028046
1788108187078724600,2.280724609375,-0.2181510031223297,0.335563987493515,-0.04022299870848656
1788108187088819200,2.290819091796875,-0.045079998672008514,0.2864609956741333,0.06238299980759621
1788108187098909200,2.3009091796875,0.08965200185775757,0.29966801404953003,0.07514599710702896
1788108187109051600,2.3110517578125,0.1375110000371933,0.3203049898147583,0.062403999269008636
1788108187119151400,2.3211513671875,0.04857100173830986,0.31535300612449646,0.08032499998807907
1788108187129237200,2.3312373046875,0.04015300050377846,0.4168950021266937,0.17824499309062958
1788108187139333600,2.341333740234375,0.05792199820280075,0.3908419907093048,0.25940701365470886
1788108187149427500,2.351427490234375,0.1844870001077652,0.3388719856739044,0.24439400434494019
1788108187159527700,2.361527587890625,0.36276501417160034,0.3400129973888397,0.11997800320386887
1788108187169622000,2.3716220703125,0.43664100766181946,0.34886300563812256,0.024970000609755516
1788108187179720000,2.381719970703125,0.2334039956331253,0.36224600672721863,-0.07384900003671646
1788108187189810700,2.391810791015625,-0.14396999776363373,0.3161740005016327,-0.06879299879074097
1788108187209994800,2.411994873046875,-0.4884600043296814,0.21646800637245178,0.003907000180333853
1788108187220088300,2.42208837890625,-0.5203350186347961,0.20832699537277222,0.010606000199913979
1788108187230183000,2.432182861328125,-0.46622800827026367,0.15044300258159637,0.12483499944210052
1788108187240274000,2.44227392578125,-0.37036898732185364,0.14860999584197998,0.29150399565696716
1788108187250375700,2.452375732421875,-0.193464994430542,-0.030789000913500786,0.1767210066318512
1788108187260472000,2.46247216796875,-0.22123199701309204,0.0028649999294430017,0.11716999858617783
1788108187270573000,2.472572998046875,-0.1575849950313568,-0.0934389978647232,0.10560300201177597
1788108187280675300,2.48267529296875,-0.14459200203418732,-0.10996200144290924,0.1475750058889389
1788108187290766800,2.492766845703125,-0.22141599655151367,-0.07970599830150604,0.1307149976491928
1788108187300842800,2.5028427734375,-0.25231900811195374,-0.11505600064992905,0.23068399727344513
1788108187310937600,2.5129375,-0.12359300255775452,-0.22017699480056763,0.25338301062583923
1788108187321026600,2.523026611328125,0.11941400170326233,-0.3192639946937561,0.1969819962978363
1788108187331116000,2.533115966796875,0.19948799908161163,-0.2824519872665405,0.06834399700164795
1788108187341199000,2.54319921875,0.15782199800014496,-0.32618099451065063,-0.028418000787496567
1788108187351292200,2.553292236328125,0.0394739992916584,-0.4267750084400177,0.009961999952793121
1788108187361383200,2.563383056640625,-0.027347000315785408,-0.5690460205078125,0.036552999168634415
1788108187371465500,2.573465576171875,-0.009107000194489956,-0.552478015422821,-0.017423000186681747
1788108187381560300,2.583560302734375,-0.016106000170111656,-0.5847539901733398,-0.05682700127363205
1788108187391650300,2.593650390625,-0.20569799840450287,-0.589896023273468,-0.09711199998855591
1788108187401734000,2.60373388671875,-0.2735559940338135,-0.6883649826049805,-0.16495899856090546
1788108187411816700,2.613816650390625,-0.2847500145435333,-0.8341760039329529,-0.268094003200531
1788108187421907200,2.6239072265625,-0.4717549979686737,-0.7077929973602295,-0.371165007352829
1788108187432009200,2.63400927734375,-0.5703579783439636,-0.5146790146827698,-0.3344550132751465
1788108187442103000,2.64410302734375,-0.44232800602912903,-0.44765499234199524,-0.16588200628757477
1788108187452199400,2.654199462890625,-0.21038800477981567,-0.3885970115661621,-0.029325999319553375
1788108187462295000,2.664294921875,-0.12370999902486801,-0.35112398862838745,0.13100700080394745
1788108187472387800,2.674387939453125,-0.25520700216293335,-0.30644699931144714,-0.022765999659895897
1788108187482486000,2.684486083984375,-0.24171599745750427,-0.27195098996162415,-0.13332399725914001
1788108187492575500,2.694575439453125,-0.31553900241851807,-0.13117200136184692,-0.009425000287592411
1788108187502668800,2.704668701171875,0.021239999681711197,-0.03285900130867958,0.24581800401210785
1788108187512756500,2.714756591796875,0.39978599548339844,-0.0031840000301599503,0.4348280131816864
1788108187522854400,2.7248544921875,0.8497409820556641,0.11427699774503708,0.40740400552749634
1788108187532951800,2.734951904296875,1.1986579895019531,0.17267100512981415,0.26364800333976746
1788108187543048400,2.74504833984375,0.7467269897460938,-0.030841000378131866,-0.25940001010894775
1788108187553138700,2.755138671875,0.26921701431274414,-0.19375799596309662,-1.120669960975647
1788108187563235000,2.765235107421875,-2.8617310523986816,-0.5894479751586914,-0.15989600121974945
1788108187573328100,2.775328125,-2.368022918701172,-0.09389500319957733,1.0246909856796265
1788108187583420000,2.785419921875,-1.601613998413086,1.2455099821090698,0.2616490125656128
1788108187593511700,2.79551171875,-1.5410579442977905,0.9821619987487793,-0.4602909982204437
1788108187603613200,2.80561328125,-2.1648240089416504,0.5704309940338135,-0.8072230219841003
1788108187613703200,2.815703125,-2.299109935760498,0.7195000052452087,-0.6558899879455566
1788108187623794000,2.8257939453125,-2.2317280769348145,0.6008409857749939,-0.25263699889183044
1788108187633873400,2.835873291015625,-1.9505139589309692,1.2297619581222534,-0.2742669880390167
1788108187643968500,2.845968505859375,-1.1857329607009888,0.5445849895477295,-0.4559530019760132
1788108187654059500,2.8560595703125,-0.6423699855804443,0.040608000010252,-0.5517110228538513
1788108187664159500,2.866159423828125,0.039528001099824905,0.06810499727725983,-0.5929970145225525
1788108187674243300,2.876243408203125,0.9711980223655701,0.1727679967880249,-0.17666299641132355
1788108187684334000,2.886333984375,1.7361030578613281,0.33835598826408386,-0.08260300010442734
1788108187694418200,2.896418212890625,2.307765007019043,0.44041499495506287,-0.4543420076370239
1788108187704516900,2.906516845703125,2.5282680988311768,0.28228598833084106,-0.7828480005264282
1788108187714611700,2.91661181640625,2.2025649547576904,0.08722399920225143,-0.762266993522644
1788108187724702000,2.926701904296875,1.635349988937378,0.03716199845075607,-0.60760098695755
1788108187734789400,2.936789306640625,0.9830510020256042,0.09500099718570709,-0.5833330154418945
1788108187744881700,2.946881591796875,0.15985199809074402,-0.25821200013160706,-0.577422022819519
1788108187754972700,2.95697265625,-0.6177170276641846,-0.27839499711990356,-0.31675198674201965
1788108187765069800,2.96706982421875,-0.8842610120773315,0.07104899734258652,-0.27887898683547974
1788108187775149800,2.97714990234375,-0.5398380160331726,0.08190499991178513,-0.4544050097465515
1788108187785245000,2.987244873046875,-0.07783599942922592,-0.37004899978637695,-0.6915889978408813
1788108187795330800,2.997330810546875,0.35281801223754883,-0.46484899520874023,-0.515854001045227
1788108187805432300,3.007432373046875,0.6331620216369629,-0.3205620050430298,-0.11902999877929688
1788108187815520800,3.017520751953125,0.6872749924659729,-0.4008910059928894,-0.1215210035443306
1788108187825620500,3.027620361328125,0.40839698910713196,-1.5273220539093018,1.0362370014190674
1788108187835707400,3.037707275390625,0.8877789974212646,-1.117097020149231,0.9028099775314331
1788108187845800200,3.04780029296875,0.0531730018556118,-1.7204829454421997,1.1387269496917725
1788108187855892000,3.05789208984375,0.17890900373458862,-1.8180160522460938,1.6086159944534302
1788108187865989400,3.0679892578125,-1.111217975616455,-3.1720399856567383,1.6985349655151367
1788108187876075500,3.078075439453125,-2.4257609844207764,-2.8357889652252197,2.8476688861846924
1788108187886164700,3.088164794921875,-4.103815078735352,0.7125610113143921,2.2347629070281982
1788108187896252200,3.098252197265625,-3.041048049926758,-0.5862119793891907,1.3121930360794067
1788108187906348300,3.108348388671875,-0.03967700153589249,-0.9608719944953918,-0.30974799394607544
1788108187916439600,3.118439453125,0.39400801062583923,-1.0502489805221558,-0.6963729858398438
1788108187926535000,3.128534912109375,-0.663532018661499,-0.40976500511169434,-0.5970280170440674
1788108187936623400,3.138623291015625,-0.45860201120376587,0.3696399927139282,-0.28011900186538696
1788108187946707700,3.148707763671875,0.1709360033273697,0.7066559791564941,-0.01278000045567751
1788108187956804000,3.15880419921875,0.9572709798812866,1.1857600212097168,-0.5205720067024231
1788108187966900000,3.16889990234375,1.7267309427261353,1.4239840507507324,-1.4324480295181274
1788108187976995600,3.17899560546875,1.628059983253479,1.5382490158081055,-1.9881199598312378
1788108187987086800,3.1890869140625,0.5445830225944519,1.5771420001983643,-1.6442370414733887
1788108187997172500,3.19917236328125,0.38466399908065796,1.361085057258606,-0.9787049889564514
1788108188007269000,3.20926904296875,0.27911099791526794,0.7950299978256226,-0.6294130086898804
1788108188017356500,3.2193564453125,0.6341819763183594,0.41258999705314636,-0.3283349871635437
1788108188027452700,3.22945263671875,1.1251729726791382,0.10301200300455093,-0.27293699979782104
1788108188037576000,3.239575927734375,1.3050669431686401,0.26396799087524414,0.26253199577331543
1788108188057764400,3.259764404296875,1.0788630247116089,0.33499500155448914,-0.16818100214004517
1788108188067854600,3.2698544921875,0.5399219989776611,0.3338649868965149,-0.49548399448394775
1788108188077952000,3.279951904296875,0.20462100207805634,0.35485100746154785,-0.701125979423523
1788108188088038000,3.290037841796875,0.04746299982070923,0.3580780029296875,-0.48234501481056213
1788108188098128400,3.30012841796875,0.012887000106275082,0.1867939978837967,-0.323172003030777
1788108188108221400,3.310221435546875,-0.2628920078277588,0.05414300039410591,-0.2533769905567169
1788108188118312200,3.320312255859375,-0.5112460255622864,0.10393500328063965,-0.36947500705718994
1788108188128398000,3.330398193359375,-0.8873639702796936,0.1480260044336319,-0.2870340049266815
1788108188138494000,3.340493896484375,-0.7744960188865662,0.21037599444389343,-0.24238799512386322
1788108188148584700,3.350584716796875,-0.4868060052394867,0.08815199881792068,-0.09629300236701965
1788108188158680800,3.360680908203125,-0.5552189946174622,0.13934899866580963,0.0036349999718368053
1788108188168771800,3.370771728515625,-0.12089800089597702,0.1980859935283661,-0.001500000013038516
1788108188178871600,3.38087158203125,-0.0892769992351532,0.15865199267864227,-0.18767499923706055
1788108188188961500,3.39096142578125,0.13759000599384308,0.15298199653625488,-0.15274900197982788
1788108188199055000,3.40105517578125,-0.09859400242567062,-0.054545000195503235,0.15868599712848663
1788108188209142000,3.41114208984375,-0.018976999446749687,-0.10226400196552277,0.20005600154399872
1788108188219237600,3.421237548828125,0.44220098853111267,-0.08052100241184235,0.20053300261497498
1788108188229332500,3.43133251953125,1.023833990097046,-0.06466100364923477,-0.12867799401283264
1788108188239427600,3.441427490234375,1.536666989326477,0.15686999261379242,-0.3989199995994568
1788108188249509000,3.451509033203125,0.989113986492157,0.0642710030078888,-0.3319289982318878
1788108188259613400,3.461613525390625,0.7382580041885376,-0.16400699317455292,-0.030091000720858574
1788108188269705200,3.471705322265625,0.3137049973011017,-0.5949649810791016,0.3921259939670563
1788108188279797000,3.481796875,0.059758998453617096,-0.6455860137939453,0.2840360105037689
1788108188289884400,3.491884521484375,-2.909691095352173,0.7636039853096008,-1.634194016456604
1788108188299981600,3.501981689453125,0.6914700269699097,-0.03696899861097336,-1.3067690134048462
1788108188310067200,3.512067138671875,2.3151419162750244,-0.4162279963493347,-0.672435998916626
1788108188320158700,3.52215869140625,3.422821044921875,-0.4424799978733063,0.48409900069236755
1788108188330255000,3.532255126953125,3.0178780555725098,-0.3676010072231293,0.885208010673523
1788108188340358700,3.542358642578125,2.7091169357299805,-0.9104210138320923,0.7296779751777649
1788108188350449000,3.552448974609375,1.826570987701416,-1.1553939580917358,0.6440590023994446
1788108188360545300,3.562545166015625,-0.0379830002784729,-1.7675750255584717,1.3298640251159668
1788108188370636500,3.572636474609375,-2.06735897064209,-1.025776982307434,0.023082999512553215
1788108188380731100,3.582731201171875,-2.903747081756592,-0.8566759824752808,-1.11040198802948
1788108188390821400,3.5928212890625,-2.784466028213501,-0.49522098898887634,-1.3867039680480957
1788108188400913200,3.6029130859375,-2.212625026702881,-0.15991400182247162,-0.965785026550293
1788108188411003100,3.613003173828125,-1.6996699571609497,-0.17554500699043274,-0.5614680051803589
1788108188421094700,3.6230947265625,-1.2211190462112427,-0.4607889950275421,-0.2437029927968979
1788108188431183400,3.633183349609375,-0.813260018825531,-0.6928769946098328,-0.02429099939763546
1788108188441275600,3.643275634765625,-0.21722100675106049,-0.6546180248260498,0.012114999815821648
1788108188451365400,3.653365478515625,0.08483800292015076,-0.5269129872322083,0.035950999706983566
1788108188461455000,3.663455078125,0.41935399174690247,-0.48372501134872437,0.07094699889421463
1788108188471540700,3.673540771484375,0.9562180042266846,-0.19126500189304352,-0.13067099452018738
1788108188481636400,3.68363623046875,1.7301870584487915,0.0010100000072270632,-0.23239900171756744
1788108188491726000,3.69372607421875,2.1779110431671143,0.115665003657341,-0.18005700409412384
1788108188501818600,3.703818603515625,2.9572620391845703,0.26930901408195496,-0.144664004445076
1788108188511908600,3.71390869140625,3.550528049468994,0.4464600086212158,-0.19382800161838531
1788108188521999600,3.72399951171875,3.4393088817596436,0.2876780033111572,0.0007469999836757779
1788108188532086000,3.7340859375,2.8682138919830322,-0.13641700148582458,0.5210390090942383
1788108188542179000,3.744178955078125,2.805432081222534,-0.56010901927948,0.670428991317749
1788108188552265500,3.754265380859375,2.9802920818328857,-0.5582370162010193,1.031980037689209
1788108188562362600,3.764362548828125,2.6042490005493164,-0.28315499424934387,1.3995200395584106
1788108188572447700,3.77444775390625,0.7332140207290649,-0.44571301341056824,1.6181650161743164
1788108188582544000,3.7845439453125,-1.058236002922058,-0.9448509812355042,1.015660047531128
1788108188592638000,3.794637939453125,-2.0834240913391113,-0.7173709869384766,-0.41236498951911926
1788108188602733000,3.804733154296875,-2.11796498298645,0.2216860055923462,-1.3032399415969849
1788108188612822800,3.81482275390625,-1.1097439527511597,0.7929909825325012,-1.3704710006713867
1788108188622930200,3.82493017578125,0.25341999530792236,0.8391979932785034,-0.8208019733428955
1788108188633011200,3.83501123046875,1.375553011894226,0.9075509905815125,0.0017849999712780118
1788108188643119000,3.845119140625,1.706508994102478,0.9542490243911743,0.8856179714202881
1788108188653209300,3.855209228515625,1.437283992767334,0.5462489724159241,0.9622560143470764
1788108188663308800,3.865308837890625,1.2062499523162842,0.44850999116897583,0.3874480128288269
1788108188673399600,3.875399658203125,1.036012053489685,0.8578349947929382,0.16716399788856506
1788108188683490600,3.885490478515625,0.9020370244979858,1.2998980283737183,0.2330860048532486
1788108188693584100,3.895584228515625,1.1319040060043335,1.298082947731018,0.1151989996433258
1788108188703680500,3.905680419921875,1.3856780529022217,1.0329469442367554,-0.01850299909710884
1788108188713759200,3.91575927734375,1.2391879558563232,0.8894990086555481,0.34306800365448
1788108188723857200,3.925857177734375,0.8861089944839478,0.9370530247688293,0.5483599901199341
1788108188733950200,3.9359501953125,0.17087699472904205,0.9757239818572998,0.28010299801826477
1788108188744050000,3.9460498046875,-1.1448709964752197,1.3842229843139648,-0.09226600080728531
1788108188754145300,3.956145263671875,-2.8136301040649414,1.986989974975586,-0.6662960052490234
1788108188764233700,3.966233642578125,-4.207793235778809,2.1715149879455566,-1.2651710510253906
1788108188774317600,3.976317626953125,-5.492086887359619,1.7679749727249146,-1.5732719898223877
1788108188784403000,3.98640283203125,-6.001533031463623,1.7157360315322876,-1.8078689575195312
1788108188794496800,3.996496826171875,-5.577997207641602,1.800495982170105,-1.868021011352539
1788108188804588000,4.006588134765625,-3.469862937927246,1.5878239870071411,-1.9700829982757568
1788108188814679300,4.01667919921875,-0.6538140177726746,0.6478700041770935,-1.7722660303115845
1788108188824771800,4.026771728515625,2.182990074157715,-0.33739298582077026,-1.0657670497894287
1788108188834855000,4.03685498046875,4.355672836303711,-0.9611920118331909,-0.3849410116672516
1788108188844941600,4.046941650390625,5.78862190246582,-1.2984739542007446,0.1464329957962036
1788108188855029500,4.057029541015625,5.9371490478515625,-1.3575880527496338,0.6691399812698364
1788108188865126400,4.06712646484375,4.801630973815918,-1.4220529794692993,0.700639009475708
1788108188875224000,4.07722412109375,2.935408115386963,-1.5618319511413574,0.22002099454402924
1788108188885313500,4.0873134765625,1.2095799446105957,-1.7310429811477661,-0.25893399119377136
1788108188895403300,4.0974033203125,-0.0656379982829094,-1.8727320432662964,-0.6066460013389587
1788108188905500400,4.10750048828125,-0.9989640116691589,-2.2059528827667236,-0.632125973701477
1788108188915588000,4.117588134765625,-1.8713610172271729,-2.547792911529541,-0.250573992729187
1788108188925681700,4.127681640625,-2.483125925064087,-3.0616540908813477,0.31081900000572205
1788108188935772700,4.137772705078125,-2.700309991836548,-3.5972609519958496,0.7883840203285217
1788108188945865000,4.147864990234375,-2.8662850856781006,-4.081411838531494,1.1203420162200928
1788108188955953700,4.15795361328125,-3.1036300659179688,-4.5491838455200195,1.3720500469207764
1788108188966045700,4.168045654296875,-3.4537839889526367,-4.819815158843994,1.4402040243148804
1788108188976130800,4.178130859375,-3.5522189140319824,-4.936044216156006,1.2804739475250244
1788108188986222600,4.18822265625,-3.4642601013183594,-4.883677005767822,0.9349150061607361
1788108188996313000,4.19831298828125,-3.205288887023926,-4.8480682373046875,0.5819039940834045
1788108189006403300,4.2084033203125,-2.6872169971466064,-4.789200782775879,0.3064599931240082
1788108189016494000,4.218494140625,-2.4425179958343506,-4.698351860046387,0.28490298986434937
1788108189026587100,4.228587158203125,-2.218672037124634,-4.711554050445557,0.3419159948825836
1788108189036679000,4.238678955078125,-1.9337270259857178,-4.3507280349731445,0.39709100127220154
1788108189046778600,4.248778564453125,-1.992879033088684,-3.787658929824829,0.3632679879665375
1788108189056878600,4.258878662109375,-2.10475492477417,-3.1711840629577637,0.2184469997882843
1788108189066974500,4.268974365234375,-2.2271740436553955,-2.4615910053253174,-0.028246000409126282
1788108189077060000,4.27906005859375,-1.8814159631729126,-1.7087459564208984,-0.4658080041408539
1788108189087154700,4.28915478515625,-0.9897050261497498,-0.624770998954773,-0.7993559837341309
1788108189097248800,4.299248779296875,0.2240470051765442,0.5613160133361816,-0.6633509993553162
1788108189107344400,4.309344482421875,1.4795379638671875,1.5861870050430298,-0.3733440041542053
1788108189117431000,4.31943115234375,2.527216911315918,2.110426902770996,-0.11179599910974503
1788108189127526400,4.3295263671875,4.170126914978027,2.37349009513855,-0.16226699948310852
1788108189137615400,4.339615478515625,5.126832008361816,2.4417500495910645,-0.3424220085144043
1788108189147702500,4.34970263671875,5.138620853424072,2.624222993850708,-0.953357994556427
1788108189157791500,4.35979150390625,2.841710090637207,2.6208879947662354,-1.6164809465408325
1788108189167883500,4.369883544921875,2.7539749145507812,2.486531972885132,0.1366879940032959
1788108189177979100,4.379979248046875,6.923255920410156,2.577986001968384,1.413362979888916
1788108189188069600,4.390069580078125,9.594154357910156,2.5228168964385986,1.522094964981079
1788108189198159400,4.400159423828125,7.392144203186035,3.0793509483337402,0.965080976486206
1788108189208244200,4.410244140625,4.715252876281738,3.7436320781707764,1.416646957397461
1788108189218335000,4.4203349609375,2.7567241191864014,3.946368932723999,0.8528040051460266
1788108189228425700,4.43042578125,2.072568893432617,3.4215710163116455,-0.6364390254020691
1788108189238521000,4.44052099609375,1.8960139751434326,4.041869163513184,-2.775973081588745
1788108189248617200,4.4506171875,1.7620790004730225,5.352503776550293,-3.498389959335327
1788108189258716400,4.46071630859375,2.2624878883361816,4.681600093841553,-2.372545003890991
1788108189268805600,4.4708056640625,4.033987045288086,3.6253130435943604,-0.9360989928245544
1788108189278902300,4.48090234375,3.7873148918151855,2.8005309104919434,0.7814909815788269
1788108189288994300,4.490994384765625,3.453598976135254,2.033324956893921,1.7678719758987427
1788108189299086800,4.5010869140625,2.383929967880249,1.1766140460968018,2.023339033126831
1788108189309186300,4.511186279296875,1.5369839668273926,0.6643750071525574,1.8135629892349243
1788108189319283000,4.521282958984375,0.2737079858779907,0.06330200284719467,1.271685004234314
1788108189329376800,4.531376708984375,-0.6949080228805542,-0.10299699753522873,1.104773998260498
1788108189339475500,4.541475341796875,-0.9956640005111694,-0.3074209988117218,0.7917309999465942
1788108189349560000,4.55156005859375,-1.1134569644927979,-0.6505879759788513,0.12375199794769287
1788108189359658200,4.561658203125,-1.3953160047531128,0.31285300850868225,0.7766879796981812
1788108189369746200,4.57174609375,-1.2434439659118652,-1.5650180578231812,-1.5611000061035156
1788108189379841300,4.58184130859375,-1.8179080486297607,-1.2845540046691895,-1.9708479642868042
1788108189389927000,4.591927001953125,-2.6217429637908936,-0.8095420002937317,-1.2537670135498047
1788108189400020700,4.602020751953125,-2.4500019550323486,-0.8637890219688416,-1.512855052947998
1788108189410113300,4.61211328125,-1.9393800497055054,-0.8724669814109802,-1.5779709815979004
1788108189420209400,4.62220947265625,-1.621785044670105,-0.8970410227775574,-1.2317850589752197
1788108189430319000,4.632319091796875,-1.2558989524841309,-1.018623948097229,-0.9735770225524902
1788108189440411100,4.6424111328125,-1.0293550491333008,-1.3774609565734863,-0.6923350095748901
1788108189450507800,4.6525078125,-0.928583025932312,-1.7878650426864624,-0.39443498849868774
1788108189460600800,4.662600830078125,-0.8954600095748901,-2.0206849575042725,-0.37226399779319763
1788108189470689300,4.672689208984375,-1.2378979921340942,-1.9146389961242676,-0.6542659997940063
1788108189480778800,4.68277880859375,-1.6841590404510498,-1.5872869491577148,-1.026381015777588
1788108189490866000,4.692865966796875,-1.800318956375122,-1.3821669816970825,-1.1414929628372192
1788108189500956000,4.702955810546875,-1.5949410200119019,-1.3461940288543701,-1.1440540552139282
1788108189511042300,4.713042236328125,-1.2776850461959839,-1.4974819421768188,-1.1610339879989624
1788108189521135400,4.72313525390625,-0.9149609804153442,-1.490265965461731,-1.0474460124969482
1788108189531220700,4.733220703125,-0.7226099967956543,-1.3195029497146606,-0.7410659790039062
1788108189541308200,4.74330810546875,-0.5028510093688965,-1.2160149812698364,-0.42184698581695557
1788108189551397000,4.753397216796875,-0.3602119982242584,-1.280964970588684,-0.3885140120983124
1788108189561484800,4.76348486328125,-0.31697800755500793,-1.3418910503387451,-0.29291999340057373
1788108189571572700,4.77357275390625,-0.29501399397850037,-1.3100589513778687,-0.14155399799346924
1788108189581666600,4.78366650390625,-0.1905599981546402,-1.1621400117874146,-0.0006419999990612268
1788108189591740700,4.79374072265625,0.05911000072956085,-0.9999619722366333,-0.08689600229263306
1788108189601831200,4.8038310546875,0.1437399983406067,-0.8502560257911682,-0.40233901143074036
1788108189611918800,4.8139189453125,-0.08139999955892563,-0.65482497215271,-0.7525449991226196
1788108189622003500,4.82400341796875,-0.4192869961261749,-0.5662220120429993,-1.08302903175354
1788108189632094000,4.834093994140625,-0.726842999458313,-0.44224101305007935,-1.22946298122406
1788108189642189600,4.844189453125,-0.7989519834518433,-0.3332720100879669,-1.1891440153121948
1788108189652267300,4.854267333984375,-0.7716109752655029,-0.28097400069236755,-0.8950909972190857
1788108189662366700,4.86436669921875,-0.6281750202178955,-0.07441999763250351,-0.6387959718704224
1788108189672453000,4.874453125,-0.4948830008506775,0.07496099919080734,-0.4877859950065613
1788108189682546000,4.8845458984375,-0.3909130096435547,0.1447799950838089,-0.4709089994430542
1788108189692640300,4.89464013671875,-0.4538609981536865,0.18689100444316864,-0.2768169939517975
1788108189702733600,4.904733642578125,-0.6522009968757629,0.38160601258277893,-0.04824100062251091
1788108189712821200,4.9148212890625,-0.7417119741439819,0.5624449849128723,-0.15035100281238556
1788108189722923000,4.924923095703125,-0.6826480031013489,0.7368339896202087,-0.3171040117740631
1788108189733027600,4.935027587890625,-0.5954800248146057,0.9411230087280273,-0.3809340000152588
1788108189743125500,4.94512548828125,-0.43228501081466675,1.1177899837493896,-0.4634830057621002
1788108189753214500,4.95521435546875,-0.1517540067434311,1.3143739700317383,-0.5879409909248352
1788108189763309800,4.965309814453125,0.16593700647354126,1.354725956916809,-0.6440399885177612
1788108189773402600,4.975402587890625,0.3878970146179199,1.4354480504989624,-0.6838359832763672
1788108189783491800,4.985491943359375,0.48860999941825867,1.4346699714660645,-0.7230420112609863
1788108189793584400,4.99558447265625,0.5847219824790955,1.31740403175354,-0.640703022480011
1788108189803680500,5.005680419921875,0.6914269924163818,1.2275049686431885,-0.5728809833526611
1788108189813768700,5.015768798828125,0.7260519862174988,1.0883510112762451,-0.4902229905128479
1788108189823863000,5.025863037109375,0.7477319836616516,1.1223900318145752,-0.5431079864501953
1788108189833959200,5.035959228515625,0.7380250096321106,1.265254020690918,-0.5994910001754761
1788108189844052000,5.046052001953125,0.5604429841041565,1.265194058418274,-0.6357809901237488
1788108189854143000,5.05614306640625,0.24344000220298767,1.2021650075912476,-0.6768440008163452
1788108189864236500,5.066236572265625,-0.2157599925994873,1.1732369661331177,-0.6217269897460938
1788108189874330400,5.076330322265625,-0.4684849977493286,1.044664978981018,-0.6578289866447449
1788108189884424700,5.0864248046875,-0.4461199939250946,0.8361499905586243,-0.562699019908905
1788108189894513700,5.096513671875,0.010621000081300735,0.8974199891090393,-0.3586069941520691
1788108189914695200,5.116695068359375,0.8524479866027832,0.8774909973144531,-0.028582999482750893
1788108189924783400,5.126783447265625,0.8695510029792786,0.5839880108833313,-0.042465999722480774
1788108189934868500,5.136868408203125,0.5929719805717468,0.28538501262664795,0.02797500044107437
1788108189944962000,5.146962158203125,0.42053601145744324,0.08776500076055527,0.038423001766204834
1788108189955039000,5.1570390625,0.4122909903526306,-0.08409299701452255,-0.07067900151014328
1788108189965132000,5.167132080078125,0.4807870090007782,-0.21783199906349182,-0.07358399778604507
1788108189975224000,5.17722412109375,0.4079970121383667,-0.34196001291275024,-0.04916299879550934
1788108189985320700,5.18732080078125,0.16801999509334564,-0.45461100339889526,-0.0032450000289827585
1788108189995405600,5.197405517578125,-0.13959500193595886,-0.629285991191864,-0.12037599831819534
1788108190005504800,5.2075048828125,-0.44276899099349976,-0.784699022769928,-0.23951399326324463
1788108190015597800,5.217597900390625,-0.7240390181541443,-0.9342790246009827,-0.3285079896450043
1788108190025710800,5.2277109375,-0.868556022644043,-1.1435940265655518,-0.4089300036430359
1788108190035803100,5.23780322265625,-0.7794449925422668,-1.0915549993515015,-0.3644860088825226
1788108190045909800,5.24790966796875,-0.5631440281867981,-0.9690009951591492,-0.20043599605560303
1788108190055994000,5.257994140625,-0.3720420002937317,-0.8842080235481262,-0.2299409955739975
1788108190066082800,5.268082763671875,-0.3496769964694977,-1.028540015220642,-0.39327898621559143
1788108190076167000,5.2781669921875,-0.5252150297164917,-1.0655759572982788,-0.39209499955177307
1788108190086255000,5.288255126953125,-0.5693820118904114,-0.9719409942626953,-0.3420200049877167
1788108190096342000,5.298342041015625,-0.44513800740242004,-0.9038490056991577,-0.3425000011920929
1788108190106434300,5.308434326171875,-0.3875190019607544,-0.9016420245170593,-0.40673398971557617
1788108190116530700,5.31853076171875,-0.3125320076942444,-0.8626689910888672,-0.30201199650764465
1788108190126626300,5.328626220703125,-0.2664340138435364,-0.7637789845466614,-0.16671299934387207
1788108190136718800,5.33871875,-0.13989000022411346,-0.7254520058631897,-0.11877299845218658
1788108190146813400,5.3488134765625,0.031042000278830528,-0.9522020220756531,-0.08692499995231628
1788108190156904000,5.358904052734375,0.2300799936056137,-1.0242459774017334,0.11423599720001221
1788108190166997200,5.368997314453125,0.5108669996261597,-0.7939550280570984,0.46873000264167786
1788108190177096400,5.379096435546875,0.4489780068397522,-0.5060459971427917,0.5627099871635437
1788108190187185700,5.389185546875,0.16246700286865234,-0.46371400356292725,0.06165499985218048
1788108190197276400,5.3992763671875,-0.31815099716186523,-0.49531999230384827,-0.2899470031261444
1788108190207373300,5.409373291015625,-0.9697759747505188,-0.3156239986419678,-0.25420600175857544
1788108190217467100,5.419467041015625,-1.1143250465393066,-0.17402899265289307,-0.17049600183963776
1788108190227563300,5.429563232421875,-0.7609919905662537,-0.21912099421024323,-0.15996499359607697
1788108190237656000,5.439656005859375,-0.34693801403045654,-0.21318000555038452,-0.047485001385211945
1788108190247748900,5.449748779296875,0.061549000442028046,0.09944900125265121,0.1862660050392151
1788108190257841700,5.459841552734375,0.44105198979377747,0.1992730051279068,0.2909179925918579
1788108190267932000,5.469931884765625,0.6119049787521362,0.0719280019402504,0.12107899785041809
1788108190278024000,5.48002392578125,0.4787819981575012,-0.020614000037312508,-0.053904999047517776
1788108190288104000,5.49010400390625,0.26093098521232605,-0.05761900171637535,-0.09852399677038193
1788108190298193400,5.500193359375,0.10724200308322906,-0.023693999275565147,-0.14785300195217133
1788108190308286200,5.5102861328125,0.16855700314044952,0.1002189964056015,-0.19294999539852142
1788108190318376700,5.520376708984375,0.2858709990978241,0.13053199648857117,-0.17974500358104706
1788108190328468700,5.53046875,0.5325070023536682,0.04238000139594078,0.004271999932825565
1788108190338567700,5.540567626953125,0.6086410284042358,-0.05241899937391281,0.2556770145893097
1788108190348658000,5.550657958984375,0.7582520246505737,-0.08592099696397781,0.41878798604011536
1788108190358746600,5.56074658203125,0.7257900238037109,-0.04138199985027313,0.5078840255737305
1788108190368843800,5.57084375,0.6370030045509338,0.004896999802440405,0.4154619872570038
1788108190378939400,5.580939453125,0.5384439826011658,0.06460300087928772,0.2885279953479767
1788108190389021000,5.59102099609375,0.34466999769210815,0.22313599288463593,0.2672480046749115
1788108190399120400,5.601120361328125,0.06619399785995483,0.25166600942611694,0.25411999225616455
1788108190409206500,5.61120654296875,-0.1080079972743988,0.11827299743890762,0.24481500685214996
1788108190419300400,5.62130029296875,-0.0041069998405873775,0.0603180006146431,0.4019469916820526
1788108190429388000,5.631387939453125,0.5361160039901733,0.09561900049448013,0.682341992855072
1788108190439482000,5.641482177734375,1.1078280210494995,0.012543999589979649,0.892113983631134
1788108190449569300,5.6515693359375,1.4550830125808716,-0.1132040023803711,1.0882439613342285
1788108190459665700,5.661665771484375,1.410202980041504,-0.13774099946022034,1.1823309659957886
1788108190469748000,5.671748046875,0.991117000579834,-0.3025690019130707,1.0445460081100464
1788108190479846400,5.681846435546875,0.4957770109176636,-0.4198729991912842,0.7357940077781677
1788108190489944800,5.69194482421875,-0.06423699855804443,-0.3925969898700714,0.40738698840141296
1788108190500035300,5.702035400390625,-0.42346200346946716,-0.20037999749183655,0.07220300287008286
1788108190510133500,5.712133544921875,-0.6623079776763916,0.1973540037870407,-0.22517800331115723
1788108190520232000,5.72223193359375,-0.9105910062789917,0.47495099902153015,-0.4026150107383728
1788108190530321200,5.732321044921875,-1.1337430477142334,0.5007849931716919,-0.5215780138969421
1788108190540420400,5.74242041015625,-1.220342993736267,0.2059130072593689,-0.3836190104484558
1788108190550522600,5.752522705078125,-1.1127430200576782,0.17591699957847595,-0.02433300018310547
1788108190560620800,5.762620849609375,-0.7450829744338989,0.4050840139389038,0.3169580101966858
1788108190570702300,5.772702392578125,-0.031589001417160034,0.33067798614501953,0.3645850121974945
1788108190580791300,5.782791259765625,0.7006469964981079,0.020191000774502754,0.4700460135936737
1788108190590885600,5.7928857421875,1.4944579601287842,0.09631700068712234,0.7028499841690063
1788108190600979700,5.802979736328125,1.8818279504776,0.1313219964504242,0.5361779928207397
1788108190611062500,5.8130625,1.7140729427337646,0.09589699655771255,-0.0351409986615181
1788108190621153500,5.823153564453125,1.065194010734558,0.1715400069952011,-0.5354380011558533
1788108190631239200,5.8332392578125,0.16839599609375,0.2713620066642761,-0.6591339707374573
1788108190641329400,5.843329345703125,-0.22385099530220032,0.2855370044708252,-0.43885698914527893
1788108190651434800,5.853434814453125,0.06752999871969223,0.16419099271297455,0.10459200292825699
1788108190661528800,5.86352880859375,0.6669700145721436,0.05080199986696243,0.6741899847984314
1788108190671618800,5.873618896484375,1.1456079483032227,-0.07529100030660629,0.98505699634552
1788108190681702700,5.88370263671875,1.1117949485778809,-0.29366201162338257,1.088407039642334
1788108190691784700,5.89378466796875,0.5984089970588684,-0.4427259862422943,0.9429699778556824
1788108190701873700,5.903873779296875,-0.37049201130867004,-0.4146510064601898,0.3107050061225891
1788108190711953700,5.91395361328125,-1.261497974395752,-0.3201049864292145,-0.20115900039672852
1788108190722048500,5.924048583984375,-1.7088799476623535,-0.2369150072336197,-0.6017789840698242
1788108190732134400,5.934134521484375,-1.7773020267486572,-0.17548799514770508,-0.6776390075683594
1788108190742235600,5.944235595703125,-1.2684170007705688,-0.20859700441360474,-0.4349310100078583
1788108190752317700,5.954317626953125,-0.2575039863586426,-0.3805199861526489,0.07911700010299683
1788108190762415000,5.9644150390625,0.9409589767456055,-0.5447009801864624,0.8202099800109863
1788108190772498700,5.974498779296875,1.9419749975204468,-0.5288199782371521,1.3242980241775513
1788108190782596400,5.984596435546875,2.3102190494537354,-0.5285189747810364,1.4433399438858032
1788108190792679400,5.994679443359375,2.1105120182037354,-0.8880730271339417,1.2254209518432617
1788108190802773000,6.00477294921875,1.3573789596557617,-1.1006020307540894,0.817130982875824
1788108190812857300,6.014857421875,0.565684974193573,-0.8229150176048279,0.4779370129108429
1788108190822959000,6.024958984375,0.015610000118613243,-0.48875701427459717,0.30598899722099304
1788108190833047300,6.03504736328125,-0.18880200386047363,-0.3213050067424774,0.02570199966430664
1788108190843135500,6.045135498046875,-0.245278000831604,-0.3110109865665436,0.1905200034379959
1788108190853230600,6.055230712890625,0.048200998455286026,-0.2920129895210266,0.6679120063781738
1788108190863331800,6.065331787109375,0.5472310185432434,-0.3621729910373688,1.1584010124206543
1788108190873421000,6.075421142578125,0.8721179962158203,-0.39921000599861145,1.327165961265564
1788108190883517400,6.085517333984375,0.9834870100021362,-0.43577900528907776,1.26454496383667
1788108190893604000,6.09560400390625,0.9246349930763245,-0.5394530296325684,1.1382839679718018
1788108190903694600,6.105694580078125,0.7942609786987305,-0.6131200194358826,1.023089051246643
1788108190913781000,6.115781005859375,0.5576140284538269,-0.5597450137138367,0.8420019745826721
1788108190923880400,6.12588037109375,0.45196300745010376,-0.4208250045776367,0.5788840055465698
1788108190933978400,6.135978271484375,0.35092198848724365,-0.3190920054912567,0.444566011428833
1788108190944066600,6.146066650390625,0.27219098806381226,-0.23172900080680847,0.40355101227760315
1788108190954164200,6.156164306640625,0.22818200290203094,-0.18432599306106567,0.3031739890575409
1788108190964256500,6.166256591796875,0.3108839988708496,-0.0741259977221489,0.29002100229263306
1788108190974353700,6.176353759765625,0.3956499993801117,-0.006713999900966883,0.43925198912620544
1788108190984439800,6.186439697265625,0.5249260067939758,-0.052021998912096024,0.5357959866523743
1788108190994529800,6.19652978515625,0.631151020526886,-0.08485600352287292,0.7007750272750854
1788108191004622300,6.206622314453125,0.6302490234375,-0.19543200731277466,0.7929250001907349
1788108191014715100,6.216715087890625,0.6014959812164307,-0.3151400089263916,0.7569659948348999
1788108191024803300,6.22680322265625,0.6260370016098022,-0.4274129867553711,0.6418120265007019
1788108191034899200,6.236899169921875,0.7395820021629333,-0.3762950003147125,0.6277480125427246
1788108191044985300,6.2469853515625,0.9109269976615906,-0.23289500176906586,0.6133739948272705
1788108191055076400,6.257076416015625,0.9417539834976196,-0.2316810041666031,0.5712800025939941
1788108191065164800,6.267164794921875,0.9972969889640808,-0.2772580087184906,0.5800759792327881
1788108191075253000,6.2772529296875,1.0887130498886108,-0.44311100244522095,0.6628689765930176
1788108191085342700,6.2873427734375,1.3458709716796875,-0.3652769923210144,0.7260209918022156
1788108191095435800,6.297435791015625,1.386152982711792,-0.14255699515342712,0.7321479916572571
1788108191105525500,6.307525390625,1.0382440090179443,-0.23842300474643707,0.5612210035324097
1788108191115622700,6.31762255859375,0.595209002494812,-0.5210869908332825,0.3923589885234833
1788108191125709300,6.327709228515625,0.24738900363445282,-0.6104099750518799,0.435822993516922
1788108191135800300,6.33780029296875,0.2744379937648773,-0.5538589954376221,0.4990130066871643
1788108191145896200,6.347896240234375,0.3731969892978668,-0.4876430034637451,0.3991430103778839
1788108191155976700,6.357976806640625,0.3267349898815155,-0.5436229705810547,0.31038400530815125
1788108191166073600,6.368073486328125,0.1004600003361702,-0.5098699927330017,0.21821999549865723
1788108191176159700,6.37815966796875,-0.2334350049495697,-0.4613580107688904,0.14137400686740875
1788108191186240000,6.388239990234375,-0.4770379960536957,-0.40953201055526733,-0.03422899916768074
1788108191196324400,6.398324462890625,-0.6260589957237244,-0.3410699963569641,-0.19528299570083618
1788108191206421000,6.4084208984375,-0.6162610054016113,-0.2840220034122467,-0.24288100004196167
1788108191216509700,6.418509765625,-0.5473200082778931,-0.3537929952144623,-0.1659660041332245
1788108191226615600,6.428615478515625,-0.4115630090236664,-0.3898240029811859,0.020471999421715736
1788108191236704000,6.4387041015625,-0.3303920030593872,-0.3058969974517822,0.1750739961862564
1788108191246797300,6.44879736328125,-0.3796899914741516,-0.2943049967288971,0.17536599934101105
1788108191256886500,6.458886474609375,-0.4782710075378418,-0.42969799041748047,0.1137859970331192
1788108191266976800,6.468976806640625,-0.4828439950942993,-0.5650190114974976,0.23437899351119995
1788108191277069300,6.4790693359375,-0.27357301115989685,-0.46449100971221924,0.3797149956226349
1788108191287160300,6.489160400390625,0.07815799862146378,-0.16942700743675232,0.3251489996910095
1788108191297262600,6.4992626953125,0.2088640034198761,-0.062150999903678894,0.11018600314855576
1788108191307350800,6.509350830078125,-0.0051910001784563065,-0.06607100367546082,-0.09646599739789963
1788108191317450500,6.519450439453125,-0.346112996339798,0.0688289999961853,-0.24581199884414673
1788108191327541800,6.529541748046875,-0.399181991815567,0.26423799991607666,-0.31810298562049866
1788108191337624800,6.539624755859375,-0.3237450122833252,0.4076260030269623,-0.3717460036277771
1788108191347702300,6.549702392578125,-0.30235400795936584,0.3529379963874817,-0.4030959904193878
1788108191357793500,6.55979345703125,-0.25637200474739075,0.5158650279045105,-0.303723007440567
1788108191367886600,6.569886474609375,-0.23020200431346893,0.56038498878479,-0.13385100662708282
1788108191377975800,6.579975830078125,-0.2420710027217865,0.4697670042514801,-0.09291800111532211
1788108191388066300,6.59006640625,-0.3439669907093048,0.42024800181388855,-0.14032800495624542
1788108191398156300,6.60015625,-0.5694829821586609,0.49736499786376953,-0.22975799441337585
1788108191408249600,6.61024951171875,-0.8137549757957458,0.4939979910850525,-0.3624190092086792
1788108191418345000,6.620344970703125,-0.9389179944992065,0.31896400451660156,-0.3782849907875061
1788108191428439000,6.63043896484375,-0.8611389994621277,0.23028600215911865,-0.18884700536727905
1788108191438534700,6.64053466796875,-0.6886900067329407,0.2633199989795685,0.023141000419855118
1788108191448630000,6.650630126953125,-0.40101000666618347,0.23375199735164642,0.07026699930429459
1788108191458728700,6.660728759765625,-0.326665997505188,0.2464269995689392,0.02404000051319599
1788108191468823000,6.670822998046875,-0.47600001096725464,0.346794992685318,-0.0052089998498559
1788108191478925300,6.68092529296875,-0.5855550169944763,0.36773499846458435,-0.06059100106358528
1788108191489014800,6.691014892578125,-0.6083459854125977,0.24357199668884277,-0.011215999722480774
1788108191499109000,6.701109130859375,-0.5184710025787354,0.2585909962654114,0.16633200645446777
1788108191509203500,6.711203369140625,-0.23190400004386902,0.3094159960746765,0.3675839900970459
1788108191519300900,6.72130078125,0.2190990000963211,0.24267399311065674,0.5872840285301208
1788108191529394400,6.73139453125,0.5842900276184082,-0.004643999971449375,0.8611350059509277
1788108191539492600,6.74149267578125,0.6363120079040527,-0.3634040057659149,1.0802420377731323
1788108191549579000,6.7515791015625,0.5074710249900818,-0.5036489963531494,1.0388619899749756
1788108191559674000,6.761674072265625,0.0948759987950325,-0.36580899357795715,0.7858039736747742
1788108191569761000,6.771760986328125,-0.4752829968929291,-0.22736799716949463,0.338032990694046
1788108191579855400,6.78185546875,-1.012073040008545,-0.2944340109825134,-0.10885299742221832
1788108191589948400,6.791948486328125,-1.4803709983825684,-0.1770939975976944,-0.3833250105381012
1788108191600041000,6.802041015625,-1.635877013206482,0.07570300251245499,-0.5226050019264221
1788108191610134300,6.81213427734375,-1.6189099550247192,0.43438899517059326,-0.5963039994239807
1788108191620233500,6.8222333984375,-1.4619979858398438,0.5721970200538635,-0.6119369864463806
1788108191630336300,6.832336181640625,-1.291936993598938,0.36821499466896057,-0.4145359992980957
1788108191640426200,6.84242626953125,-0.9173250198364258,0.299221009016037,-0.07497700303792953
1788108191650521300,6.852521240234375,-0.3454979956150055,0.4784480035305023,0.379148006439209
1788108191660603000,6.862602783203125,0.1938830018043518,0.5892400145530701,0.4087589979171753
1788108191670697000,6.872697021484375,0.31104400753974915,0.3688479959964752,0.13843399286270142
1788108191680786200,6.8827861328125,0.08532799780368805,0.19661399722099304,0.043699998408555984
1788108191690881500,6.892881591796875,-0.14776499569416046,0.048280999064445496,0.08842899650335312
1788108191700968400,6.902968505859375,-0.19019100069999695,0.010975000448524952,0.002314999932423234
1788108191711059500,6.9130595703125,0.10031700134277344,0.4056380093097687,-0.24386699497699738
1788108191721152500,6.923152587890625,0.5361809730529785,0.8254669904708862,-0.3785949945449829
1788108191731254300,6.933254150390625,0.724183976650238,1.0988290309906006,-0.48112601041793823
1788108191741340700,6.943340576171875,0.735040009021759,1.02332603931427,-0.5670989751815796
1788108191751431700,6.953431640625,0.6861860156059265,1.0771169662475586,-0.46355101466178894
1788108191761519000,6.96351904296875,0.8078719973564148,1.0249969959259033,-0.09156399965286255
1788108191771608800,6.97360888671875,0.998881995677948,0.839218020439148,0.4042840003967285
1788108191781693400,6.983693359375,1.054682970046997,0.6197149753570557,0.7290509939193726
1788108191791785500,6.993785400390625,1.0078990459442139,0.43275898694992065,1.039458990097046
1788108191801872400,7.003872314453125,0.9448090195655823,0.21950599551200867,1.0620919466018677
1788108191811962000,7.013962158203125,0.8157659769058228,-0.08745899796485901,0.9012550115585327
1788108191822047700,7.0240478515625,0.5113649964332581,-0.4370740056037903,0.659604012966156
1788108191832141300,7.034141357421875,-0.09734900295734406,-0.48965200781822205,0.3656879961490631
1788108191842226200,7.04422607421875,-0.5706800222396851,-0.46594300866127014,0.16793599724769592
1788108191852316000,7.05431591796875,-1.061676025390625,-0.38551199436187744,0.13628600537776947
1788108191862396200,7.064396240234375,-1.691406011581421,-0.40769898891448975,0.15598900616168976
1788108191872497200,7.0744970703125,-1.9045779705047607,-0.45650699734687805,0.026575999334454536
1788108191882588700,7.084588623046875,-1.899865984916687,-0.4446350038051605,-0.17167000472545624
1788108191892690700,7.094690673828125,-1.8509360551834106,-0.1372479945421219,-0.4754849970340729
1788108191902773200,7.104773193359375,-1.5437819957733154,-0.09229999780654907,-0.45180898904800415
1788108191912872000,7.114871826171875,-1.1689300537109375,-0.5905020236968994,0.14912599325180054
1788108191922962400,7.12496240234375,-0.7443990111351013,0.03542099893093109,-0.10136400163173676
1788108191933057300,7.135057373046875,0.09063400328159332,-0.010215999558568,-0.6186310052871704
1788108191943143400,7.145143310546875,0.5001919865608215,-0.7674750089645386,-0.2464209944009781
1788108191953236000,7.155236083984375,0.7188010215759277,-0.6346889734268188,-0.12851400673389435
1788108191963328500,7.16532861328125,0.9866210222244263,-0.4034790098667145,-0.26021599769592285
1788108191973423000,7.175423095703125,0.8779129981994629,-0.4815790057182312,-0.3339200019836426
1788108191983515400,7.185515380859375,0.606719970703125,-0.6473609805107117,-0.3428789973258972
1788108191993615000,7.195614990234375,0.25696200132369995,-0.6059790253639221,-0.36465200781822205
1788108192003708700,7.205708740234375,0.2670460045337677,-0.3162379860877991,-0.4381200075149536
1788108192013795600,7.215795654296875,0.2881009876728058,-0.21936699748039246,-0.3629310131072998
1788108192023895300,7.225895263671875,0.08258499950170517,-0.39213699102401733,-0.17611199617385864
1788108192033991000,7.235990966796875,-0.1548449993133545,-0.48268601298332214,-0.050317998975515366
1788108192044086300,7.246086181640625,-0.2767139971256256,-0.3965289890766144,-0.04940599948167801
1788108192054182100,7.25618212890625,-0.36833301186561584,-0.3120410144329071,-0.10952100157737732
1788108192064276700,7.26627685546875,-0.381182998418808,-0.2443159967660904,-0.236627995967865
1788108192074366500,7.276366455078125,-0.2281769961118698,-0.1443749964237213,-0.3442719876766205
1788108192084464400,7.28646435546875,-0.14483900368213654,-0.12128700315952301,-0.6007469892501831
1788108192094599200,7.29659912109375,-0.20371200144290924,-0.15003199875354767,-0.5745639801025391
1788108192104691700,7.306691650390625,-0.11434800177812576,-0.2066890001296997,-0.4992299973964691
1788108192114783000,7.316782958984375,0.11588899791240692,-0.3014580011367798,-0.06520900130271912
1788108192124865500,7.326865478515625,-0.012505999766290188,0.14664199948310852,-0.48557499051094055
1788108192134961000,7.3369609375,0.15569399297237396,0.3689059913158417,-0.6067349910736084
1788108192145042700,7.347042724609375,-0.626899003982544,0.20457899570465088,0.2209630012512207
1788108192155127300,7.357127197265625,0.9839370250701904,0.29222699999809265,0.00747800013050437
1788108192165209900,7.3672099609375,0.8593279719352722,-0.6240699887275696,-0.11856699734926224
1788108192175301400,7.37730126953125,0.09777499735355377,0.46645501255989075,-0.6561660170555115
1788108192185394200,7.387394287109375,0.10700500011444092,0.5395259857177734,-0.515438973903656
1788108192195480000,7.39747998046875,0.18390199542045593,0.12326700240373611,-0.41422298550605774
1788108192205576700,7.40757666015625,0.3042440116405487,0.27945899963378906,-0.23504799604415894
1788108192215667200,7.417667236328125,0.22087399661540985,0.22068999707698822,-0.017109999433159828
1788108192225759000,7.427759033203125,0.09873200207948685,0.26027199625968933,-0.051823001354932785
1788108192235851800,7.437851806640625,0.023646000772714615,0.3829439878463745,-0.20627500116825104
1788108192245949400,7.447949462890625,-0.00523399980738759,0.4180150032043457,-0.3051770031452179
1788108192256038400,7.458038330078125,0.09894099831581116,0.3581410050392151,-0.26680299639701843
1788108192266121500,7.46812158203125,0.21706299483776093,0.2242940068244934,-0.2447649985551834
1788108192276211200,7.478211181640625,0.345770001411438,0.16823099553585052,-0.1927880048751831
1788108192286301000,7.488301025390625,0.6113380193710327,0.17970800399780273,-0.10240799933671951
1788108192296382200,7.49838232421875,0.6606709957122803,0.22528299689292908,-0.09897100180387497
1788108192306472400,7.508472412109375,0.6077939867973328,0.21254000067710876,-0.14772500097751617
1788108192316563700,7.518563720703125,0.5318599939346313,0.10394900292158127,-0.13755099475383759
1788108192326660000,7.52866015625,0.4903790056705475,0.020886000245809555,-0.07911700010299683
1788108192336764000,7.538763916015625,0.7447360157966614,0.1073250025510788,-0.016752000898122787
1788108192346858200,7.548858154296875,1.24993097782135,-0.2184540033340454,-0.1597760021686554
1788108192356953900,7.558953857421875,0.515923023223877,-0.4236859977245331,0.22683799266815186
1788108192367042800,7.569042724609375,0.198636993765831,-0.15459799766540527,0.032478999346494675
1788108192377142800,7.579142822265625,-0.26116499304771423,-0.37063801288604736,-0.3227109909057617
1788108192387231500,7.5892314453125,-0.6804599761962891,-0.6920750141143799,-0.5109760165214539
1788108192397323800,7.59932373046875,-0.7497389912605286,-0.7302370071411133,-0.4671730101108551
1788108192407425500,7.609425537109375,-0.6383299827575684,-0.5476120114326477,-0.24105599522590637
1788108192417518600,7.6195185546875,-0.5453550219535828,-0.4957979917526245,0.032235000282526016
1788108192427604700,7.629604736328125,-0.5742059946060181,-0.5047119855880737,0.12108399718999863
1788108192437693000,7.63969287109375,-0.5924760103225708,-0.5907890200614929,0.10781899839639664
1788108192447786800,7.649786865234375,-0.6669780015945435,-0.6305379867553711,-0.02064099907875061
1788108192457885200,7.65988525390625,-0.7507820129394531,-0.6980260014533997,-0.07097899913787842
1788108192467969500,7.669969482421875,-0.6953319907188416,-0.7572389841079712,-0.005173000041395426
1788108192478063400,7.6800634765625,-0.49547699093818665,-0.6099079847335815,-0.047235000878572464
1788108192488153300,7.6901533203125,-0.23015600442886353,-0.23675499856472015,-0.1705700010061264
1788108192498243600,7.70024365234375,-0.031706999987363815,0.06222100183367729,-0.2849609851837158
1788108192508328400,7.710328369140625,-0.31969401240348816,0.20464900135993958,-0.4932500123977661
1788108192518427400,7.720427490234375,-0.35420098900794983,-0.3130109906196594,-0.4334920048713684
1788108192528520200,7.730520263671875,0.05299900099635124,-0.38980600237846375,-0.07117000222206116
1788108192538617000,7.7406171875,0.5299440026283264,0.14244699478149414,0.3282940089702606
1788108192548720400,7.750720458984375,1.036452054977417,-0.08661799877882004,0.5998079776763916
1788108192558825200,7.7608251953125,1.3076419830322266,-1.0058189630508423,1.3849719762802124
1788108192568915700,7.770915771484375,0.685142993927002,-0.4354029893875122,0.3690260052680969
1788108192579010800,7.7810107421875,0.0019509999547153711,-0.8063780069351196,0.2898940145969391
1788108192589099000,7.79109912109375,-0.7855709791183472,-1.386991024017334,0.6969730257987976
1788108192599196400,7.801196533203125,-0.6336060166358948,-1.1116019487380981,0.9411010146141052
1788108192609292800,7.811292724609375,-0.08404400199651718,-0.4745759963989258,1.1116859912872314
1788108192619385600,7.821385498046875,0.14905400574207306,0.1328350007534027,0.9664559960365295
1788108192629480700,7.831480712890625,0.08606000244617462,0.1420540064573288,1.1489219665527344
1788108192639574300,7.84157421875,0.6887609958648682,-0.48457100987434387,1.3120239973068237
1788108192649658000,7.851658203125,-0.5065900087356567,0.1301639974117279,0.15602800250053406
1788108192659742500,7.861742431640625,-0.43598198890686035,-0.34775200486183167,0.09300799667835236
1788108192669836500,7.87183642578125,-1.4492219686508179,-0.870868980884552,0.19987499713897705
1788108192679931400,7.881931396484375,-1.4196640253067017,-0.28590700030326843,0.3281799852848053
1788108192690025000,7.89202490234375,-1.562559962272644,0.3194639980792999,0.0456480011343956
1788108192700121600,7.90212158203125,-1.5197819471359253,0.6150820255279541,-0.3223150074481964
1788108192710221300,7.91222119140625,-1.2312270402908325,0.7195780277252197,-0.548816978931427
1788108192720312600,7.9223125,-1.1614869832992554,0.9062690138816833,-0.8951789736747742
1788108192730413600,7.93241357421875,-0.7136899828910828,0.1778070032596588,-0.653465986251831
1788108192740514600,7.9425146484375,-0.4356519877910614,-0.1613759994506836,-0.25405099987983704
1788108192750611500,7.952611572265625,-0.11610300093889236,-0.13765600323677063,0.28943100571632385
1788108192760700700,7.96270068359375,0.7426000237464905,-0.04133100062608719,0.7140859961509705
1788108192770785300,7.972785400390625,1.722648024559021,0.03716700151562691,1.0426169633865356
1788108192780877300,7.982877197265625,2.3281331062316895,-0.3424220085144043,1.3431689739227295
1788108192790968300,7.99296826171875,2.483851909637451,-0.827239990234375,1.4653329849243164
1788108192801054500,8.003054443359375,2.639508008956909,-0.9291830062866211,1.4082059860229492
1788108192811141400,8.013141357421874,2.2758469581604004,-0.5757259726524353,1.0819929838180542
1788108192821230300,8.023230224609375,1.459426999092102,-0.2591260075569153,0.8035789728164673
1788108192831312000,8.033311767578125,0.46560001373291016,-0.2988109886646271,0.4092710018157959
1788108192841404200,8.043404052734376,-0.6078090071678162,-0.7437909841537476,0.13340799510478973
1788108192851488000,8.053488037109375,-1.6209379434585571,-0.9005810022354126,-0.24856099486351013
1788108192861576000,8.063575927734375,-2.139159917831421,-0.4678080081939697,-0.6488670110702515
1788108192871665700,8.073665771484375,-2.076603889465332,0.3256889879703522,-0.8922569751739502
1788108192881756400,8.08375634765625,-1.3009179830551147,0.8239359855651855,-1.1038379669189453
1788108192891843000,8.093843017578125,-0.5712130069732666,0.7179880142211914,-1.3322910070419312
1788108192901934600,8.1039345703125,0.18609200417995453,0.4143350124359131,-1.0329790115356445
1788108192912011000,8.114010986328125,0.25367099046707153,-0.09186399728059769,-0.3617829978466034
1788108192922111500,8.124111572265624,-0.15067799389362335,-0.22886300086975098,0.04538600146770477
1788108192932193000,8.134193115234375,-0.7327830195426941,-0.1070059984922409,-0.0439240001142025
1788108192942284800,8.144284912109375,-1.2178549766540527,0.12056399881839752,-0.3803670108318329
1788108192952365000,8.154364990234376,-1.2957350015640259,0.24580499529838562,-0.49778199195861816
1788108192962465500,8.164465576171875,-0.17862899601459503,0.3908039927482605,-0.27373701333999634
1788108192972549600,8.174549560546875,0.8827610015869141,0.5656710267066956,0.1558469980955124
1788108192982645000,8.18464501953125,2.2551510334014893,0.7513189911842346,0.41586801409721375
1788108192992730600,8.194730712890625,2.896610975265503,0.049536000937223434,0.6037099957466125
1788108193002825700,8.20482568359375,2.76124906539917,-0.5598239898681641,0.7388650178909302
1788108193012915000,8.2149150390625,2.236675977706909,-0.7645739912986755,0.8456590175628662
1788108193023011600,8.225011474609374,1.7689820528030396,-0.5372009873390198,1.0263279676437378
1788108193033133300,8.23513330078125,1.1013389825820923,-0.16919399797916412,0.8740040063858032
1788108193043231500,8.2452314453125,0.1872210055589676,0.04256900027394295,0.43491700291633606
1788108193053320700,8.25532080078125,-0.8598859906196594,-0.11403000354766846,-0.025388000532984734
1788108193063409700,8.26540966796875,-1.9873969554901123,-0.41312700510025024,-0.3629480004310608
1788108193073504000,8.27550390625,-2.3039419651031494,-0.3558489978313446,-0.4422230124473572
1788108193083601200,8.28560107421875,-2.1708710193634033,-0.43625500798225403,-0.32726699113845825
1788108193093685200,8.295685302734375,-1.5492620468139648,-0.12686599791049957,-0.2542639970779419
1788108193103779000,8.305779052734374,-0.6048070192337036,-0.23586300015449524,-0.31536298990249634
1788108193113869000,8.315869140625,-0.05461699888110161,-0.288100004196167,-0.05187699943780899
1788108193123965000,8.32596484375,0.16790400445461273,-0.18810699880123138,-0.09188199788331985
1788108193134051600,8.336051513671874,-0.1182129979133606,-0.29749199748039246,-0.5130699872970581
1788108193144141600,8.3461416015625,-0.3194029927253723,-0.4925369918346405,-0.800957977771759
1788108193154231600,8.3562314453125,-0.6586160063743591,-0.757686972618103,-0.3475239872932434
1788108193164322300,8.366322265625,-0.7870919704437256,-0.33348000049591064,-0.18969300389289856
1788108193174419200,8.376419189453125,-0.3448539972305298,0.19274300336837769,-0.21175499260425568
1788108193184509000,8.386509033203126,0.23596400022506714,0.33889099955558777,-0.16553400456905365
1788108193194597600,8.39659765625,0.5257570147514343,-0.036107998341321945,-0.059803999960422516
1788108193204682200,8.40668212890625,0.7470160126686096,-0.30349698662757874,0.13885900378227234
1788108193214767900,8.416767822265625,0.9489560127258301,-0.14433099329471588,0.20806699991226196
1788108193224859400,8.426859375,1.1237339973449707,0.005022999830543995,0.30058199167251587
1788108193234980900,8.43698095703125,0.9026769995689392,-0.06988400220870972,0.21839499473571777
1788108193245072000,8.44707177734375,0.17170900106430054,-0.17329999804496765,0.03378500044345856
1788108193255159000,8.457158935546875,-0.3745709955692291,-0.08237600326538086,-0.2156829982995987
1788108193265257500,8.467257568359376,-0.5900229811668396,0.07529199868440628,-0.4177500009536743
1788108193275350800,8.477350830078125,-0.3915109932422638,0.18568700551986694,-0.395702987909317
1788108193285445000,8.487445068359374,0.04414600133895874,0.3037300109863281,-0.17194199562072754
1788108193295534000,8.4975341796875,0.41147398948669434,0.3204300105571747,0.06831499934196472
1788108193305633800,8.5076337890625,0.27153098583221436,0.16244199872016907,0.28940099477767944
1788108193315731500,8.5177314453125,0.13574199378490448,0.04862400144338608,0.32491400837898254
1788108193325827800,8.527827880859375,0.15475399792194366,0.13596999645233154,0.21224799752235413
1788108193335923500,8.53792333984375,0.10325899720191956,0.21971899271011353,0.09428799897432327
1788108193346012200,8.54801220703125,0.19943399727344513,0.2841149866580963,0.06425199657678604
1788108193356098300,8.558098388671874,-0.06133599951863289,0.1500139981508255,0.16247500479221344
1788108193366194400,8.5681943359375,-0.251926988363266,0.3824779987335205,0.12142600119113922
1788108193376299800,8.5782998046875,-0.2500689923763275,0.48212599754333496,0.2707290053367615
1788108193386400800,8.58840087890625,-0.015939999371767044,0.5380880236625671,0.31043699383735657
1788108193396500000,8.5985,-0.08180099725723267,0.3965739905834198,0.23629699647426605
1788108193406598100,8.60859814453125,-0.08677399903535843,0.630204975605011,0.09817200154066086
1788108193416706600,8.61870654296875,0.3053539991378784,0.6747589707374573,0.14994700253009796
1788108193426805500,8.628805419921875,-0.05396199971437454,0.7751790285110474,0.18139700591564178
1788108193436898300,8.638898193359376,-0.1004989966750145,0.6824619770050049,0.047363001853227615
1788108193446982000,8.64898193359375,0.18379400670528412,0.36292600631713867,0.06184900179505348
1788108193457070800,8.65907080078125,0.6668300032615662,0.322721004486084,0.27074098587036133
1788108193467162400,8.669162353515626,1.0835670232772827,0.41799598932266235,0.30305901169776917
1788108193477251600,8.67925146484375,1.5013810396194458,0.1486929953098297,0.2715820074081421
1788108193487346200,8.68934619140625,1.5169990062713623,0.03447600081562996,0.11290799826383591
1788108193497444900,8.69944482421875,1.318958044052124,0.1338450014591217,0.021208999678492546
1788108193507536400,8.709536376953125,0.7315070033073425,0.12284000217914581,-0.02078399993479252
1788108193517630000,8.7196298828125,-0.02096099965274334,0.08110100030899048,-0.3646320104598999
1788108193527715800,8.7297158203125,-0.34306401014328003,-0.1383409947156906,-0.6261590123176575
1788108193537805600,8.7398056640625,-0.5480960011482239,-0.07236000150442123,-0.5402299761772156
1788108193547924500,8.749924560546875,-0.09482599794864655,0.349141001701355,-0.35398998856544495
1788108193558011400,8.760011474609374,0.23752400279045105,0.4263409972190857,-0.056120000779628754
1788108193568107800,8.770107666015624,0.20721399784088135,0.14646199345588684,0.0643950030207634
1788108193578193400,8.780193359375,-0.09731200337409973,-0.17168499529361725,0.011586000211536884
1788108193588285000,8.790284912109374,-0.22411000728607178,-0.2812899947166443,0.19300900399684906
1788108193598376700,8.800376708984375,-0.1462710052728653,-0.3222379982471466,0.3066760003566742
1788108193608472000,8.81047216796875,-0.009232000447809696,0.023638999089598656,-0.006513000000268221
1788108193618565600,8.820565673828124,-0.29758399724960327,0.3998030126094818,-0.4953159987926483
1788108193628657200,8.8306572265625,-0.9103569984436035,0.8441399931907654,-0.699616014957428
1788108193638742500,8.840742431640624,-1.6345720291137695,0.8969830274581909,-0.7136229872703552
1788108193648842800,8.8508427734375,-1.7091569900512695,0.9019230008125305,-0.731124997138977
1788108193658936800,8.860936767578124,-0.9754850268363953,0.7462499737739563,-0.4526689946651459
1788108193669027600,8.871027587890625,0.41214799880981445,0.6741809844970703,0.08131399750709534
1788108193679117000,8.881116943359375,2.1976308822631836,0.6000800132751465,0.9031239748001099
1788108193689213200,8.891213134765625,3.266479015350342,0.3011679947376251,1.5526340007781982
1788108193699303000,8.901302978515625,3.277043104171753,-0.0805329978466034,1.5764379501342773
1788108193709403100,8.911403076171876,2.328597068786621,-0.4226900041103363,0.8661460280418396
1788108193719493600,8.92149365234375,1.289126992225647,-0.4437679946422577,-0.14195799827575684
1788108193729584600,8.931584716796875,0.4447759985923767,-0.35811200737953186,-0.5645530223846436
1788108193739670500,8.94167041015625,-0.061402998864650726,-0.20070700347423553,-0.725354015827179
1788108193749759700,8.951759765625,-0.30970999598503113,0.08652299642562866,-0.6795579791069031
1788108193759857200,8.961857177734375,-0.3308370113372803,0.13149799406528473,-0.45205700397491455
1788108193769954000,8.9719541015625,-0.15037499368190765,-0.12848499417304993,0.1896519958972931
1788108193790141200,8.99214111328125,-0.5889269709587097,-0.272597998380661,0.5213599801063538
1788108193800234500,9.002234375,-1.229354977607727,-0.2747870087623596,-0.03929400071501732
1788108193810331600,9.01233154296875,-1.8255259990692139,-0.40277600288391113,-0.628902018070221
1788108193820416800,9.022416748046876,-2.1763999462127686,-0.8307260274887085,-0.7917839884757996
1788108193830512400,9.032512451171876,-1.946671962738037,-0.8996099829673767,-0.45558398962020874
1788108193840610300,9.0426103515625,-1.1984100341796875,-0.3682680130004883,-0.1322679966688156
1788108193850713300,9.05271337890625,-0.4024510085582733,0.33506399393081665,-0.15685300529003143
1788108193860795600,9.062795654296876,0.0067980000749230385,0.5746970176696777,-0.4319390058517456
1788108193870887200,9.07288720703125,0.20202699303627014,-0.07672999799251556,-0.389970988035202
1788108193880978200,9.082978271484375,0.5241339802742004,-0.8831030130386353,0.17209899425506592
1788108193891067000,9.09306689453125,1.644484043121338,-0.8860759735107422,0.8401899933815002
1788108193901152000,9.103152099609375,3.1609649658203125,-0.3342230021953583,1.2369019985198975
1788108193911239400,9.113239501953124,3.8301498889923096,-0.19074000418186188,1.0579689741134644
1788108193921325600,9.12332568359375,3.2053821086883545,-0.6255630254745483,0.4827960133552551
1788108193931418400,9.13341845703125,1.711542010307312,-1.0503079891204834,0.017496999353170395
1788108193941511700,9.14351171875,0.5536990165710449,-1.1167609691619873,-0.07735999673604965
1788108193951601400,9.153601318359375,-0.037707000970840454,-0.8167999982833862,-0.004505000077188015
1788108193961694000,9.16369384765625,-0.26633399724960327,-0.2897700071334839,-0.22763699293136597
1788108193971792000,9.1737919921875,-0.6095349788665771,0.07878100126981735,-0.7510660290718079
1788108193981877000,9.183876953125,-1.0195800065994263,0.37477099895477295,-1.1994940042495728
1788108193991973400,9.193973388671875,-1.3827149868011475,0.5229489803314209,-1.4365439414978027
1788108194002055200,9.20405517578125,-1.529589056968689,0.6293849945068359,-0.877767026424408
1788108194012153000,9.214153076171876,-1.203940987586975,0.39042800664901733,-0.4559819996356964
1788108194022232800,9.22423291015625,-0.7844570279121399,0.4296190142631531,-0.05115199834108353
1788108194032327200,9.2343271484375,-0.2714489996433258,0.6500279903411865,-0.0026320000179111958
1788108194042418400,9.24441845703125,0.36535200476646423,0.1509079933166504,0.042183998972177505
1788108194052513300,9.25451318359375,0.344325989484787,-0.5895339846611023,0.24044600129127502
1788108194062599000,9.264598876953125,0.599727988243103,-0.5960590243339539,0.3906159996986389
1788108194072703200,9.274703125,1.1397199630737305,-0.25409701466560364,0.29534199833869934
1788108194082783200,9.284783203125,1.7636040449142456,0.9915869832038879,-0.08169300109148026
1788108194092875300,9.294875244140625,2.1511969566345215,0.004393999930471182,0.11804699897766113
1788108194102969300,9.30496923828125,1.187993049621582,-0.29571598768234253,0.07989899814128876
1788108194113066000,9.31506591796875,0.8210369944572449,-0.31048300862312317,0.33486801385879517
1788108194123158000,9.325157958984375,0.228535994887352,0.31432101130485535,0.5103669762611389
1788108194133249800,9.335249755859374,0.9364200234413147,0.9828270077705383,1.7247509956359863
1788108194143340800,9.3453408203125,0.5445979833602905,1.799023985862732,-0.11115899682044983
1788108194153439700,9.355439697265625,1.2366299629211426,0.993257999420166,0.09400200098752975
1788108194163530500,9.365530517578126,0.6177219748497009,-0.4709109961986542,0.27902498841285706
1788108194173648400,9.3756484375,0.5631899833679199,-1.1418390274047852,0.3321869969367981
1788108194183740400,9.385740478515626,1.69868803024292,-0.7689449787139893,0.1452450007200241
1788108194193836000,9.3958359375,3.2096691131591797,1.7432509660720825,-1.2455029487609863
1788108194203922200,9.405922119140625,1.38816499710083,0.2681240141391754,-1.048964023590088
1788108194214017300,9.416017333984374,-0.24598699808120728,-0.23942500352859497,-0.6139709949493408
1788108194224102700,9.4261025390625,-1.1761449575424194,-1.8310320377349854,1.2246700525283813
1788108194234199300,9.43619921875,-2.3761489391326904,-2.7174410820007324,1.7121479511260986
1788108194244290800,9.446290771484374,-3.470447063446045,-2.0431249141693115,1.2469220161437988
1788108194254381300,9.45638134765625,-3.977792978286743,0.26754599809646606,0.1734209954738617
1788108194264478700,9.466478759765625,-2.401819944381714,1.3560609817504883,-1.0864559412002563
1788108194274571000,9.476571044921876,-0.16642799973487854,0.8693869709968567,-2.030263900756836
1788108194284668000,9.48666796875,1.3057509660720825,0.011164999566972256,-1.529304027557373
1788108194294767600,9.496767578125,2.1132891178131104,-0.7946180105209351,-0.07270000129938126
1788108194304851700,9.506851806640626,1.9638170003890991,-1.9752089977264404,1.2013310194015503
1788108194314946800,9.51694677734375,0.4540660083293915,-1.0812040567398071,1.3102079629898071
1788108194325038000,9.5270380859375,0.34262600541114807,-0.9823750257492065,0.70489901304245
1788108194335126300,9.537126220703126,-0.4570559859275818,-1.0022530555725098,0.30160900950431824
1788108194345216500,9.547216552734374,-0.9570590257644653,-0.30377599596977234,0.12641499936580658
1788108194355310000,9.55731005859375,-1.1771960258483887,0.3839400112628937,-0.28273001313209534
1788108194365396700,9.567396728515625,-0.8280079960823059,0.8452290296554565,-0.8290669918060303
1788108194375482600,9.577482666015625,0.5630059838294983,0.8618220090866089,-0.7643340229988098
1788108194385582600,9.58758251953125,0.0017209999496117234,0.03933100029826164,-0.22717300057411194
1788108194395677700,9.597677734375,0.365788996219635,0.6600769758224487,-0.46970099210739136
1788108194405768000,9.607767822265625,-0.5472959876060486,0.39754799008369446,-0.3019289970397949
1788108194415854600,9.6178544921875,-0.14167599380016327,0.6858119964599609,-0.8732939958572388
1788108194425943800,9.62794384765625,-1.1391370296478271,1.1295830011367798,-0.7253620028495789
1788108194436031200,9.63803125,0.3881720006465912,1.886383056640625,-1.041957974433899
1788108194446122800,9.648122802734376,0.9379990100860596,1.4227770566940308,-1.138038992881775
1788108194456203300,9.658203369140624,1.2066019773483276,1.8192579746246338,-1.449705958366394
1788108194466294500,9.66829443359375,1.478674054145813,1.6511640548706055,-1.6067689657211304
1788108194476377300,9.67837744140625,1.8003720045089722,1.186985969543457,-0.9696260094642639
1788108194486463500,9.68846337890625,1.776487946510315,0.7488510012626648,-0.3850319981575012
1788108194496552700,9.698552734375,1.4239799976348877,0.18782000243663788,0.04732299968600273
1788108194506652200,9.708652099609376,1.1001540422439575,-0.6805210113525391,0.6021919846534729
1788108194516733000,9.71873291015625,0.4843769967556,-1.4540590047836304,1.0020469427108765
1788108194526829600,9.72882958984375,0.17297899723052979,-2.0460898876190186,0.7983329892158508
1788108194536927500,9.738927490234374,-0.6877599954605103,-2.0650949478149414,0.5386390089988708
1788108194547024400,9.7490244140625,-0.7601829767227173,-1.4597729444503784,0.03042300045490265
1788108194557111800,9.75911181640625,-1.0707770586013794,-1.1475260257720947,-0.49384498596191406
1788108194567208400,9.76920849609375,-2.4995620250701904,-1.144703984260559,-1.5585720539093018
1788108194577301200,9.77930126953125,-3.5430850982666016,-0.10082100331783295,-3.781224012374878
1788108194587390700,9.789390625,-2.1320269107818604,-1.0543650388717651,-2.4456920623779297
1788108194597490000,9.799489990234376,-0.4451789855957031,-2.9830288887023926,0.5409929752349854
1788108194607579600,9.80957958984375,0.297995001077652,-3.502639055252075,1.3857779502868652
1788108194617677600,9.819677490234374,0.6626589894294739,-3.296938896179199,1.9352940320968628
1788108194627775000,9.82977490234375,-1.1125990152359009,-3.215411901473999,1.2871099710464478
1788108194637873700,9.839873779296875,-2.397886037826538,-2.023092031478882,-2.0822770595550537
1788108194647960300,9.849960205078125,-2.823421001434326,-2.078756093978882,-2.6098899841308594
1788108194658058800,9.860058837890625,-2.3996119499206543,-3.2349491119384766,-0.9729059934616089
1788108194668145700,9.870145751953125,-1.7891889810562134,-2.7999589443206787,-0.17431099712848663
1788108194678240300,9.880240234375,-0.9249780178070068,-1.1707780361175537,-0.471560001373291
1788108194688336100,9.890336181640626,-1.5615229606628418,-0.1336819976568222,-0.8169460296630859
1788108194698433000,9.90043310546875,-2.3185300827026367,0.12550899386405945,-0.0959559977054596
1788108194708527600,9.910527587890625,-2.636396884918213,-1.2752200365066528,1.111752986907959
1788108194718618600,9.92061865234375,-2.6606509685516357,-2.2802538871765137,1.4539220333099365
1788108194728715500,9.930715576171876,-2.1469480991363525,-0.7085099816322327,-0.4626080095767975
1788108194738814500,9.940814453125,-0.5034480094909668,0.0679360032081604,-0.8257709741592407
1788108194758992000,9.960991943359375,0.778203010559082,-0.31285399198532104,0.6275529861450195
1788108194769073200,9.9710732421875,1.6627860069274902,0.1563750058412552,0.9232059717178345
1788108194779170000,9.981170166015625,1.732772946357727,0.8814769983291626,0.6141350269317627
1788108194789262000,9.991261962890626,1.6381980180740356,0.9586949944496155,0.9025779962539673
1788108194799361000,10.001361083984374,1.2489819526672363,0.6346480250358582,1.1546330451965332
1788108194809454300,10.011454345703125,1.4998409748077393,0.9430860280990601,0.5063959956169128
1788108194819533800,10.021533935546875,2.1607260704040527,1.1399480104446411,0.20541900396347046
1788108194829622500,10.03162255859375,3.0460469722747803,1.3025530576705933,0.2859109938144684
1788108194839722800,10.04172265625,1.8398690223693848,1.3731900453567505,-0.14885200560092926
1788108194849813200,10.051813232421875,2.224055051803589,0.9149180054664612,0.7417979836463928
1788108194859911200,10.0619111328125,3.143778085708618,1.487887978553772,0.5024269819259644
1788108194870005200,10.072005126953124,2.7556679248809814,1.9319210052490234,0.25644099712371826
1788108194880101600,10.0821015625,1.6434580087661743,1.4431719779968262,0.17761200666427612
1788108194890196500,10.092196533203126,1.1964479684829712,1.123718023300171,-0.14609700441360474
1788108194900293000,10.102293212890626,1.0985009670257568,0.881833016872406,0.008950999937951565
1788108194910389500,10.112389404296875,0.3915799856185913,1.4535729885101318,-0.63189697265625
1788108194920486000,10.12248583984375,-0.28769800066947937,2.142551898956299,-0.4906339943408966
1788108194930574600,10.13257470703125,-0.8313080072402954,1.4928070306777954,-0.10725600272417068
1788108194940665000,10.1426650390625,-0.38627299666404724,0.3873249888420105,0.009956000372767448
1788108194950742800,10.15274267578125,1.3828920125961304,0.29983898997306824,0.20840999484062195
1788108194960832500,10.16283251953125,2.684767961502075,-0.18127599358558655,-0.298007994890213
1788108194970925300,10.17292529296875,2.8128929138183594,-0.15829899907112122,-0.4383839964866638
1788108194981011200,10.18301123046875,1.4867160320281982,-0.028669999912381172,-0.5895900130271912
1788108194991099600,10.193099609375,-0.6763259768486023,0.5234419703483582,-0.5971459746360779
1788108195001192700,10.203192626953125,-1.9953550100326538,0.9156590104103088,-0.5191749930381775
1788108195011279000,10.213279052734375,-2.2509639263153076,0.32581600546836853,0.025196999311447144
1788108195021371000,10.223370849609376,-1.0360560417175293,-0.7475919723510742,0.4573409855365753
1788108195031461600,10.233461669921875,1.674962043762207,-0.9836789965629578,0.1743600070476532
1788108195041546000,10.2435458984375,3.7647340297698975,-0.9148210287094116,0.2473679929971695
1788108195051633200,10.253633056640625,3.9549400806427,-0.6476920247077942,0.5624639987945557
1788108195061723000,10.263722900390626,2.450576066970825,-0.723052978515625,0.7244309782981873
1788108195071802600,10.273802734375,0.21581700444221497,-0.7599459886550903,0.7862510085105896
1788108195081899500,10.2838994140625,-1.34968101978302,-0.9439989924430847,1.2282110452651978
1788108195091984100,10.293984130859375,-1.3261220455169678,-1.2089780569076538,0.5086349844932556
1788108195102079200,10.304079345703125,-1.633815050125122,-1.0158569812774658,-0.40308600664138794
1788108195112157200,10.3141572265625,-0.5920469760894775,-0.7052279710769653,-0.6501420140266418
1788108195122247200,10.3242470703125,-0.566694974899292,-0.9480730295181274,-0.988523006439209
1788108195132337200,10.334337158203125,-0.8255990147590637,-0.3490549921989441,-1.1839879751205444
1788108195142429200,10.34442919921875,-1.6443660259246826,0.39642301201820374,-1.5377490520477295
1788108195152517000,10.35451708984375,-2.4420459270477295,0.17274899780750275,-0.8454189896583557
1788108195162615300,10.364615234375,-1.9985020160675049,-0.660319983959198,0.05395900085568428
1788108195172704000,10.3747041015625,-0.14964300394058228,-0.8307899832725525,0.5217580199241638
1788108195182792400,10.38479248046875,1.6481750011444092,-0.990460991859436,0.4468579888343811
1788108195192885200,10.39488525390625,1.9324920177459717,-0.9145770072937012,0.0191079992800951
1788108195202989000,10.404989013671875,1.2678430080413818,-0.7544119954109192,-0.2893350124359131
1788108195213071600,10.415071533203125,0.28298598527908325,-0.6819159984588623,0.07995700091123581
1788108195223167500,10.42516748046875,0.04833599925041199,-0.8074929714202881,0.47910499572753906
1788108195233257000,10.435257080078125,-0.9567869901657104,0.03687499836087227,0.7275519967079163
1788108195243348700,10.4453486328125,-0.36319398880004883,-0.45337700843811035,0.457863986492157
1788108195253444000,10.455444091796876,0.18498900532722473,-0.5053669810295105,0.08934900164604187
1788108195263543300,10.465543212890625,0.8210629820823669,-0.451651006937027,-0.4254299998283386
1788108195273637400,10.475637451171876,0.7757589817047119,-0.5354400277137756,-0.5003340244293213
1788108195283734300,10.485734375,0.5999240279197693,-0.5815050005912781,-0.2637529969215393
1788108195293831400,10.49583154296875,0.24752600491046906,-0.5304909944534302,-0.10814400017261505
1788108195303928600,10.505928466796876,0.014959000051021576,-0.6674879789352417,-0.46766799688339233
1788108195314018800,10.516018798828124,-0.4640040099620819,-0.503462016582489,-1.0185149908065796
1788108195324112100,10.526112060546875,-1.5129790306091309,0.1429399996995926,-1.1523319482803345
1788108195334200300,10.536200439453125,-1.9113010168075562,0.26058799028396606,-0.7669770121574402
1788108195344283600,10.54628369140625,-1.8274439573287964,-0.024819999933242798,-0.21929599344730377
1788108195354364000,10.556364013671875,-2.2885749340057373,0.49631500244140625,-0.4526990056037903
1788108195364456700,10.566456787109376,-1.9022459983825684,0.31746798753738403,-0.5579599738121033
1788108195374546000,10.5765458984375,-1.1718850135803223,-0.14761899411678314,-0.7783169746398926
1788108195384637000,10.586636962890625,-0.11458899825811386,-0.013787000440061092,-1.4808809757232666
1788108195394730500,10.59673046875,1.0329569578170776,-0.13037000596523285,-1.4452680349349976
1788108195404821200,10.6068212890625,1.9569400548934937,-0.13218200206756592,-0.7689939737319946
1788108195414907100,10.6169072265625,2.576946973800659,-0.050537001341581345,-0.2362300008535385
1788108195424997000,10.6269970703125,2.6477060317993164,0.38999199867248535,0.054283998906612396
1788108195435094500,10.637094482421874,2.0502030849456787,0.3832390010356903,0.1688069999217987
1788108195445183700,10.647183837890625,1.7744909524917603,0.5895469784736633,0.007292000111192465
1788108195455268900,10.657268798828126,2.0170159339904785,0.3229309916496277,-0.017872000113129616
1788108195465357300,10.667357421875,2.493812084197998,0.4339120090007782,-0.3276599943637848
1788108195475448600,10.677448486328124,2.7021689414978027,0.6530190110206604,-0.6152570247650146
1788108195485539300,10.687539306640625,1.6832389831542969,0.7523689866065979,-0.497965008020401
1788108195495627300,10.697627197265625,0.7125470042228699,0.7964159846305847,-0.38548600673675537
1788108195505707800,10.707707763671875,0.38227298855781555,0.7844640016555786,-0.21677899360656738
1788108195515795000,10.717794921875,0.633538007736206,0.9473289847373962,-0.11922699958086014
1788108195525881000,10.727881103515625,0.2817310094833374,0.8966529965400696,-0.026422999799251556
1788108195535974000,10.737973876953125,-0.3292030096054077,0.9200739860534668,-0.23611299693584442
1788108195546065400,10.7480654296875,-0.8361459970474243,1.0080469846725464,-0.3946079909801483
1788108195556150300,10.758150390625,-1.2546299695968628,1.0217570066452026,-0.569940984249115
1788108195566250200,10.768250244140624,-1.401097059249878,1.021873950958252,-0.5807399749755859
1788108195576345300,10.778345458984376,-0.9753550291061401,0.7527740001678467,-0.2619200050830841
1788108195586431700,10.788431640625,-0.022290999069809914,0.40714800357818604,0.015713000670075417
1788108195596521500,10.798521484375,1.3929070234298706,0.2353219985961914,0.06821899861097336
1788108195606610000,10.80860986328125,2.2286078929901123,-0.27010300755500793,0.1541520059108734
1788108195616699000,10.818698974609376,2.727349042892456,-0.613743007183075,0.15406499803066254
1788108195626795800,10.828795654296876,2.8401260375976562,-0.9884809851646423,0.2488359957933426
1788108195636892700,10.838892578125,2.484745979309082,-1.302677035331726,0.37810298800468445
1788108195646988000,10.848988037109375,1.5393539667129517,-1.6476190090179443,0.02327200025320053
1788108195657075700,10.85907568359375,0.387937992811203,-1.3916499614715576,-0.426256000995636
1788108195667169800,10.869169677734375,-1.3684420585632324,-1.806149959564209,-0.29986199736595154
1788108195677258000,10.879258056640625,-1.6342790126800537,-1.9800100326538086,-0.2847670018672943
1788108195687349500,10.889349609375,-1.2151399850845337,-1.914965033531189,-0.6794009804725647
1788108195697443300,10.899443359375,-1.0991970300674438,-2.0067710876464844,-0.9396010041236877
1788108195707539500,10.90953955078125,-1.8181159496307373,-1.9427570104599,-1.459995985031128
1788108195717628200,10.919628173828125,-2.6030778884887695,-1.2788399457931519,-1.8664389848709106
1788108195727709700,10.929709716796875,-3.137669086456299,-1.380702018737793,-1.5115959644317627
1788108195737805000,10.93980517578125,-2.4173789024353027,-1.4472219944000244,-1.0520930290222168
1788108195747905500,10.949905517578125,-1.0560779571533203,-1.3150500059127808,-0.6759520173072815
1788108195757993700,10.95999365234375,0.46759098768234253,-1.2315360307693481,-0.45153799653053284
1788108195768115000,10.970114990234375,1.036702036857605,-1.0112489461898804,-0.4788999855518341
1788108195778199800,10.98019970703125,0.6983850002288818,-0.9510409832000732,-0.5183219909667969
1788108195788294000,10.9902939453125,0.3637950122356415,-0.5660480260848999,-0.8834540247917175
1788108195798384000,11.000384033203124,-0.0071000000461936,-0.37746700644493103,-0.8816570043563843
1788108195808482600,11.010482666015625,0.26598599553108215,-0.0719359964132309,-0.39995500445365906
1788108195818571500,11.020571533203125,0.9894149899482727,0.10523200035095215,0.5631300210952759
1788108195828676000,11.030676025390624,1.9461719989776611,0.11058799922466278,1.3118610382080078
1788108195838765300,11.040765380859375,2.9036169052124023,0.07833000272512436,1.4980969429016113
1788108195848865500,11.050865478515625,3.2275099754333496,-0.0344030000269413,1.251281976699829
1788108195858955500,11.06095556640625,3.0080020427703857,-0.01923000067472458,0.4061799943447113
1788108195869053200,11.07105322265625,2.749380111694336,0.178739994764328,-0.6477329730987549
1788108195879139800,11.081139892578125,2.160378932952881,0.191429004073143,-1.03718900680542
1788108195889235200,11.091235107421875,1.8493870496749878,0.3693790137767792,-1.0459179878234863
1788108195899328300,11.101328369140624,1.5330049991607666,0.4813689887523651,-0.8967040181159973
1788108195909424600,11.111424560546874,1.2269320487976074,0.5392280220985413,-0.2907710075378418
1788108195919517400,11.121517333984375,0.32303398847579956,0.48657500743865967,0.053964000195264816
1788108195929613300,11.13161328125,-0.6946200132369995,0.6801909804344177,-0.025536000728607178
1788108195939703800,11.141703857421875,-1.5272300243377686,0.5917630195617676,-0.047704000025987625
1788108195949796900,11.151796875,-1.6947059631347656,0.48704400658607483,-0.2319290041923523
1788108195959886800,11.161886962890625,-0.9026970267295837,0.4377169907093048,-0.1311960071325302
1788108195969988400,11.17198828125,0.04318699985742569,0.2709670066833496,-0.004743000026792288
1788108195980094200,11.18209423828125,0.26375100016593933,0.43636900186538696,-0.39167100191116333
1788108195990187000,11.19218701171875,0.17582300305366516,0.45927101373672485,-0.7485679984092712
1788108196000280300,11.2022802734375,-0.5636839866638184,-0.00660899979993701,-0.5833449959754944
1788108196010369000,11.212369140625,-0.47776201367378235,-0.372979998588562,-0.4314059913158417
1788108196020459800,11.222459716796875,0.5862659811973572,-0.568651020526886,-0.38381001353263855
1788108196030557000,11.232556884765625,1.9511120319366455,-0.7727630138397217,-0.21714900434017181
1788108196040638700,11.242638671875,2.080172061920166,-0.9585210084915161,-0.3101060092449188
1788108196050783200,11.252783203125,1.4988640546798706,-0.9963799715042114,-0.49976399540901184
1788108196060875500,11.26287548828125,0.8214449882507324,-1.334439992904663,-0.32162100076675415
1788108196070977500,11.2729775390625,0.6277740001678467,-1.5383739471435547,-0.23357899487018585
1788108196081061400,11.283061279296875,0.3066670000553131,-1.664212942123413,-0.3159550130367279
1788108196091156200,11.29315625,-0.3853830099105835,-1.6335749626159668,-0.4981899857521057
1788108196101241900,11.303241943359374,-1.2247719764709473,-1.8436410427093506,-0.6828950047492981
1788108196111328800,11.313328857421874,-1.2866899967193604,-1.807541012763977,-1.0148520469665527
1788108196121414100,11.3234140625,-1.2009929418563843,-1.87247896194458,-1.0520570278167725
1788108196141591800,11.343591796875,-1.48928701877594,-1.762869954109192,-0.8629720211029053
1788108196151676700,11.3536767578125,-1.3245470523834229,-1.4964139461517334,-0.9852309823036194
1788108196161757200,11.363757080078125,-1.1727149486541748,-1.314296007156372,-0.9279599785804749
1788108196171855000,11.373855224609375,-1.2376110553741455,-1.1094670295715332,-0.9033010005950928
1788108196181933300,11.383933349609375,-0.9720219969749451,-0.8900110125541687,-0.7563779950141907
1788108196192028000,11.39402783203125,-0.6605110168457031,-0.6799139976501465,-0.5920469760894775
1788108196202114800,11.40411474609375,-0.0743430033326149,-0.59579998254776,-0.3981989920139313
1788108196212214500,11.414214599609375,0.7606620192527771,-0.6755650043487549,-0.1328440010547638
1788108196222313000,11.42431298828125,1.6607550382614136,-0.7004129886627197,-0.06310699880123138
1788108196232411400,11.434411376953125,2.390542984008789,-0.8060879707336426,-0.14124499261379242
1788108196242493000,11.444492919921874,2.8617279529571533,-0.45887601375579834,-0.7109739780426025
1788108196252589600,11.454589599609376,2.162498950958252,-0.20464499294757843,-1.0634080171585083
1788108196262681300,11.464681396484375,1.182752013206482,-0.07424499839544296,-0.8921279907226562
1788108196272774700,11.474774658203126,0.7983360290527344,0.05287100002169609,-0.6319209933280945
1788108196282854100,11.484854248046876,1.0848050117492676,0.1632619947195053,-0.2796329855918884
1788108196292953000,11.494953125,1.796265959739685,0.12155500054359436,0.03569899871945381
1788108196303035400,11.505035400390625,2.0568649768829346,0.24157099425792694,-0.08195099979639053
1788108196313129700,11.515129638671874,1.2741260528564453,0.49147799611091614,-0.2093989998102188
1788108196323213800,11.5252138671875,0.22958199679851532,0.719215989112854,-0.19925999641418457
1788108196333311200,11.535311279296875,-0.6785609722137451,0.9761850237846375,-0.2103399932384491
1788108196343402200,11.54540234375,-1.247743010520935,1.3536770343780518,-0.3391300141811371
1788108196353500000,11.5555,-1.1599570512771606,1.4490530490875244,-0.05574899911880493
1788108196363590400,11.56559033203125,-0.427933007478714,1.2587339878082275,0.27264800667762756
1788108196373686800,11.575686767578125,1.3852930068969727,1.025894045829773,0.30706799030303955
1788108196383766300,11.585766357421875,2.6646571159362793,0.7678149938583374,0.19469399750232697
1788108196393863200,11.59586328125,3.149648904800415,0.6725339889526367,0.11152400076389313
1788108196403966000,11.605966064453124,2.4125430583953857,0.38388898968696594,0.11324899643659592
1788108196414071300,11.6160712890625,1.6340060234069824,0.11890599876642227,0.09223800152540207
1788108196424156400,11.626156494140625,0.9753440022468567,0.05728999897837639,-0.11829700320959091
1788108196434245600,11.63624560546875,0.07479599863290787,-0.05586700141429901,-0.39106300473213196
1788108196444330000,11.646330078125,-0.7974330186843872,-0.07884400337934494,-0.8490920066833496
1788108196454424300,11.65642431640625,-1.249330997467041,-0.10565599799156189,-1.0785280466079712
1788108196464503800,11.66650390625,-0.6912109851837158,-0.4123600125312805,-0.7656360268592834
1788108196474600700,11.6766005859375,0.31574198603630066,-0.8070799708366394,-0.25110799074172974
1788108196484702200,11.6867021484375,1.1536920070648193,-1.2419270277023315,-0.11591699719429016
1788108196494779000,11.69677880859375,1.4474879503250122,-1.3323129415512085,-0.32535499334335327
1788108196504868600,11.70686865234375,0.5030949711799622,-1.5034849643707275,-0.5040609836578369
1788108196514962700,11.716962646484374,-0.7571539878845215,-1.5740699768066406,-0.7093470096588135
1788108196525061400,11.727061279296874,-1.6265350580215454,-1.5417439937591553,-0.8347709774971008
1788108196535147000,11.73714697265625,-2.310589075088501,-1.5120699405670166,-0.8050910234451294
1788108196545239300,11.7472392578125,-2.4023239612579346,-1.5844520330429077,-0.7474380135536194
1788108196555327500,11.757327392578125,-2.416477918624878,-1.6094659566879272,-0.9355980157852173
1788108196565422600,11.767422607421874,-2.185826063156128,-1.53547203540802,-1.3348139524459839
1788108196575511300,11.77751123046875,-1.5079309940338135,-1.617192029953003,-1.5281050205230713
1788108196585613600,11.787613525390626,-0.6067889928817749,-1.5041719675064087,-1.6408560276031494
1788108196595693000,11.797693115234376,0.4990899860858917,-1.484076976776123,-1.4243619441986084
1788108196605783800,11.80778369140625,1.793977975845337,-1.4423309564590454,-1.1159089803695679
1788108196615878400,11.81787841796875,2.29168701171875,-1.3718019723892212,-0.997763991355896
1788108196625970400,11.827970458984375,2.181581974029541,-1.228302001953125,-0.7550950050354004
1788108196636061200,11.838061279296875,1.3236730098724365,-1.0028810501098633,-0.6888149976730347
1788108196646156500,11.848156494140625,0.9571719765663147,-0.7216010093688965,-0.6714029908180237
1788108196656244200,11.858244140625,1.1178230047225952,-0.7398719787597656,-0.4051629900932312
1788108196666336500,11.86833642578125,1.6550559997558594,-0.7489789724349976,-0.31428399682044983
1788108196676423700,11.878423583984375,1.8827040195465088,-0.6905549764633179,-0.41422298550605774
1788108196696612600,11.898612548828124,1.1671249866485596,-0.3467729985713959,-0.8578280210494995
1788108196706695400,11.9086953125,0.20286700129508972,-0.0377190001308918,-1.1177979707717896
1788108196716795400,11.91879541015625,-0.31210198998451233,0.1876560002565384,-1.071823000907898
1788108196726891000,11.92889111328125,-0.11707500368356705,0.3189089894294739,-0.964743971824646
1788108196736978000,11.93897802734375,0.28433701395988464,0.5680779814720154,-0.9287869930267334
1788108196747074300,11.94907421875,0.6255769729614258,0.7230389714241028,-0.9368860125541687
1788108196757165600,11.95916552734375,0.6241220235824585,0.9582750201225281,-1.1085330247879028
1788108196767254000,11.96925390625,0.12126900255680084,1.1882870197296143,-1.172484040260315
1788108196777345500,11.979345458984374,-0.02987699955701828,1.2231769561767578,-1.1088550090789795
1788108196787433500,11.98943359375,-0.055240001529455185,1.2816450595855713,-1.2317149639129639
1788108196797522700,11.999522705078125,0.44415000081062317,1.4559320211410522,-1.4720089435577393
1788108196807612200,12.009612060546875,1.0025949478149414,1.4935580492019653,-1.4530739784240723
1788108196817705000,12.019705078125,1.5620909929275513,1.5308469533920288,-1.3971810340881348
1788108196827800000,12.029800048828125,2.429819107055664,1.6706210374832153,-1.3909380435943604
1788108196837895400,12.0398955078125,2.919830083847046,1.7957719564437866,-1.3212889432907104
1788108196847976700,12.049976806640625,3.204490900039673,1.8548599481582642,-1.11149001121521
1788108196858069200,12.0600693359375,3.1677610874176025,1.8388489484786987,-0.8166679739952087
1788108196868163000,12.0701630859375,3.3086349964141846,1.617738962173462,-0.42186298966407776
1788108196878254600,12.080254638671875,3.7539920806884766,1.4400080442428589,-0.19901899993419647
1788108196888347400,12.090347412109375,3.4876859188079834,1.161525011062622,-0.17645800113677979
1788108196898451000,12.100450927734375,2.9063758850097656,1.0447720289230347,-0.3333840072154999
1788108196908542000,12.1105419921875,1.975296974182129,0.9304630160331726,-0.4726540148258209
1788108196918635500,12.120635498046875,1.1578600406646729,0.5752930045127869,-0.34140899777412415
1788108196928718800,12.13071875,0.8255770206451416,0.1788789927959442,-0.05198200047016144
1788108196938823200,12.1408232421875,1.0293200016021729,-0.2926819920539856,0.2935050129890442
1788108196948926700,12.1509267578125,1.0072649717330933,-0.41286399960517883,0.1446859985589981
1788108196959023900,12.16102392578125,0.13732099533081055,-0.4645879864692688,-0.2432509958744049
1788108196969117200,12.1711171875,-0.9829040169715881,-0.4103739857673645,-0.7026399970054626
1788108196979214300,12.18121435546875,-2.0307860374450684,-0.36671799421310425,-0.8866090178489685
1788108196989305000,12.19130517578125,-2.1061580181121826,-0.58330899477005,-0.4907509982585907
1788108196999394600,12.20139453125,-0.9002659916877747,-0.7655019760131836,0.03295300155878067
1788108197009481500,12.2114814453125,0.5050809979438782,-0.9830189943313599,0.2892810106277466
1788108197029667800,12.231667724609375,0.8684149980545044,-1.3233230113983154,0.0026320000179111958
1788108197039755800,12.241755859375,0.041078999638557434,-1.1797289848327637,-0.47641101479530334
1788108197049852000,12.251851806640625,-0.8433459997177124,-1.2180500030517578,-0.5646770000457764
1788108197059950000,12.2619501953125,-1.1396980285644531,-1.2056260108947754,-0.6181449890136719
1788108197070045700,12.272045654296875,-0.6583340167999268,-1.4332259893417358,-0.3624210059642792
1788108197080144100,12.28214404296875,0.18416300415992737,-1.5708030462265015,-0.1071069985628128
1788108197090231300,12.292231201171875,0.9389879703521729,-1.6685559749603271,-0.1647379994392395
1788108197100327200,12.3023271484375,1.0677789449691772,-1.6902960538864136,-0.4502590000629425
1788108197110420500,12.31242041015625,0.47074899077415466,-1.584797978401184,-0.713575005531311
1788108197130609700,12.332609619140625,0.20013900101184845,-1.5968600511550903,-0.3941200077533722
1788108197140701200,12.342701171875,0.6525850296020508,-1.4700950384140015,-0.33785301446914673
1788108197150790400,12.352790283203126,0.38850098848342896,-1.3390790224075317,-0.39974498748779297
1788108197160878600,12.362878662109376,-0.28832900524139404,-1.0579099655151367,-0.6373770236968994
1788108197170968800,12.37296875,-0.5865730047225952,-0.7969549894332886,-0.7567139863967896
1788108197181054000,12.383053955078125,-0.5757359862327576,-0.6488350033760071,-0.6060259938240051
1788108197191135200,12.39313525390625,-0.171766996383667,-0.5395280122756958,-0.45064300298690796
1788108197201227300,12.403227294921875,0.6324970126152039,-0.41555801033973694,-0.5326269865036011
1788108197211343400,12.41334326171875,1.3100409507751465,-0.3346570134162903,-0.6467859745025635
1788108197221426400,12.423426513671876,1.350479006767273,-0.1723649948835373,-0.8256160020828247
1788108197231514600,12.4335146484375,1.2634600400924683,-0.3181779980659485,-0.7887430191040039
1788108197241603300,12.443603271484376,1.3074419498443604,-0.31067198514938354,-0.6790090203285217
1788108197251697000,12.45369677734375,1.4477119445800781,-0.33073800802230835,-0.49937400221824646
1788108197261777700,12.463777587890625,1.3217179775238037,-0.242917999625206,-0.51910799741745
1788108197271863300,12.47386328125,0.8452190160751343,-0.14354200661182404,-0.6913790106773376
1788108197281951500,12.483951416015625,0.2777639925479889,0.005872000008821487,-0.9277679920196533
1788108197292041200,12.494041259765625,-0.11134800314903259,0.1045679971575737,-1.0122870206832886
1788108197302131000,12.504130859375,-0.34676700830459595,0.23867499828338623,-1.0493359565734863
1788108197312224500,12.514224609375,-0.31970301270484924,0.33370301127433777,-1.1069109439849854
1788108197322311700,12.524311767578125,-0.3676759898662567,0.38713300228118896,-0.9814419746398926
1788108197332406300,12.53440625,-0.14739200472831726,0.5613110065460205,-0.8836359977722168
1788108197342495200,12.5444951171875,-0.028077999129891396,0.812188982963562,-0.8649330139160156
1788108197352592400,12.55459228515625,-0.08713100105524063,0.8604210019111633,-0.8501710295677185
1788108197362673200,12.564673095703125,-0.016659999266266823,0.8487020134925842,-0.8650519847869873
1788108197372775200,12.574775146484376,0.5986419916152954,0.6641889810562134,-0.5984969735145569
1788108197382871800,12.584871826171875,1.3783689737319946,0.617779016494751,-0.3368400037288666
1788108197392972500,12.59497265625,1.9321069717407227,0.5695719718933105,-0.19385500252246857
1788108197403056400,12.605056396484375,1.91498601436615,0.6225029826164246,-0.3159489929676056
1788108197413152800,12.61515283203125,1.381072998046875,0.6394630074501038,-0.6224579811096191
1788108197423246300,12.625246337890625,0.950281023979187,0.7101759910583496,-0.8142989873886108
1788108197433332200,12.635332275390626,0.8929960131645203,0.5344849824905396,-0.6650689840316772
1788108197443424800,12.6454248046875,1.049064040184021,0.3586060106754303,-0.596651017665863
1788108197453520000,12.655519775390625,1.244663953781128,0.36026400327682495,-0.743835985660553
1788108197463609900,12.66560986328125,0.8876609802246094,0.35330501198768616,-0.8856679797172546
1788108197473706500,12.67570654296875,0.19275499880313873,0.43406200408935547,-0.9932780265808105
1788108197483797800,12.6857978515625,-0.1890539973974228,0.21583899855613708,-0.8481050133705139
1788108197493889800,12.695889892578125,0.33285099267959595,-0.013705999590456486,-0.6348770260810852
1788108197503979800,12.705979736328125,1.2936220169067383,-0.3849929869174957,-0.5071049928665161
1788108197514082800,12.716082763671874,1.9419820308685303,-0.7151979804039001,-0.5432140231132507
1788108197524176600,12.7261767578125,1.9502049684524536,-0.8355399966239929,-0.7262300252914429
1788108197534322000,12.736322021484375,1.2312469482421875,-0.9380019903182983,-0.8502810001373291
1788108197544412000,12.746411865234375,0.09084899723529816,-0.9396860003471375,-0.8475040197372437
1788108197554503000,12.7565029296875,-0.7525849938392639,-1.052319049835205,-0.825689971446991
1788108197564594400,12.766594482421874,-0.8321639895439148,-1.1843719482421875,-0.8186540007591248
