time,seconds_elapsed,z,y,x
1788108184916814300,0.118814453125,5.163565158843994,8.297144889831543,0.7314389944076538
1788108184936991000,0.138990966796875,5.18819522857666,8.280708312988281,0.7433050274848938
1788108184947080400,0.14908056640625,5.201372146606445,8.271818161010742,0.7501599788665771
1788108184957170400,0.15917041015625,5.209636211395264,8.26607894897461,0.7560219764709473
1788108184977355300,0.179355224609375,5.192032814025879,8.277158737182617,0.7559329867362976
1788108184987436000,0.18943603515625,5.163876056671143,8.295051574707031,0.752659022808075
1788108184997526300,0.1995263671875,5.132277965545654,8.3143310546875,0.7560549974441528
1788108185007619800,0.209619873046875,5.102890968322754,8.331380844116211,0.7672070264816284
1788108185017711900,0.2197119140625,5.0768961906433105,8.345917701721191,0.7815160155296326
1788108185027797000,0.229796875,5.057158946990967,8.357339859008789,0.7874370217323303
1788108185037885200,0.23988525390625,5.0444512367248535,8.36532211303711,0.7841219902038574
1788108185047985000,0.24998486328125,5.038424015045166,8.369612693786621,0.7770450115203857
1788108185058069000,0.260069091796875,5.03791618347168,8.370723724365234,0.7683380246162415
1788108185068156000,0.270156005859375,5.041950225830078,8.369391441345215,0.7563210129737854
1788108185078245600,0.28024560546875,5.048511028289795,8.36693000793457,0.7396050095558167
1788108185088338400,0.29033837890625,5.055812835693359,8.364067077636719,0.7218539714813232
1788108185098429200,0.30042919921875,5.064176082611084,8.360193252563477,0.7079859972000122
1788108185108520200,0.310520263671875,5.073610782623291,8.355557441711426,0.6950740218162537
1788108185118614300,0.3206142578125,5.0806379318237305,8.352669715881348,0.6782060265541077
1788108185128708000,0.3307080078125,5.082830905914307,8.353116989135742,0.6559439897537231
1788108185138799000,0.340799072265625,5.081556797027588,8.356003761291504,0.6284739971160889
1788108185148897300,0.350897216796875,5.082409858703613,8.357351303100586,0.6031479835510254
1788108185158985000,0.36098486328125,5.086063861846924,8.356372833251953,0.5856810212135315
1788108185169084400,0.37108447265625,5.089844226837158,8.354555130004883,0.5787500143051147
1788108185179171800,0.381171875,5.088916778564453,8.354727745056152,0.5843440294265747
1788108185189265000,0.391264892578125,5.07916784286499,8.360095977783203,0.5922989845275879
1788108185199355000,0.40135498046875,5.055789947509766,8.373781204223633,0.5989620089530945
1788108185209448200,0.4114482421875,5.012450218200684,8.400609970092773,0.5873969793319702
1788108185219537000,0.421536865234375,4.959431171417236,8.433462142944336,0.5663579702377319
1788108185229635000,0.431635009765625,4.912320137023926,8.461915016174316,0.552374005317688
1788108185239720200,0.44172021484375,4.873370170593262,8.484949111938477,0.5440070033073425
1788108185249803800,0.4518037109375,4.840896129608154,8.504237174987793,0.5326510071754456
1788108185259894000,0.46189404296875,4.816295146942139,8.518994331359863,0.5196570158004761
1788108185269990700,0.47199072265625,4.7987518310546875,8.529792785644531,0.5046430230140686
1788108185280078300,0.482078369140625,4.788683891296387,8.53628158569336,0.49031201004981995
1788108185290172000,0.492171875,4.784505844116211,8.539145469665527,0.4811370074748993
1788108185300263000,0.502262939453125,4.7831878662109375,8.540151596069336,0.47637200355529785
1788108185310365400,0.512365478515625,4.78331995010376,8.54040241241455,0.47050800919532776
1788108185320455200,0.522455078125,4.783777236938477,8.540700912475586,0.4603550136089325
1788108185330540500,0.53254052734375,4.784512996673584,8.540910720825195,0.4486890137195587
1788108185340635400,0.542635498046875,4.787536144256592,8.539777755737305,0.4378049969673157
1788108185350753800,0.55275390625,4.791635990142822,8.538031578063965,0.42690300941467285
1788108185360845300,0.56284521484375,4.794980049133301,8.536431312561035,0.42135000228881836
1788108185370940000,0.57293994140625,4.7958831787109375,8.535989761352539,0.42000100016593933
1788108185381023500,0.5830234375,4.7939581871032715,8.53704833984375,0.4204069972038269
1788108185391117300,0.593117431640625,4.787315845489502,8.540667533874512,0.42258700728416443
1788108185401203200,0.603203125,4.773834228515625,8.548309326171875,0.42061498761177063
1788108185411298600,0.613298583984375,4.755229949951172,8.558929443359375,0.41536399722099304
1788108185421391600,0.6233916015625,4.7367401123046875,8.569302558898926,0.4126819968223572
1788108185431499800,0.633499755859375,4.7202911376953125,8.578374862670898,0.41274699568748474
1788108185441587700,0.643587646484375,4.703845024108887,8.587345123291016,0.4139389991760254
1788108185451687400,0.6536875,4.685533046722412,8.597365379333496,0.41363999247550964
1788108185461772300,0.663772216796875,4.667471885681152,8.607287406921387,0.41142699122428894
1788108185471857200,0.673857177734375,4.651169776916504,8.616277694702148,0.40790000557899475
1788108185481953000,0.683953125,4.635238170623779,8.624983787536621,0.4052180051803589
1788108185492050000,0.6940498046875,4.619684219360352,8.633291244506836,0.40599799156188965
1788108185502142700,0.704142822265625,4.6056227684021,8.640472412109375,0.4129030108451843
1788108185512242700,0.71424267578125,4.592006206512451,8.647186279296875,0.4239090085029602
1788108185522334000,0.724333984375,4.575767993927002,8.655247688293457,0.434783011674881
1788108185532434000,0.734433837890625,4.557378768920898,8.664480209350586,0.4439539909362793
1788108185542526000,0.74452587890625,4.539318084716797,8.673548698425293,0.45188701152801514
1788108185552612400,0.7546123046875,4.520851135253906,8.683062553405762,0.45426100492477417
1788108185572811500,0.7748115234375,4.486084938049316,8.701240539550781,0.4510810077190399
1788108185582897700,0.784897705078125,4.472212791442871,8.708520889282227,0.44829800724983215
1788108185592989700,0.79498974609375,4.458890914916992,8.715576171875,0.4438779950141907
1788108185603085600,0.80508544921875,4.445062160491943,8.722908020019531,0.4385780096054077
1788108185613177000,0.815177001953125,4.4317169189453125,8.729902267456055,0.43443000316619873
1788108185623277600,0.825277587890625,4.418842792510986,8.73663330078125,0.43023601174354553
1788108185633368600,0.83536865234375,4.4051971435546875,8.743741989135742,0.4257349967956543
1788108185643463400,0.84546337890625,4.390283107757568,8.751503944396973,0.420197993516922
1788108185653560800,0.855560791015625,4.373730182647705,8.760117530822754,0.41336899995803833
1788108185663662800,0.865662841796875,4.35745096206665,8.76856517791748,0.40607699751853943
1788108185673763600,0.875763671875,4.344473838806152,8.775313377380371,0.39929699897766113
1788108185683853600,0.885853515625,4.337238788604736,8.779151916503906,0.39351901412010193
1788108185693952800,0.895952880859375,4.3342719078063965,8.78084945678711,0.38827499747276306
1788108185704039200,0.9060390625,4.333661079406738,8.78136920928955,0.383311003446579
1788108185714127400,0.91612744140625,4.334786891937256,8.780985832214355,0.3793160021305084
1788108185724212000,0.9262119140625,4.3378520011901855,8.779623031616211,0.3758009970188141
1788108185734303200,0.93630322265625,4.342805862426758,8.777362823486328,0.37147799134254456
1788108185744394200,0.946394287109375,4.349752902984619,8.774117469787598,0.3667770028114319
1788108185754484000,0.95648388671875,4.3584980964660645,8.769951820373535,0.3625659942626953
1788108185774711300,0.976711181640625,4.376216888427734,8.761252403259277,0.35937100648880005
1788108185784797000,0.986796875,4.383916854858398,8.757390022277832,0.35974299907684326
1788108185794893000,0.99689306640625,4.388840198516846,8.754960060119629,0.358815997838974
1788108185804993300,1.0069931640625,4.392014026641846,8.753528594970703,0.3548800051212311
1788108185815090200,1.017090087890625,4.395458221435547,8.75214672088623,0.3462420105934143
1788108185825173200,1.02717333984375,4.398791790008545,8.750953674316406,0.33381399512290955
1788108185835265800,1.037265869140625,4.400237083435059,8.750748634338379,0.31986701488494873
1788108185845353000,1.04735302734375,4.398843765258789,8.751934051513672,0.30629199743270874
1788108185855449000,1.057448974609375,4.394600868225098,8.754509925842285,0.2932949960231781
1788108185865531100,1.06753125,4.388176918029785,8.75815200805664,0.28057700395584106
1788108185875621600,1.07762158203125,4.379886150360107,8.76270580291748,0.26752999424934387
1788108185885704400,1.087704345703125,4.36978816986084,8.768174171447754,0.2530840039253235
1788108185895799000,1.097799072265625,4.357726097106934,8.774627685546875,0.23694700002670288
1788108185905888800,1.107888671875,4.345592975616455,8.781071662902832,0.22046799957752228
1788108185915984000,1.11798388671875,4.334036827087402,8.787160873413086,0.20473499596118927
1788108185926074600,1.12807470703125,4.323701858520508,8.792567253112793,0.19071899354457855
1788108185936165600,1.13816552734375,4.313302040100098,8.797920227050781,0.17878800630569458
1788108185946250200,1.148250244140625,4.302639961242676,8.80333423614502,0.16907499730587006
1788108185956347400,1.158347412109375,4.292137145996094,8.808602333068848,0.161312997341156
1788108185966441000,1.16844091796875,4.282336235046387,8.813469886779785,0.15609300136566162
1788108185976546600,1.178546630859375,4.273684978485107,8.817743301391602,0.1517689973115921
1788108185986640100,1.18864013671875,4.265499114990234,8.821781158447266,0.14741800725460052
1788108186006828000,1.208828125,4.253469944000244,8.827692985534668,0.14071999490261078
1788108186016921900,1.218921875,4.248918056488037,8.82995891571045,0.13617800176143646
1788108186027013000,1.22901318359375,4.245462894439697,8.831690788269043,0.13133899867534637
1788108186037107700,1.239107666015625,4.243544101715088,8.832680702209473,0.12685400247573853
1788108186047200300,1.2492001953125,4.243351936340332,8.832819938659668,0.12372499704360962
1788108186057290800,1.259290771484375,4.243797779083252,8.832633018493652,0.1215519979596138
1788108186067386000,1.26938623046875,4.243916034698486,8.832594871520996,0.12019199877977371
1788108186077499000,1.279498779296875,4.244566917419434,8.832294464111328,0.11923699826002121
1788108186087593000,1.289593017578125,4.24609899520874,8.831579208374023,0.11755900084972382
1788108186097691600,1.299691650390625,4.248874187469482,8.830292701721191,0.11398500204086304
1788108186107790000,1.3097900390625,4.252542018890381,8.828585624694824,0.109375
1788108186117889300,1.31988916015625,4.258058071136475,8.825980186462402,0.10511499643325806
1788108186127980800,1.329980712890625,4.26400089263916,8.823169708251953,0.10003200173377991
1788108186138064400,1.340064453125,4.270543098449707,8.820042610168457,0.09631799906492233
1788108186148153900,1.35015380859375,4.277602195739746,8.816633224487305,0.09536900371313095
1788108186158242600,1.36024267578125,4.281933784484863,8.81452465057373,0.09590200334787369
1788108186168326000,1.370325927734375,4.282896041870117,8.814044952392578,0.09693200141191483
1788108186178411800,1.380411865234375,4.278454780578613,8.816197395324707,0.09734500199556351
1788108186188515000,1.39051513671875,4.271358966827393,8.819671630859375,0.09417299926280975
1788108186198613800,1.40061376953125,4.266345024108887,8.822154998779297,0.08890999853610992
1788108186208705500,1.41070556640625,4.264802932739258,8.822957992553711,0.08277899771928787
1788108186218800600,1.420800537109375,4.266482830047607,8.822181701660156,0.07868599891662598
1788108186228900900,1.43090087890625,4.269420146942139,8.82076358795166,0.07859499752521515
1788108186238990300,1.440990234375,4.27069616317749,8.8201322555542,0.08026900142431259
1788108186249090800,1.4510908203125,4.268702983856201,8.821086883544922,0.08133900165557861
1788108186259181000,1.46118115234375,4.264797210693359,8.822992324829102,0.07945100218057632
1788108186269279200,1.471279296875,4.261043071746826,8.824851989746094,0.07427900284528732
1788108186279380500,1.48138037109375,4.259039878845215,8.8258638381958,0.06835699826478958
1788108186289477000,1.49147705078125,4.258121967315674,8.826346397399902,0.06324700266122818
1788108186299572500,1.501572509765625,4.255558967590332,8.82761287689209,0.05886499956250191
1788108186309658400,1.511658447265625,4.2496209144592285,8.830500602722168,0.05457700043916702
1788108186319751000,1.5217509765625,4.240962982177734,8.834695816040039,0.04916499927639961
1788108186329840400,1.53184033203125,4.230679035186768,8.839664459228516,0.041682999581098557
1788108186339937500,1.5419375,4.222662925720215,8.843527793884277,0.03375900164246559
1788108186350023700,1.552023681640625,4.218681812286377,8.845453262329102,0.026933999732136726
1788108186360127000,1.562126953125,4.219056129455566,8.84528636932373,0.02182300016283989
1788108186370217700,1.5722177734375,4.222815990447998,8.843498229980469,0.01838500052690506
1788108186380311300,1.582311279296875,4.228445053100586,8.840815544128418,0.014996999874711037
1788108186390402000,1.592402099609375,4.23593807220459,8.837233543395996,0.011239999905228615
1788108186400498400,1.60249853515625,4.245429039001465,8.832680702209473,0.007670999970287085
1788108186410590700,1.6125908203125,4.2574238777160645,8.826910972595215,0.004995000082999468
1788108186420683000,1.62268310546875,4.272740840911865,8.819504737854004,0.005150000099092722
1788108186430779400,1.632779296875,4.290112018585205,8.811067581176758,0.00813200045377016
1788108186440880000,1.642880126953125,4.308215141296387,8.802221298217773,0.013036999851465225
1788108186450972700,1.65297265625,4.325716018676758,8.793619155883789,0.020665999501943588
1788108186461069000,1.663069091796875,4.341219902038574,8.78594970703125,0.0304579995572567
1788108186471156700,1.67315673828125,4.354053020477295,8.77955436706543,0.04084299877285957
1788108186481270500,1.6832705078125,4.366124153137207,8.7735013961792,0.05088699981570244
1788108186491356200,1.693356201171875,4.380095958709717,8.766478538513184,0.05982799828052521
1788108186511550700,1.71355078125,4.412158966064453,8.750273704528809,0.0747079998254776
1788108186521650200,1.723650146484375,4.424706935882568,8.743921279907227,0.0765250027179718
1788108186531741400,1.733741455078125,4.4337358474731445,8.739361763000488,0.07450199872255325
1788108186541835800,1.743835693359375,4.442290782928467,8.735047340393066,0.07104899734258652
1788108186551932200,1.75393212890625,4.452578067779541,8.729819297790527,0.06921499967575073
1788108186562027800,1.76402783203125,4.4631218910217285,8.724434852600098,0.06933599710464478
1788108186572125400,1.77412548828125,4.471936225891113,8.719918251037598,0.06925699859857559
1788108186582218800,1.78421875,4.478100776672363,8.71675968170166,0.06860300153493881
1788108186592317200,1.794317138671875,4.483107089996338,8.714189529418945,0.06803300231695175
1788108186602413600,1.80441357421875,4.487825870513916,8.71175765991211,0.06876599788665771
1788108186612516900,1.814516845703125,4.493636131286621,8.708740234375,0.07123599946498871
1788108186622606600,1.824606689453125,4.497375965118408,8.70677375793457,0.07528500258922577
1788108186632693200,1.834693359375,4.490969181060791,8.709976196289062,0.08670700341463089
1788108186642780000,1.84477978515625,4.478614807128906,8.716127395629883,0.10570099949836731
1788108186652874800,1.854874755859375,4.466915130615234,8.721872329711914,0.12507900595664978
1788108186662970000,1.86497021484375,4.457945823669434,8.726179122924805,0.1432660073041916
1788108186673055200,1.87505517578125,4.452917098999023,8.728487014770508,0.15826599299907684
1788108186683147000,1.88514697265625,4.4528422355651855,8.728346824645996,0.16778099536895752
1788108186693237200,1.8952373046875,4.455543041229248,8.726895332336426,0.1715030074119568
1788108186703331600,1.90533154296875,4.455844879150391,8.726719856262207,0.17269399762153625
1788108186713429000,1.915428955078125,4.448919773101807,8.730154037475586,0.17749600112438202
1788108186723530200,1.9255302734375,4.433020114898682,8.738018035888672,0.18810200691223145
1788108186733614800,1.93561474609375,4.411086082458496,8.748804092407227,0.20186400413513184
1788108186743706400,1.945706298828125,4.386744976043701,8.760710716247559,0.21530500054359436
1788108186753786400,1.955786376953125,4.361808776855469,8.772865295410156,0.22684800624847412
1788108186763878700,1.965878662109375,4.338634014129639,8.784093856811523,0.23648999631404877
1788108186773964500,1.975964599609375,4.316867828369141,8.794607162475586,0.24395400285720825
1788108186784070400,1.9860703125,4.296451091766357,8.804417610168457,0.2505060136318207
1788108186794155000,1.996155029296875,4.277602195739746,8.813429832458496,0.25607800483703613
1788108186804245800,2.006245849609375,4.260828971862793,8.821414947509766,0.2607960104942322
1788108186814331100,2.0163310546875,4.245967864990234,8.82844352722168,0.26527899503707886
1788108186824429600,2.0264296875,4.232635974884033,8.834688186645508,0.27038899064064026
1788108186834521300,2.036521240234375,4.220034122467041,8.840490341186523,0.27756500244140625
1788108186844617500,2.046617431640625,4.208220958709717,8.84582233428955,0.28684601187705994
1788108186854706700,2.056706787109375,4.194968223571777,8.851709365844727,0.2991349995136261
1788108186864789000,2.0667890625,4.180347919464111,8.858154296875,0.3127079904079437
1788108186874880500,2.076880615234375,4.163980007171631,8.865433692932129,0.32464200258255005
1788108186884975600,2.0869755859375,4.146911144256592,8.873092651367188,0.3337259888648987
1788108186895058700,2.09705859375,4.129006862640381,8.881185531616211,0.3403390049934387
1788108186905145000,2.10714501953125,4.110647201538086,8.889601707458496,0.3427799940109253
1788108186915228700,2.117228759765625,4.092367172241211,8.898014068603516,0.3433769941329956
1788108186925323500,2.127323486328125,4.074481010437012,8.906230926513672,0.3429349958896637
1788108186935410700,2.13741064453125,4.056992053985596,8.914267539978027,0.3415369987487793
1788108186945506800,2.1475068359375,4.038352012634277,8.92283821105957,0.3385930061340332
1788108186955587600,2.157587646484375,4.018339157104492,8.932095527648926,0.33260399103164673
1788108186965681700,2.167681640625,3.997817039489746,8.941619873046875,0.32391199469566345
1788108186975766800,2.177766845703125,3.9787631034851074,8.950470924377441,0.3138819932937622
1788108186985863400,2.187863525390625,3.963681936264038,8.957491874694824,0.3042509853839874
1788108186995955700,2.197955810546875,3.9522640705108643,8.962820053100586,0.29566600918769836
1788108187006057500,2.208057373046875,3.9429759979248047,8.967134475708008,0.28891101479530334
1788108187016146000,2.21814599609375,3.9346370697021484,8.970925331115723,0.28477799892425537
1788108187026233900,2.22823388671875,3.926363945007324,8.974613189697266,0.2828049957752228
1788108187036329000,2.238328857421875,3.918423891067505,8.978090286254883,0.2825529873371124
1788108187046425600,2.248425537109375,3.9123589992523193,8.980704307556152,0.2835560142993927
1788108187056519400,2.25851953125,3.9092209339141846,8.982044219970703,0.2843089997768402
1788108187066608600,2.268608642578125,3.910423994064331,8.981498718261719,0.2850649952888489
1788108187076704000,2.2787041015625,3.915602922439575,8.979192733764648,0.2865220010280609
1788108187086801000,2.28880078125,3.9229838848114014,8.975885391235352,0.2892630100250244
1788108187096894200,2.298894287109375,3.931281089782715,8.97216796875,0.2919040024280548
1788108187107030800,2.30903076171875,3.940016984939575,8.968233108520508,0.2950339913368225
1788108187117131500,2.319131591796875,3.9486160278320312,8.96434211730957,0.29833099246025085
1788108187127222800,2.329222900390625,3.956368923187256,8.96082878112793,0.3011530041694641
1788108187137312300,2.339312255859375,3.9638760089874268,8.957432746887207,0.3033829927444458
1788108187147405800,2.34940576171875,3.9709510803222656,8.954206466674805,0.30620598793029785
1788108187157504300,2.359504150390625,3.9748189449310303,8.952347755432129,0.31028100848197937
1788108187167601700,2.3696015625,3.9734530448913574,8.952775001525879,0.315418004989624
1788108187177699800,2.379699951171875,3.9665629863739014,8.95556926727295,0.32273200154304504
1788108187187790300,2.389790283203125,3.9579970836639404,8.959026336669922,0.3319070041179657
1788108187197877800,2.399877685546875,3.9502170085906982,8.96208381652832,0.34174999594688416
1788108187207974000,2.409973876953125,3.9439759254455566,8.964468955993652,0.35120099782943726
1788108187218067700,2.420067626953125,3.9395511150360107,8.966094017028809,0.35930800437927246
1788108187228162600,2.43016259765625,3.9368538856506348,8.967029571533203,0.3655250072479248
1788108187238253300,2.44025341796875,3.9359068870544434,8.967320442199707,0.3685010075569153
1788108187248356400,2.4503564453125,3.9356539249420166,8.967405319213867,0.36911800503730774
1788108187258455600,2.46045556640625,3.934536933898926,8.967927932739258,0.3682970106601715
1788108187268552400,2.470552490234375,3.9324889183044434,8.968838691711426,0.36798998713493347
1788108187278654200,2.480654296875,3.9294700622558594,8.970158576965332,0.368133008480072
1788108187288744400,2.490744384765625,3.9264540672302246,8.97145938873291,0.3686339855194092
1788108187298829800,2.500829833984375,3.9247190952301025,8.97220230102539,0.36898401379585266
1788108187308917200,2.510917236328125,3.924359083175659,8.972380638122559,0.368492990732193
1788108187319005700,2.521005615234375,3.923454999923706,8.972818374633789,0.3675509989261627
1788108187329096000,2.531095947265625,3.9201509952545166,8.974388122558594,0.3644160032272339
1788108187339178800,2.5411787109375,3.9146931171417236,8.97690486907959,0.36099499464035034
1788108187349271800,2.551271728515625,3.9081640243530273,8.979859352111816,0.358271986246109
1788108187359362600,2.561362548828125,3.9013640880584717,8.982932090759277,0.3553529977798462
1788108187369444000,2.571444091796875,3.8947010040283203,8.985971450805664,0.3515569865703583
1788108187379539500,2.58153955078125,3.8879029750823975,8.989094734191895,0.3470019996166229
1788108187389630200,2.591630126953125,3.880711078643799,8.992403030395508,0.34168899059295654
1788108187399720000,2.601719970703125,3.873415946960449,8.99573802947998,0.3366219997406006
1788108187409796400,2.61179638671875,3.8670690059661865,8.998586654663086,0.33348599076271057
1788108187419886800,2.621886962890625,3.862071990966797,9.000752449035645,0.33288800716400146
1788108187429988400,2.63198828125,3.858988046646118,9.002038955688477,0.3339349925518036
1788108187440082400,2.64208251953125,3.8575360774993896,9.002577781677246,0.33624300360679626
1788108187450179000,2.652178955078125,3.854954957962036,9.003523826599121,0.34040799736976624
1788108187460274200,2.662274169921875,3.85075306892395,9.005070686340332,0.34702399373054504
1788108187470367700,2.67236767578125,3.8470211029052734,9.006364822387695,0.3546780049800873
1788108187480465400,2.68246533203125,3.8459091186523438,9.006486892700195,0.36359700560569763
1788108187490555000,2.692554931640625,3.848676919937134,9.004899024963379,0.3735159933567047
1788108187500647000,2.70264697265625,3.8528740406036377,9.002667427062988,0.38384100794792175
1788108187510736000,2.71273583984375,3.8557989597320557,9.001036643981934,0.3926379978656769
1788108187520834000,2.722833984375,3.852741003036499,9.002058982849121,0.39915698766708374
1788108187530931200,2.73293115234375,3.838870048522949,9.007689476013184,0.4057230055332184
1788108187541028000,2.743028076171875,3.812793016433716,9.018478393554688,0.41194701194763184
1788108187551121700,2.75312158203125,3.7924818992614746,9.024621963500977,0.4618160128593445
1788108187561214200,2.763214111328125,3.7821760177612305,9.025944709777832,0.5171480178833008
1788108187571307000,2.77330712890625,3.7789249420166016,9.026264190673828,0.5350580215454102
1788108187581403000,2.78340283203125,3.785486936569214,9.023309707641602,0.5385259985923767
1788108187591491600,2.79349169921875,3.8049259185791016,9.01455020904541,0.5480999946594238
1788108187601592800,2.8035927734375,3.841731071472168,8.99812126159668,0.5611569881439209
1788108187611682600,2.8136826171875,3.8977019786834717,8.973011016845703,0.5770840048789978
1788108187621773800,2.82377392578125,3.9714601039886475,8.939468383789062,0.5944470167160034
1788108187631853300,2.833853271484375,4.058290004730225,8.899542808532715,0.6069859862327576
1788108187641947600,2.84394775390625,4.154291152954102,8.854241371154785,0.6198880076408386
1788108187652038700,2.85403857421875,4.251927852630615,8.806669235229492,0.635342001914978
1788108187662126800,2.864126953125,4.34713077545166,8.7586088180542,0.6551269888877869
1788108187672223700,2.8742236328125,4.436482906341553,8.711792945861816,0.6799430251121521
1788108187682314200,2.884314208984375,4.511634826660156,8.670936584472656,0.7071200013160706
1788108187692403700,2.89440380859375,4.564557075500488,8.64073657989502,0.7365149855613708
1788108187702496800,2.904496826171875,4.592074871063232,8.623041152954102,0.7720440030097961
1788108187712591000,2.914591064453125,4.596374988555908,8.616838455200195,0.8145179748535156
1788108187722681300,2.924681396484375,4.5820817947387695,8.620057106018066,0.8597670197486877
1788108187732772600,2.934772705078125,4.556126117706299,8.628990173339844,0.9067549705505371
1788108187742860500,2.944860595703125,4.527691841125488,8.638705253601074,0.9553800225257874
1788108187752952000,2.9549521484375,4.508135795593262,8.643423080444336,1.0039730072021484
1788108187763049000,2.965049072265625,4.501064777374268,8.642056465148926,1.0465539693832397
1788108187773129200,2.975129150390625,4.503786087036133,8.63640308380127,1.0809370279312134
1788108187783224600,2.985224609375,4.512709140777588,8.62788200378418,1.1113300323486328
1788108187793310500,2.995310546875,4.522571086883545,8.618878364562988,1.1407489776611328
1788108187803411700,3.00541162109375,4.528419017791748,8.612081527709961,1.1685090065002441
1788108187813499400,3.01549951171875,4.526916980743408,8.609663009643555,1.1919389963150024
1788108187823600000,3.02560009765625,4.512303829193115,8.616941452026367,1.1947569847106934
1788108187833686000,3.03568603515625,4.4829487800598145,8.632635116577148,1.1919519901275635
1788108187843779600,3.045779541015625,4.444828033447266,8.653928756713867,1.1802669763565063
1788108187853871600,3.05587158203125,4.393327236175537,8.684236526489258,1.1500829458236694
1788108187863968500,3.065968505859375,4.3257880210876465,8.724815368652344,1.0977829694747925
1788108187874059300,3.076059326171875,4.256885051727295,8.771276473999023,0.9917680025100708
1788108187884148500,3.0861484375,4.209537982940674,8.81493091583252,0.785336971282959
1788108187894234600,3.096234619140625,4.1774468421936035,8.847603797912598,0.5557230114936829
1788108187904331500,3.10633154296875,4.140279769897461,8.876287460327148,0.331046998500824
1788108187914422500,3.116422607421875,4.0907487869262695,8.904500961303711,0.12482299655675888
1788108187924518100,3.12651806640625,4.0413689613342285,8.92759895324707,-0.07287000119686127
1788108187934607000,3.136607177734375,4.002760887145996,8.941750526428223,-0.2510389983654022
1788108187944696600,3.146696533203125,3.9839038848876953,8.944757461547852,-0.39973700046539307
1788108187954782200,3.1567822265625,3.9845380783081055,8.938616752624512,-0.5143749713897705
1788108187964884200,3.16688427734375,4.000002861022949,8.926939010620117,-0.5913820266723633
1788108187974979000,3.17697900390625,4.020565986633301,8.914361953735352,-0.6396949887275696
1788108187985075200,3.1870751953125,4.034447193145752,8.905328750610352,-0.6770089864730835
1788108187995160000,3.19716015625,4.044274806976318,8.89818000793457,-0.7114650011062622
1788108188005253400,3.20725341796875,4.052918910980225,8.891558647155762,-0.744333028793335
1788108188015345400,3.217345458984375,4.05985689163208,8.885761260986328,-0.7751359939575195
1788108188025435400,3.227435302734375,4.062450885772705,8.882328033447266,-0.800491988658905
1788108188035530500,3.237530517578125,4.060890197753906,8.881181716918945,-0.8208490014076233
1788108188045654800,3.24765478515625,4.054457187652588,8.882675170898438,-0.836355984210968
1788108188055742500,3.257742431640625,4.043068885803223,8.88701057434082,-0.8453770279884338
1788108188065843000,3.267843017578125,4.029225826263428,8.893321990966797,-0.8450779914855957
1788108188075934700,3.277934814453125,4.012879848480225,8.901423454284668,-0.8375610113143921
1788108188086026800,3.28802685546875,3.9962940216064453,8.910358428955078,-0.8216599822044373
1788108188096112600,3.298112548828125,3.9802699089050293,8.919543266296387,-0.7995020151138306
1788108188106206000,3.3082060546875,3.967170000076294,8.927849769592285,-0.7713980078697205
1788108188116297500,3.31829736328125,3.960149049758911,8.933882713317871,-0.7368729710578918
1788108188126387500,3.328387451171875,3.959942102432251,8.936897277832031,-0.7005190253257751
1788108188136473600,3.3384736328125,3.964932918548584,8.937167167663574,-0.6681180000305176
1788108188146569000,3.34856884765625,3.977241039276123,8.934000015258789,-0.636559009552002
1788108188156664800,3.358664794921875,3.9948830604553223,8.927813529968262,-0.6124320030212402
1788108188166754600,3.368754638671875,4.013698101043701,8.920493125915527,-0.5958030223846436
1788108188176851200,3.378851318359375,4.030623912811279,8.91347885131836,-0.5865030288696289
1788108188186946600,3.388946533203125,4.041449069976807,8.90875244140625,-0.5837770104408264
1788108188197034500,3.399034423828125,4.046782970428467,8.906006813049316,-0.5887029767036438
1788108188207125000,3.409125,4.057097911834717,8.900726318359375,-0.5974670052528381
1788108188217217300,3.41921728515625,4.068079948425293,8.894984245300293,-0.6082580089569092
1788108188227312400,3.4293125,4.072464942932129,8.892069816589355,-0.6213809847831726
1788108188247494100,3.449494140625,4.049623012542725,8.90056037902832,-0.6485379934310913
1788108188257592800,3.4595927734375,4.029168128967285,8.908869743347168,-0.6617249846458435
1788108188267684000,3.46968408203125,4.004909038543701,8.918551445007324,-0.6783580183982849
1788108188277781200,3.47978125,3.9795479774475098,8.928032875061035,-0.7024829983711243
1788108188287864300,3.4898642578125,3.9848999977111816,8.923686981201172,-0.7269300222396851
1788108188297961500,3.49996142578125,4.010443210601807,8.912169456481934,-0.7277050018310547
1788108188308046600,3.510046630859375,4.026195049285889,8.905486106872559,-0.7225720286369324
1788108188318139000,3.520138916015625,4.010176181793213,8.912604331970215,-0.7238280177116394
1788108188328234000,3.53023388671875,3.958077907562256,8.934508323669434,-0.7403870224952698
1788108188338338300,3.54033837890625,3.876077890396118,8.968338966369629,-0.7648239731788635
1788108188348428300,3.55042822265625,3.77349591255188,9.009659767150879,-0.7916690111160278
1788108188358526000,3.56052587890625,3.663719892501831,9.052003860473633,-0.8236470222473145
1788108188368616000,3.570615966796875,3.5706911087036133,9.08643913269043,-0.8525400161743164
1788108188378711300,3.580711181640625,3.5123589038848877,9.108246803283691,-0.8620479702949524
1788108188388799200,3.59079931640625,3.488347053527832,9.118674278259277,-0.8492310047149658
1788108188398892800,3.600892822265625,3.487689971923828,9.121712684631348,-0.8187490105628967
1788108188408982300,3.610982177734375,3.497443914413452,9.121522903442383,-0.7783129811286926
1788108188419069200,3.621069091796875,3.5126938819885254,9.119564056396484,-0.7310910224914551
1788108188429162000,3.631161865234375,3.533926010131836,9.115290641784668,-0.6802859902381897
1788108188439255000,3.641255126953125,3.5626370906829834,9.107888221740723,-0.6276640295982361
1788108188449345300,3.65134521484375,3.6001150608062744,9.09639835357666,-0.5785290002822876
1788108188459435000,3.66143505859375,3.649221897125244,9.079339027404785,-0.537397027015686
1788108188469520400,3.671520263671875,3.7122650146484375,9.055656433105469,-0.5041599869728088
1788108188479616000,3.681615966796875,3.7848570346832275,9.027063369750977,-0.47646400332450867
1788108188489705700,3.691705810546875,3.866010904312134,8.993744850158691,-0.4544830024242401
1788108188499798500,3.701798583984375,3.951669931411743,8.95724105834961,-0.43838998675346375
1788108188509888000,3.711887939453125,4.035421848297119,8.92042064666748,-0.4259749948978424
1788108188519980000,3.72197998046875,4.113272190093994,8.885064125061035,-0.42023101449012756
1788108188530065200,3.732065185546875,4.188675880432129,8.84943962097168,-0.4270879924297333
1788108188540158500,3.742158447265625,4.262078762054443,8.813304901123047,-0.44759199023246765
1788108188550244600,3.75224462890625,4.319975852966309,8.78305721282959,-0.4855160117149353
1788108188560340200,3.76234033203125,4.341522216796875,8.769072532653809,-0.5427349805831909
1788108188570427100,3.77242724609375,4.3201398849487305,8.774635314941406,-0.6182399988174438
1788108188580524000,3.78252392578125,4.2738118171691895,8.791221618652344,-0.6992300152778625
1788108188590617000,3.7926171875,4.228464126586914,8.807762145996094,-0.7638220191001892
1788108188600713000,3.802712890625,4.199438095092773,8.818547248840332,-0.7987179756164551
1788108188610802200,3.81280224609375,4.188518047332764,8.823564529418945,-0.8006190061569214
1788108188620902000,3.82290185546875,4.184879779815674,8.82734203338623,-0.7777040004730225
1788108188630990800,3.832990966796875,4.172119140625,8.836454391479492,-0.7419790029525757
1788108188641098500,3.843098388671875,4.136157989501953,8.85600757598877,-0.7094569802284241
1788108188651188700,3.853188720703125,4.075644016265869,8.885583877563477,-0.6895549893379211
1788108188661289000,3.8632890625,4.0001139640808105,8.920758247375488,-0.6776009798049927
1788108188671379500,3.87337939453125,3.922553062438965,8.956085205078125,-0.6649320125579834
1788108188681476400,3.883476318359375,3.8504209518432617,8.988253593444824,-0.6523680090904236
1788108188691563500,3.8935634765625,3.7822959423065186,9.017792701721191,-0.6431649923324585
1788108188701659600,3.90365966796875,3.715712070465088,9.045856475830078,-0.6371790170669556
1788108188711743500,3.913743408203125,3.6487200260162354,9.073137283325195,-0.636385977268219
1788108188721836800,3.9238369140625,3.58105206489563,9.09968376159668,-0.6417049765586853
1788108188731930400,3.933930419921875,3.5155279636383057,9.124739646911621,-0.6482539772987366
1788108188742029600,3.944029541015625,3.45627498626709,9.147120475769043,-0.6514440178871155
1788108188752124700,3.954124755859375,3.409722089767456,9.164778709411621,-0.6485739946365356
1788108188762214000,3.9642138671875,3.385798931121826,9.174455642700195,-0.6369510293006897
1788108188772297000,3.974296875,3.401710033416748,9.169939041137695,-0.6169270277023315
1788108188782388700,3.984388671875,3.477457046508789,9.14335823059082,-0.5884749889373779
1788108188792476000,3.994475830078125,3.6228139400482178,9.088900566101074,-0.5542070269584656
1788108188802567700,4.004567626953125,3.830415964126587,9.00561237335205,-0.5165899991989136
1788108188812659500,4.014659423828125,4.074217796325684,8.900014877319336,-0.4801200032234192
1788108188822751200,4.024751220703125,4.3281450271606445,8.78073501586914,-0.453685998916626
1788108188832839700,4.034839599609375,4.5713372230529785,8.657069206237793,-0.445033997297287
1788108188842925000,4.044925048828125,4.784367084503174,8.540484428405762,-0.4582349956035614
1788108188853009700,4.055009765625,4.955286979675293,8.440546989440918,-0.49226200580596924
1788108188863106300,4.065106201171875,5.082763195037842,8.361098289489746,-0.5454689860343933
1788108188873203700,4.07520361328125,5.17526388168335,8.299775123596191,-0.6085559725761414
1788108188883293200,4.085293212890625,5.246977806091309,8.250173568725586,-0.6661710143089294
1788108188893382700,4.095382568359375,5.307931900024414,8.207740783691406,-0.7063130140304565
1788108188903479600,4.1054794921875,5.3629350662231445,8.170283317565918,-0.7248690128326416
1788108188913567700,4.115567626953125,5.414124965667725,8.136223793029785,-0.7273769974708557
1788108188923661600,4.12566162109375,5.4611687660217285,8.105063438415527,-0.72359699010849
1788108188933753000,4.135753173828125,5.501153945922852,8.078137397766113,-0.7217779755592346
1788108188943848400,4.145848388671875,5.529934883117676,8.057938575744629,-0.7276530265808105
1788108188953936100,4.15593603515625,5.547101974487305,8.04459285736084,-0.7444139719009399
1788108188964029400,4.166029541015625,5.554458141326904,8.03666877746582,-0.7745739817619324
1788108188974114600,4.176114501953125,5.553934097290039,8.032890319824219,-0.8163830041885376
1788108188984206300,4.186206298828125,5.546228885650635,8.032949447631836,-0.8666229844093323
1788108188994296300,4.19629638671875,5.531353950500488,8.037435531616211,-0.9185320138931274
1788108189004387600,4.2063876953125,5.508468151092529,8.047661781311035,-0.9653559923171997
1788108189014476800,4.216476806640625,5.477074146270752,8.064085006713867,-1.0060679912567139
1788108189024571100,4.226571044921875,5.437798976898193,8.086801528930664,-1.036342978477478
1788108189034660900,4.236660888671875,5.390030860900879,8.116272926330566,-1.055340051651001
1788108189044763100,4.24676318359375,5.334228038787842,8.152114868164062,-1.0625499486923218
1788108189054857000,4.25685693359375,5.273220062255859,8.192575454711914,-1.0558669567108154
1788108189064958700,4.266958740234375,5.211521148681641,8.234214782714844,-1.03814697265625
1788108189075048200,4.277048095703125,5.15802001953125,8.271658897399902,-1.0072089433670044
1788108189085142300,4.287142333984375,5.1198577880859375,8.300893783569336,-0.960319995880127
1788108189095229000,4.29722900390625,5.098691940307617,8.320475578308105,-0.9016889929771423
1788108189105333200,4.307333251953125,5.0921430587768555,8.330909729003906,-0.8402600288391113
1788108189115415800,4.317415771484375,5.091821193695068,8.3361177444458,-0.7889829874038696
1788108189125514200,4.32751416015625,5.087276935577393,8.34259033203125,-0.7488909959793091
1788108189135599900,4.337599853515625,5.071505069732666,8.354920387268066,-0.7177119851112366
1788108189145691000,4.34769091796875,5.046686172485352,8.372282028198242,-0.6898450255393982
1788108189155774700,4.357774658203125,5.046091079711914,8.375433921813965,-0.6550310254096985
1788108189165870300,4.367870361328125,5.084568023681641,8.353041648864746,-0.6433389782905579
1788108189175961000,4.377961181640625,5.124969005584717,8.32510757446289,-0.6835290193557739
1788108189186051600,4.388051513671875,5.130230903625488,8.314953804016113,-0.7630839943885803
1788108189196143400,4.398143310546875,5.093105792999268,8.327451705932617,-0.8681929707527161
1788108189206228200,4.408228271484375,5.0379109382629395,8.35024356842041,-0.9658520221710205
1788108189216319200,4.4183193359375,4.97996187210083,8.375516891479492,-1.0443639755249023
1788108189226410000,4.428409912109375,4.926146030426025,8.40358829498291,-1.0736910104751587
1788108189236500200,4.438500244140625,4.884579181671143,8.432899475097656,-1.0330020189285278
1788108189246599000,4.448598876953125,4.861093044281006,8.45941162109375,-0.9209240078926086
1788108189256695600,4.458695556640625,4.856964111328125,8.47868824005127,-0.7494999766349792
1788108189266790700,4.468790771484375,4.861941814422607,8.492168426513672,-0.5334839820861816
1788108189276882400,4.47888232421875,4.861344814300537,8.50381088256836,-0.3041970133781433
1788108189286972200,4.48897216796875,4.854160785675049,8.512887954711914,-0.0885860025882721
1788108189297067500,4.499067626953125,4.840713024139404,8.520476341247559,0.09457500278949738
1788108189307165400,4.50916552734375,4.825979232788086,8.526124954223633,0.2348479926586151
1788108189317262000,4.519261962890625,4.820065021514893,8.526339530944824,0.32939600944519043
1788108189327356700,4.529356689453125,4.829592227935791,8.519059181213379,0.37498199939727783
1788108189337454600,4.53945458984375,4.851350784301758,8.506695747375488,0.37484899163246155
1788108189347545000,4.549545166015625,4.877909183502197,8.492815971374512,0.3436470031738281
1788108189357637400,4.559637451171875,4.903073787689209,8.480283737182617,0.2909500002861023
1788108189367726300,4.569726318359375,4.923966884613037,8.469939231872559,0.23389199376106262
1788108189377821700,4.57982177734375,4.945206165313721,8.458478927612305,0.19769099354743958
1788108189387912000,4.589911865234375,4.971982955932617,8.443153381347656,0.18041899800300598
1788108189398004200,4.600004150390625,5.006248950958252,8.422926902770996,0.17834199965000153
1788108189408091400,4.61009130859375,5.044681072235107,8.399689674377441,0.1908479928970337
1788108189418189000,4.62018896484375,5.083725929260254,8.375624656677246,0.21135100722312927
1788108189428303000,4.63030322265625,5.118101119995117,8.354068756103516,0.23373299837112427
1788108189438391000,4.64039111328125,5.144056797027588,8.337549209594727,0.252905011177063
1788108189448486400,4.650486328125,5.159753799438477,8.327486038208008,0.2644500136375427
1788108189458580500,4.66058056640625,5.164454936981201,8.324419021606445,0.2691670060157776
1788108189468668400,4.67066845703125,5.158901214599609,8.32787036895752,0.26883798837661743
1788108189478758100,4.680758056640625,5.146650791168213,8.335519790649414,0.2665489912033081
1788108189488845300,4.69084521484375,5.129658222198486,8.345977783203125,0.2670060098171234
1788108189498935800,4.700935791015625,5.109142780303955,8.358266830444336,0.27580899000167847
1788108189509022000,4.71102197265625,5.086781978607178,8.37109375,0.2990590035915375
1788108189519115500,4.721115478515625,5.063888072967529,8.383451461791992,0.33873000741004944
1788108189529202200,4.7312021484375,5.041388988494873,8.394845962524414,0.38853999972343445
1788108189539286500,4.74128662109375,5.0179572105407715,8.406376838684082,0.43928301334381104
1788108189549376300,4.751376220703125,4.993021011352539,8.418721199035645,0.4846630096435547
1788108189559464400,4.76146435546875,4.96698522567749,8.431962013244629,0.5206829905509949
1788108189569555200,4.77155517578125,4.940529823303223,8.446002960205078,0.5442289710044861
1788108189579646200,4.781646240234375,4.913393020629883,8.461186408996582,0.5539510250091553
1788108189589720300,4.79172021484375,4.883737087249756,8.478514671325684,0.5512440204620361
1788108189599810300,4.801810302734375,4.849118232727051,8.499021530151367,0.5410060286521912
1788108189609898800,4.811898681640625,4.808952808380127,8.522574424743652,0.528823971748352
1788108189619983000,4.821983154296875,4.765624046325684,8.547435760498047,0.5198050141334534
1788108189630073000,4.832072998046875,4.722227096557617,8.571626663208008,0.5175060033798218
1788108189640169700,4.842169677734375,4.6816511154174805,8.593523025512695,0.5230249762535095
1788108189650247000,4.852246826171875,4.645615100860596,8.612350463867188,0.5344870090484619
1788108189660347000,4.862346923828125,4.612451076507568,8.629303932189941,0.5481150150299072
1788108189670432300,4.872432373046875,4.579835891723633,8.64583969116211,0.5608050227165222
1788108189680525800,4.88252587890625,4.546028137207031,8.6629056930542,0.572413980960846
1788108189690619100,4.892619140625,4.513037204742432,8.679398536682129,0.5835390090942383
1788108189700712400,4.90271240234375,4.483673095703125,8.69401741027832,0.5922150015830994
1788108189710807000,4.91280712890625,4.460080146789551,8.705824851989746,0.5969240069389343
1788108189720902700,4.922902587890625,4.442541122436523,8.714682579040527,0.5984280109405518
1788108189731007000,4.933007080078125,4.432647228240967,8.71982479095459,0.5968930125236511
1788108189741104000,4.943104248046875,4.430243015289307,8.721328735351562,0.5927720069885254
1788108189751194600,4.953194580078125,4.434874057769775,8.71939754486084,0.5864819884300232
1788108189761289500,4.96328955078125,4.44401216506958,8.715234756469727,0.5791760087013245
1788108189771382000,4.973382080078125,4.455716133117676,8.709786415100098,0.5711629986763
1788108189781470500,4.983470458984375,4.46932315826416,8.70332145690918,0.563401997089386
1788108189791564000,4.99356396484375,4.485082149505615,8.695659637451172,0.5563679933547974
1788108189801660400,5.003660400390625,4.5024309158325195,8.687125205993652,0.5495079755783081
1788108189811755000,5.013755126953125,4.5204758644104,8.678231239318848,0.5418499708175659
1788108189821843200,5.02384326171875,4.537421226501465,8.669913291931152,0.5332779884338379
1788108189831938600,5.0339384765625,4.551338195800781,8.663113594055176,0.525160014629364
1788108189842037500,5.04403759765625,4.561999797821045,8.657892227172852,0.5186949968338013
1788108189852125400,5.05412548828125,4.570943832397461,8.65338134765625,0.5152469873428345
1788108189862216700,5.064216796875,4.5800862312316895,8.648635864257812,0.5137410163879395
1788108189872309500,5.0743095703125,4.593800067901611,8.64130687713623,0.5145900249481201
1788108189882404600,5.084404541015625,4.615285873413086,8.629613876342773,0.5185670256614685
1788108189892493300,5.094493408203125,4.643929958343506,8.613961219787598,0.5230969786643982
1788108189902581500,5.10458154296875,4.6732940673828125,8.597944259643555,0.5250849723815918
1788108189912674800,5.1146748046875,4.698090076446533,8.58461856842041,0.5218049883842468
1788108189922763000,5.124762939453125,4.71593713760376,8.575326919555664,0.5135660171508789
1788108189932848600,5.1348486328125,4.729551792144775,8.568477630615234,0.5025129914283752
1788108189942942200,5.144942138671875,4.741921901702881,8.56233024597168,0.490572988986969
1788108189953025300,5.155025390625,4.75452184677124,8.555944442749023,0.4799259901046753
1788108189963111200,5.165111083984375,4.7661848068237305,8.550037384033203,0.4694179892539978
1788108189973202400,5.175202392578125,4.774306774139404,8.546154022216797,0.45738598704338074
1788108189983299300,5.18529931640625,4.776910781860352,8.545536994934082,0.44148001074790955
1788108189993386500,5.195386474609375,4.773445129394531,8.548436164855957,0.42247501015663147
1788108190003484400,5.205484375,4.766592979431152,8.553149223327637,0.40404099225997925
1788108190013577200,5.2155771484375,4.758586883544922,8.558359146118164,0.3877609968185425
1788108190023691300,5.225691162109375,4.751862049102783,8.562667846679688,0.37487900257110596
1788108190033782500,5.235782470703125,4.7479939460754395,8.565187454223633,0.3662340044975281
1788108190043889200,5.24588916015625,4.744872093200684,8.56722640991211,0.3589690029621124
1788108190053977900,5.255977783203125,4.738853931427002,8.570938110351562,0.3497520089149475
1788108190064065300,5.266065185546875,4.729376792907715,8.5766019821167,0.3389819860458374
1788108190074151000,5.27615087890625,4.71884822845459,8.582796096801758,0.32874301075935364
1788108190084243000,5.286242919921875,4.709924221038818,8.58803653717041,0.3197369873523712
1788108190094324500,5.296324462890625,4.702889919281006,8.592134475708008,0.3131699860095978
1788108190104418600,5.30641845703125,4.697566986083984,8.595199584960938,0.30888500809669495
1788108190114511000,5.316510986328125,4.693544864654541,8.597516059875488,0.30555400252342224
1788108190124609500,5.326609619140625,4.690080165863037,8.59957218170166,0.30086401104927063
1788108190134702300,5.336702392578125,4.687737941741943,8.601072311401367,0.29434600472450256
1788108190144797400,5.34679736328125,4.688701152801514,8.600773811340332,0.2876879870891571
1788108190154882000,5.356882080078125,4.692969799041748,8.598681449890137,0.28053799271583557
1788108190164986000,5.366986083984375,4.695932865142822,8.597419738769531,0.2694160044193268
1788108190175078400,5.377078369140625,4.691858768463135,8.60022258758545,0.2502700090408325
1788108190185174300,5.38717431640625,4.6786627769470215,8.608071327209473,0.22629599273204803
1788108190195261200,5.39726123046875,4.660987854003906,8.618183135986328,0.2052289992570877
1788108190205357300,5.407357421875,4.64608907699585,8.626596450805664,0.18905800580978394
1788108190215449000,5.417448974609375,4.639523983001709,8.63036060333252,0.1781720072031021
1788108190225551000,5.427551025390625,4.642796039581299,8.628694534301758,0.17343099415302277
1788108190235639000,5.43763916015625,4.654689788818359,8.622308731079102,0.17221799492835999
1788108190245737700,5.44773779296875,4.671329975128174,8.61336612701416,0.16913899779319763
1788108190255830000,5.457830078125,4.686479091644287,8.605324745178223,0.1590850055217743
1788108190265920300,5.467920166015625,4.696893215179443,8.59994125366211,0.142085999250412
1788108190276007200,5.478007080078125,4.702960014343262,8.596908569335938,0.12385199964046478
1788108190286094300,5.48809423828125,4.709269046783447,8.593660354614258,0.1085669994354248
1788108190296177700,5.498177734375,4.719908237457275,8.587944030761719,0.0983709990978241
1788108190306268400,5.508268310546875,4.735898017883301,8.579190254211426,0.09370999783277512
1788108190316355800,5.51835595703125,4.756324768066406,8.567880630493164,0.09374299645423889
1788108190326451700,5.52845166015625,4.77987003326416,8.554741859436035,0.09619999676942825
1788108190336546300,5.53854638671875,4.804137229919434,8.541139602661133,0.09601700305938721
1788108190346641000,5.548640869140625,4.827326774597168,8.52810001373291,0.09176400303840637
1788108190356726000,5.55872607421875,4.848450183868408,8.516200065612793,0.08296100050210953
1788108190366825200,5.5688251953125,4.868216037750244,8.505029678344727,0.0706000030040741
1788108190376919000,5.5789189453125,4.886261940002441,8.49477481842041,0.056922998279333115
1788108190387006000,5.589005859375,4.900389194488525,8.48670768737793,0.04450099915266037
1788108190397099000,5.59909912109375,4.9132161140441895,8.479333877563477,0.03466999903321266
1788108190407186000,5.60918603515625,4.929720878601074,8.46976375579834,0.03080499917268753
1788108190417280300,5.6192802734375,4.953211784362793,8.456040382385254,0.03280999884009361
1788108190427371500,5.62937158203125,4.981586933135986,8.43934440612793,0.03550200164318085
1788108190437462000,5.6394619140625,5.009078025817871,8.423062324523926,0.03330099955201149
1788108190447553800,5.6495537109375,5.0299201011657715,8.410672187805176,0.021880000829696655
1788108190457644500,5.65964453125,5.039852142333984,8.404754638671875,-0.001693999976851046
1788108190467728100,5.66972802734375,5.037308216094971,8.406194686889648,-0.0376180000603199
1788108190477825300,5.6798251953125,5.025609016418457,8.412906646728516,-0.07894700020551682
1788108190487925000,5.689925048828125,5.009444236755371,8.422078132629395,-0.11837200075387955
1788108190498015200,5.70001513671875,4.99280309677124,8.431452751159668,-0.15004999935626984
1788108190508113400,5.710113525390625,4.975647926330566,8.441192626953125,-0.17072099447250366
1788108190518211300,5.72021142578125,4.958179950714111,8.451278686523438,-0.1797890067100525
1788108190528307000,5.730306884765625,4.942798137664795,8.460330963134766,-0.17756299674510956
1788108190538400500,5.740400390625,4.935774803161621,8.464705467224121,-0.16393700242042542
1788108190548502300,5.750502197265625,4.94053316116333,8.462292671203613,-0.14398999512195587
1788108190558600000,5.760599853515625,4.956234931945801,8.453392028808594,-0.12629400193691254
1788108190568680700,5.7706806640625,4.980754852294922,8.439105033874512,-0.11643200367689133
1788108190578770400,5.7807705078125,5.007643222808838,8.423152923583984,-0.11836499720811844
1788108190588865000,5.790864990234375,5.029642105102539,8.409786224365234,-0.134893000125885
1788108190598959400,5.80095947265625,5.03805685043335,8.404221534729004,-0.16440199315547943
1788108190609042000,5.8110419921875,5.031243801116943,8.407605171203613,-0.1969829946756363
1788108190619133700,5.8211337890625,5.016487121582031,8.415828704833984,-0.22064700722694397
1788108190629218800,5.83121875,5.0041680335998535,8.422924041748047,-0.22942200303077698
1788108190639312100,5.84131201171875,5.003870964050293,8.423279762268066,-0.22276900708675385
1788108190649414100,5.8514140625,5.016488075256348,8.41615104675293,-0.20799900591373444
1788108190659508200,5.86150830078125,5.033213138580322,8.406431198120117,-0.19677700102329254
1788108190669597700,5.87159765625,5.044328212738037,8.399744033813477,-0.19767700135707855
1788108190679686000,5.881685791015625,5.042435169219971,8.400476455688477,-0.21411100029945374
1788108190689764000,5.89176416015625,5.024900913238525,8.41015338897705,-0.2443380057811737
1788108190699853600,5.901853515625,4.99852180480957,8.424825668334961,-0.2777310013771057
1788108190709933600,5.91193359375,4.972689151763916,8.439178466796875,-0.3043389916419983
1788108190720028000,5.92202783203125,4.955545902252197,8.448831558227539,-0.3159100115299225
1788108190730114300,5.9321142578125,4.954798221588135,8.449562072753906,-0.308010995388031
1788108190740215300,5.94221533203125,4.975335121154785,8.4384183883667,-0.28125301003456116
1788108190750296300,5.95229638671875,5.013739109039307,8.416876792907715,-0.24212099611759186
1788108190760395300,5.962395263671875,5.059453010559082,8.39051628112793,-0.20306800305843353
1788108190770478800,5.972478759765625,5.098443984985352,8.367521286010742,-0.1743919998407364
1788108190780575500,5.982575439453125,5.119734764099121,8.354745864868164,-0.1628970056772232
1788108190790665200,5.992665283203125,5.1216912269592285,8.353498458862305,-0.16531500220298767
1788108190800756700,6.0027568359375,5.111614227294922,8.35952377319336,-0.1724800020456314
1788108190810836500,6.01283642578125,5.099358081817627,8.366972923278809,-0.17413100600242615
1788108190820939000,6.02293896484375,5.090641021728516,8.372467041015625,-0.1648080050945282
1788108190831027500,6.03302734375,5.088805198669434,8.373987197875977,-0.1426839977502823
1788108190841115400,6.043115478515625,5.097179889678955,8.36941909790039,-0.10763800144195557
1788108190851210000,6.0532099609375,5.113249778747559,8.36003589630127,-0.06705600023269653
1788108190861310500,6.063310546875,5.130716800689697,8.349539756774902,-0.03039100021123886
1788108190871400700,6.073400634765625,5.145595073699951,8.340435028076172,-0.0029009999707341194
1788108190881497000,6.0834970703125,5.158225059509277,8.332613945007324,0.016101999208331108
1788108190891584000,6.093583984375,5.1693902015686035,8.325660705566406,0.02769399993121624
1788108190901678800,6.103678955078125,5.179542064666748,8.319332122802734,0.03243499994277954
1788108190911760000,6.113759765625,5.189054012298584,8.313407897949219,0.030849000439047813
1788108190921860000,6.123860107421875,5.198615074157715,8.30744743347168,0.027310999110341072
1788108190931957800,6.133957763671875,5.20864200592041,8.301166534423828,0.025585999712347984
1788108190942046000,6.1440458984375,5.220063209533691,8.293985366821289,0.027389999479055405
1788108190952144000,6.154143798828125,5.2342729568481445,8.28499698638916,0.034345999360084534
1788108190962236400,6.164236328125,5.251739025115967,8.273873329162598,0.04747699946165085
1788108190972333300,6.174333251953125,5.271381855010986,8.26126480102539,0.06345599889755249
1788108190982419200,6.184419189453125,5.292038917541504,8.247899055480957,0.08051099628210068
1788108190992509700,6.194509765625,5.312338829040527,8.234674453735352,0.09598500281572342
1788108191002601700,6.204601806640625,5.331982135772705,8.22181510925293,0.10822100192308426
1788108191012695300,6.2146953125,5.35103178024292,8.209309577941895,0.11690700054168701
1788108191022783000,6.224782958984375,5.370919227600098,8.196215629577637,0.12362000346183777
1788108191032879600,6.234879638671875,5.391514778137207,8.182598114013672,0.1292160004377365
1788108191042969000,6.244968994140625,5.4108710289001465,8.169739723205566,0.1334259957075119
1788108191053056500,6.255056396484375,5.428325176239014,8.158117294311523,0.13575799763202667
1788108191063143400,6.265143310546875,5.443784236907959,8.147804260253906,0.13601599633693695
1788108191073232100,6.275232177734375,5.458057880401611,8.138291358947754,0.13346900045871735
1788108191083321600,6.285321533203125,5.468966960906982,8.131064414978027,0.127360999584198
1788108191093415700,6.295415771484375,5.471523761749268,8.129514694213867,0.11574599891901016
1788108191103505200,6.305505126953125,5.465717792510986,8.133637428283691,0.09938699752092361
1788108191113602300,6.315602294921875,5.455109119415283,8.140953063964844,0.08173000067472458
1788108191123692800,6.32569287109375,5.443879127502441,8.148614883422852,0.0654740035533905
1788108191133779500,6.335779541015625,5.432074069976807,8.156595230102539,0.0505950003862381
1788108191143875300,6.345875244140625,5.417391777038574,8.166426658630371,0.03654799982905388
1788108191153962000,6.3559619140625,5.398210048675537,8.179168701171875,0.023063000291585922
1788108191164057300,6.366057373046875,5.374165058135986,8.195013046264648,0.009429999627172947
1788108191174144500,6.37614453125,5.345242977142334,8.213912963867188,-0.004933999851346016
1788108191184223700,6.3862236328125,5.313834190368652,8.234251976013184,-0.016560999676585197
1788108191194306800,6.396306884765625,5.280929088592529,8.255379676818848,-0.02226799912750721
1788108191204405500,6.406405517578125,5.249642848968506,8.275318145751953,-0.019523000344634056
1788108191214493000,6.416492919921875,5.220977783203125,8.293453216552734,-0.008596000261604786
1788108191224599800,6.426599853515625,5.19575309753418,8.309279441833496,0.007321000099182129
1788108191234690600,6.436690673828125,5.171910762786865,8.324109077453613,0.023469999432563782
1788108191244781600,6.446781494140625,5.149425029754639,8.337990760803223,0.03674900159239769
1788108191254865000,6.456864990234375,5.1294660568237305,8.350242614746094,0.04498700052499771
1788108191264966000,6.4669658203125,5.114984035491943,8.359112739562988,0.04598800092935562
1788108191275053000,6.477052978515625,5.105784893035889,8.364782333374023,0.03724600002169609
1788108191285149400,6.4871494140625,5.097123146057129,8.370124816894531,0.01957700029015541
1788108191295240000,6.497239990234375,5.084640026092529,8.377734184265137,-0.0043299999088048935
1788108191305340700,6.507340576171875,5.068759918212891,8.38730239868164,-0.029451999813318253
1788108191315429000,6.51742919921875,5.053442001342773,8.396434783935547,-0.05113900080323219
1788108191325531400,6.527531494140625,5.039031982421875,8.404974937438965,-0.06727299839258194
1788108191335615200,6.537615234375,5.025394916534424,8.41305160522461,-0.07739000022411346
1788108191345691100,6.547691162109375,5.0128397941589355,8.420487403869629,-0.08271799981594086
1788108191355776500,6.557776611328125,5.0004401206970215,8.427818298339844,-0.0866129994392395
1788108191365874400,6.56787451171875,4.9870219230651855,8.435710906982422,-0.0915440022945404
1788108191375957200,6.577957275390625,4.970983028411865,8.445093154907227,-0.09873499721288681
1788108191386050300,6.58805029296875,4.951559066772461,8.456393241882324,-0.10714499652385712
1788108191396140300,6.598140380859375,4.930566787719727,8.468552589416504,-0.11436700075864792
1788108191406232800,6.60823291015625,4.910863876342773,8.47995376586914,-0.117296002805233
1788108191416327200,6.6183271484375,4.89572286605835,8.48874568939209,-0.11442700028419495
1788108191426422800,6.6284228515625,4.886157035827637,8.494346618652344,-0.10725899785757065
1788108191436513800,6.638513671875,4.880472183227539,8.49771785736084,-0.09874600172042847
1788108191446612200,6.6486123046875,4.874973773956299,8.500956535339355,-0.09147299826145172
1788108191456708900,6.658708984375,4.867451190948486,8.505325317382812,-0.08567299693822861
1788108191466806300,6.66880615234375,4.858544826507568,8.510467529296875,-0.08066999912261963
1788108191476904700,6.67890478515625,4.851743221282959,8.514405250549316,-0.07399699836969376
1788108191487000300,6.689000244140625,4.850862979888916,8.515000343322754,-0.06207700073719025
1788108191497094000,6.699093994140625,4.858611106872559,8.510686874389648,-0.04574299976229668
1788108191507182800,6.709182861328125,4.874958038330078,8.501409530639648,-0.02854900062084198
1788108191517280800,6.71928076171875,4.896852970123291,8.488851547241211,-0.015430999919772148
1788108191527373600,6.72937353515625,4.918776035308838,8.476170539855957,-0.013751000165939331
1788108191537472000,6.739471923828125,4.9374799728393555,8.465253829956055,-0.028064999729394913
1788108191547560400,6.749560546875,4.94970703125,8.45794677734375,-0.059571001678705215
1788108191557654300,6.759654296875,4.953187942504883,8.455472946166992,-0.10464899986982346
1788108191567740200,6.769740234375,4.947831153869629,8.4578218460083,-0.15543200075626373
1788108191577834500,6.77983447265625,4.937742233276367,8.462738037109375,-0.2019059956073761
1788108191587929300,6.789929443359375,4.927472114562988,8.467790603637695,-0.23774999380111694
1788108191598027300,6.80002734375,4.919388771057129,8.471837997436523,-0.26000699400901794
1788108191608113700,6.81011376953125,4.913564205169678,8.474953651428223,-0.268435001373291
1788108191618212400,6.82021240234375,4.910676002502441,8.476754188537598,-0.2644299864768982
1788108191628314600,6.830314697265625,4.913519859313965,8.47552490234375,-0.25061100721359253
1788108191638406400,6.840406494140625,4.922424793243408,8.470865249633789,-0.23268499970436096
1788108191648501500,6.85050146484375,4.931849956512451,8.465755462646484,-0.21879200637340546
1788108191658582800,6.860582763671875,4.9345221519470215,8.464305877685547,-0.21449699997901917
1788108191668676900,6.8706767578125,4.92804479598999,8.468008041381836,-0.21736200153827667
1788108191678766000,6.88076611328125,4.914682865142822,8.475573539733887,-0.2248380035161972
1788108191688861400,6.890861328125,4.900253772735596,8.483633995056152,-0.23536799848079681
1788108191698946800,6.90094677734375,4.890589237213135,8.48886775970459,-0.24749800562858582
1788108191709038800,6.911038818359375,4.886098861694336,8.491138458251953,-0.25808098912239075
1788108191719131400,6.92113134765625,4.883519172668457,8.492435455322266,-0.2641119956970215
1788108191729230800,6.93123095703125,4.8785400390625,8.49530029296875,-0.2641110122203827
1788108191739320000,6.941320068359375,4.872191905975342,8.499216079711914,-0.2551400065422058
1788108191749410800,6.951410888671875,4.868178844451904,8.50206470489502,-0.23613500595092773
1788108191759498200,6.961498291015625,4.869089126586914,8.502237319946289,-0.20957300066947937
1788108191769588700,6.971588623046875,4.875953197479248,8.498979568481445,-0.18005500733852386
1788108191779673900,6.981673828125,4.886556148529053,8.493387222290039,-0.1548279970884323
1788108191789764400,6.991764404296875,4.897170066833496,8.487486839294434,-0.1424349993467331
1788108191799851500,7.0018515625,4.9022979736328125,8.484384536743164,-0.15053999423980713
1788108191809941500,7.01194140625,4.898533821105957,8.486040115356445,-0.1774750053882599
1788108191820027100,7.022027099609375,4.884518146514893,8.493128776550293,-0.2195490002632141
1788108191830121200,7.032121337890625,4.862959861755371,8.504068374633789,-0.26927199959754944
1788108191840205600,7.04220556640625,4.837531089782715,8.516769409179688,-0.3208850026130676
1788108191850295600,7.052295654296875,4.810448169708252,8.530088424682617,-0.37033599615097046
1788108191860382000,7.0623818359375,4.786341190338135,8.54166316986084,-0.41350099444389343
1788108191870477300,7.072477294921875,4.767360210418701,8.550493240356445,-0.44871100783348083
1788108191880568300,7.082568359375,4.753256797790527,8.556998252868652,-0.47361600399017334
1788108191890669800,7.092669921875,4.74801778793335,8.559344291687012,-0.48369300365448
1788108191900752100,7.102752197265625,4.749664783477783,8.558483123779297,-0.4826950132846832
1788108191910851300,7.112851318359375,4.75764799118042,8.554960250854492,-0.4662669897079468
1788108191920941300,7.12294140625,4.770851135253906,8.548405647277832,-0.4513849914073944
1788108191931036700,7.13303662109375,4.779936790466309,8.544093132019043,-0.43668699264526367
1788108191941123300,7.143123291015625,4.785365104675293,8.541956901550293,-0.4186230003833771
1788108191951215900,7.1532158203125,4.786089897155762,8.542415618896484,-0.40056300163269043
1788108191961308400,7.163308349609375,4.778759956359863,8.54721736907959,-0.38536199927330017
1788108191971402200,7.17340234375,4.7645721435546875,8.55573558807373,-0.3718380033969879
1788108191981494800,7.183494873046875,4.74616003036499,8.566563606262207,-0.3577060103416443
1788108191991594500,7.193594482421875,4.729712963104248,8.576208114624023,-0.34417998790740967
1788108192001687800,7.203687744140625,4.716887950897217,8.583721160888672,-0.33271700143814087
1788108192011780000,7.213780029296875,4.706019878387451,8.59000015258789,-0.3245159983634949
1788108192021874400,7.22387451171875,4.696234226226807,8.595515251159668,-0.3201729953289032
1788108192031969300,7.23396923828125,4.687358856201172,8.600381851196289,-0.31954801082611084
1788108192042066200,7.244066162109375,4.68119478225708,8.603606224060059,-0.3230139911174774
1788108192052158500,7.254158447265625,4.68026876449585,8.603907585144043,-0.32843199372291565
1788108192062255900,7.264255859375,4.684661865234375,8.601297378540039,-0.33411499857902527
1788108192072347000,7.274346923828125,4.6931891441345215,8.596484184265137,-0.33831098675727844
1788108192082442500,7.2844423828125,4.704710960388184,8.59012508392334,-0.33974701166152954
1788108192092579600,7.29457958984375,4.718654155731201,8.582547187805176,-0.33789798617362976
1788108192102670600,7.304670654296875,4.734846115112305,8.573760986328125,-0.3343850076198578
1788108192112762600,7.3147626953125,4.750123023986816,8.565608978271484,-0.32660800218582153
1788108192122844700,7.3248447265625,4.764923095703125,8.557750701904297,-0.3168030083179474
1788108192132940800,7.33494091796875,4.782905101776123,8.548259735107422,-0.3017309904098511
1788108192143022300,7.345022216796875,4.813069820404053,8.531373023986816,-0.3001289963722229
1788108192153113600,7.355113525390625,4.828265190124512,8.522863388061523,-0.29772400856018066
1788108192163200800,7.36520068359375,4.833745002746582,8.519776344299316,-0.2972080111503601
1788108192173279700,7.37527978515625,4.8377909660339355,8.51759147644043,-0.2940090000629425
1788108192183373300,7.385373291015625,4.84404993057251,8.514250755310059,-0.28762298822402954
1788108192193459000,7.395458984375,4.851565837860107,8.510234832763672,-0.27965599298477173
1788108192203555800,7.405555908203125,4.857931137084961,8.506882667541504,-0.27090999484062195
1788108192213646800,7.415646728515625,4.863303184509277,8.504059791564941,-0.2630940079689026
1788108192223738400,7.42573828125,4.869600772857666,8.500629425048828,-0.2573620080947876
1788108192233831200,7.4358310546875,4.877754211425781,8.496100425720215,-0.2526549994945526
1788108192243923700,7.445923828125,4.888605117797852,8.489994049072266,-0.24803100526332855
1788108192254021600,7.456021728515625,4.902544975280762,8.482104301452637,-0.24292300641536713
1788108192264105500,7.46610546875,4.9195637702941895,8.472403526306152,-0.23732900619506836
1788108192274194200,7.476194091796875,4.938747882843018,8.461382865905762,-0.2319989949464798
1788108192284285400,7.486285400390625,4.95663595199585,8.451045036315918,-0.2271759957075119
1788108192294365000,7.496364990234375,4.970025062561035,8.44327163696289,-0.22360700368881226
1788108192304456700,7.506456787109375,4.978672027587891,8.438243865966797,-0.22109299898147583
1788108192314547200,7.516547119140625,4.984953880310059,8.434592247009277,-0.21883299946784973
1788108192324641300,7.526641357421875,4.991123199462891,8.430978775024414,-0.2174379974603653
1788108192334742500,7.536742431640625,4.995995998382568,8.4280366897583,-0.21963900327682495
1788108192344842800,7.5468427734375,4.99331521987915,8.429533958435059,-0.22300399839878082
1788108192354932200,7.55693212890625,4.982912063598633,8.435539245605469,-0.2286510020494461
1788108192365031000,7.567031005859375,4.964266777038574,8.446231842041016,-0.23917900025844574
1788108192375126500,7.57712646484375,4.942656993865967,8.458680152893066,-0.24664700031280518
1788108192385222000,7.587221923828125,4.922985076904297,8.470113754272461,-0.2477390021085739
1788108192395307300,7.597307373046875,4.908158779144287,8.478904724121094,-0.24119700491428375
1788108192405409000,7.607408935546875,4.896659851074219,8.485827445983887,-0.23120099306106567
1788108192415502600,7.617502685546875,4.885781764984131,8.492319107055664,-0.22279499471187592
1788108192425596000,7.627595947265625,4.873878002166748,8.499232292175293,-0.21999000012874603
1788108192435675600,7.637675537109375,4.859714984893799,8.507265090942383,-0.22279100120067596
1788108192445772300,7.647772216796875,4.843934059143066,8.516097068786621,-0.22888100147247314
1788108192455867400,7.657867431640625,4.828506946563721,8.524699211120605,-0.2345370054244995
1788108192465957000,7.66795703125,4.815789222717285,8.53182315826416,-0.23702199757099152
1788108192476046800,7.678046875,4.806623935699463,8.536985397338867,-0.2371309995651245
1788108192486137300,7.688137451171875,4.801554203033447,8.539902687072754,-0.23479700088500977
1788108192496229400,7.6982294921875,4.7979230880737305,8.542049407958984,-0.23083700239658356
1788108192506318000,7.708318115234375,4.799734115600586,8.541312217712402,-0.22044500708580017
1788108192516406000,7.718406005859375,4.808709144592285,8.536587715148926,-0.20735900104045868
1788108192526503200,7.728503173828125,4.826169013977051,8.527113914489746,-0.19072100520133972
1788108192536596700,7.7385966796875,4.84761381149292,8.515312194824219,-0.17344200611114502
1788108192546702800,7.748702880859375,4.864398956298828,8.505943298339844,-0.16293500363826752
1788108192556805000,7.75880517578125,4.876314163208008,8.499358177185059,-0.14983899891376495
1788108192566900000,7.76889990234375,4.872679233551025,8.501582145690918,-0.14167900383472443
1788108192576992500,7.778992431640625,4.860897064208984,8.508410453796387,-0.13656599819660187
1788108192587082500,7.78908251953125,4.852931976318359,8.51308822631836,-0.12790100276470184
1788108192597174800,7.7991748046875,4.8485212326049805,8.515665054321289,-0.12371700257062912
1788108192607271200,7.809271240234375,4.848674774169922,8.515562057495117,-0.12456700205802917
1788108192617370600,7.81937060546875,4.848147869110107,8.515716552734375,-0.13440799713134766
1788108192627460400,7.82946044921875,4.839910984039307,8.519901275634766,-0.1628119945526123
1788108192637554000,7.839553955078125,4.819225788116455,8.530987739562988,-0.19302700459957123
1788108192647642000,7.84964208984375,4.788087844848633,8.547449111938477,-0.2352990061044693
1788108192657723000,7.859722900390625,4.750426769256592,8.567424774169922,-0.2696320116519928
1788108192667816700,7.869816650390625,4.712769985198975,8.587244987487793,-0.2982810139656067
1788108192677911000,7.8799111328125,4.683291912078857,8.602578163146973,-0.3199630081653595
1788108192688004400,7.89000439453125,4.669057846069336,8.609896659851074,-0.3309729993343353
1788108192698101000,7.90010107421875,4.672242164611816,8.608187675476074,-0.33052799105644226
1788108192708200700,7.91020068359375,4.692317008972168,8.597617149353027,-0.32118600606918335
1788108192718298000,7.920298095703125,4.719216823577881,8.583172798156738,-0.3133000135421753
1788108192728393700,7.930393798828125,4.75213623046875,8.56532096862793,-0.30414000153541565
1788108192738494000,7.940493896484375,4.795907020568848,8.54133415222168,-0.29146701097488403
1788108192748590000,7.950590087890625,4.851366996765137,8.510319709777832,-0.2805730104446411
1788108192758684700,7.9606845703125,4.913547039031982,8.474641799926758,-0.27837198972702026
1788108192768765000,7.970764892578125,4.9729509353637695,8.4395170211792,-0.2904239892959595
1788108192778857000,7.98085693359375,5.021007061004639,8.40993881225586,-0.3200269937515259
1788108192788947500,7.990947509765625,5.051693916320801,8.389388084411621,-0.37224701046943665
1788108192799034400,8.001034423828125,5.059821128845215,8.381068229675293,-0.4426310062408447
1788108192809119700,8.01111962890625,5.041883945465088,8.386981010437012,-0.5272589921951294
1788108192819209500,8.02120947265625,4.998324871063232,8.406587600708008,-0.6213290095329285
1788108192829291500,8.03129150390625,4.934061050415039,8.43696403503418,-0.716031014919281
1788108192839383800,8.0413837890625,4.86375093460083,8.470244407653809,-0.7993040084838867
1788108192849468200,8.05146826171875,4.802513122558594,8.498701095581055,-0.8648459911346436
1788108192859559400,8.061559326171874,4.7616801261901855,8.516790390014648,-0.9114590287208557
1788108192869644800,8.071644775390626,4.745038032531738,8.522736549377441,-0.9421089887619019
1788108192879735800,8.08173583984375,4.7481369972229,8.519193649291992,-0.9583950042724609
1788108192889823000,8.091822998046876,4.759612083435059,8.51228141784668,-0.9628900289535522
1788108192899914500,8.10191455078125,4.767764091491699,8.508539199829102,-0.9556030035018921
1788108192909990400,8.111990478515626,4.766753196716309,8.510858535766602,-0.9398540258407593
1788108192920091400,8.12209130859375,4.757743835449219,8.518204689025879,-0.91873699426651
1788108192930172400,8.13217236328125,4.751460075378418,8.524297714233398,-0.8944029808044434
1788108192940264400,8.142264404296874,4.761855125427246,8.52167797088623,-0.863569974899292
1788108192950344700,8.1523447265625,4.799939155578613,8.503750801086426,-0.8287389874458313
1788108192960445200,8.162445068359375,4.861023902893066,8.472558975219727,-0.7913249731063843
1788108192970528800,8.17252880859375,4.931183815002441,8.434524536132812,-0.7630000114440918
1788108192980625000,8.182625,4.9902567863464355,8.401098251342773,-0.7476199865341187
1788108192990709000,8.192708984375,5.027324199676514,8.379443168640137,-0.7422239780426025
1788108193000804600,8.2028046875,5.044703960418701,8.368876457214355,-0.7435420155525208
1788108193010893600,8.2128935546875,5.044003963470459,8.3685302734375,-0.7521659731864929
1788108193020994000,8.222994140625,5.027442932128906,8.376812934875488,-0.770596981048584
1788108193031112700,8.23311279296875,4.995053768157959,8.39352798461914,-0.7987980246543884
1788108193041211100,8.243211181640625,4.950349807739258,8.41685962677002,-0.8309999704360962
1788108193051299600,8.253299560546875,4.899746894836426,8.443289756774902,-0.8621649742126465
1788108193061389000,8.26338916015625,4.853614807128906,8.467184066772461,-0.8883870244026184
1788108193071483400,8.2734833984375,4.820100784301758,8.484313011169434,-0.9072149991989136
1788108193081580500,8.28358056640625,4.803551197052002,8.492732048034668,-0.9162179827690125
1788108193091664600,8.29366455078125,4.801249980926514,8.493563652038574,-0.920536994934082
1788108193101759500,8.303759521484375,4.805678844451904,8.490961074829102,-0.9214140176773071
1788108193111849000,8.313848876953125,4.80674409866333,8.490126609802246,-0.9235780239105225
1788108193121944800,8.32394482421875,4.798896789550781,8.493928909301758,-0.9293649792671204
1788108193132030200,8.3340302734375,4.782045841217041,8.502779960632324,-0.9352949857711792
1788108193142120700,8.34412060546875,4.761266231536865,8.514470100402832,-0.9349390268325806
1788108193152209700,8.354209716796875,4.7444071769714355,8.524913787841797,-0.9254350066184998
1788108193162301400,8.364301513671874,4.736509799957275,8.530707359313965,-0.9124280214309692
1788108193172398600,8.374398681640624,4.737401008605957,8.531750679016113,-0.8979139924049377
1788108193182488800,8.38448876953125,4.7427778244018555,8.530407905578613,-0.8821529746055603
1788108193192577300,8.394577392578125,4.752289772033691,8.526805877685547,-0.8656349778175354
1788108193202662700,8.40466259765625,4.762232780456543,8.522806167602539,-0.8502140045166016
1788108193212747300,8.414747314453125,4.767963886260986,8.520503997802734,-0.8411459922790527
1788108193222839000,8.424839111328126,4.764344215393066,8.52263355255127,-0.8400760293006897
1788108193232960500,8.43496044921875,4.750794887542725,8.529844284057617,-0.8436279892921448
1788108193243051300,8.44505126953125,4.732180118560791,8.539682388305664,-0.8486980199813843
1788108193253139700,8.4551396484375,4.716623783111572,8.548184394836426,-0.8497139811515808
1788108193263236900,8.46523681640625,4.709513187408447,8.552566528320312,-0.8450379967689514
1788108193273329700,8.47532958984375,4.710403919219971,8.552905082702637,-0.8366079926490784
1788108193283423700,8.485423828125,4.71401309967041,8.55174446105957,-0.8281149864196777
1788108193293513700,8.495513671875,4.715281963348389,8.551740646362305,-0.8208789825439453
1788108193303613700,8.50561376953125,4.713748931884766,8.552895545959473,-0.8176519870758057
1788108193313716000,8.515716064453125,4.710468769073486,8.554628372192383,-0.8184149861335754
1788108193323807000,8.525806884765625,4.706151962280273,8.556658744812012,-0.8220459818840027
1788108193333902800,8.53590283203125,4.6999430656433105,8.559511184692383,-0.827813982963562
1788108193343996200,8.54599609375,4.692440986633301,8.563199996948242,-0.8322629928588867
1788108193354081800,8.556081787109376,4.68683385848999,8.566267013549805,-0.8322839736938477
1788108193364178000,8.566177978515626,4.6833977699279785,8.568254470825195,-0.8311629891395569
1788108193374280200,8.5762802734375,4.680963039398193,8.569587707519531,-0.831076979637146
1788108193384378600,8.586378662109375,4.677709102630615,8.571172714233398,-0.8330739736557007
1788108193394478600,8.596478515625,4.675491809844971,8.572196960449219,-0.8350239992141724
1788108193404578000,8.606578125,4.67379093170166,8.572715759277344,-0.8392130136489868
1788108193414683000,8.616682861328124,4.670958995819092,8.574090957641602,-0.8408910036087036
1788108193424784400,8.626784423828125,4.670285224914551,8.574374198913574,-0.8417350053787231
1788108193434882600,8.636882568359376,4.674155235290527,8.572248458862305,-0.8419470191001892
1788108193444974300,8.646974365234374,4.683803081512451,8.56712818145752,-0.8404240012168884
1788108193455060000,8.65706005859375,4.698623180389404,8.559088706970215,-0.8396170139312744
1788108193465145000,8.66714501953125,4.711976051330566,8.55116081237793,-0.8455410003662109
1788108193475241700,8.67724169921875,4.71806001663208,8.546338081359863,-0.8602409958839417
1788108193485329400,8.687329345703125,4.713108062744141,8.546734809875488,-0.8831499814987183
1788108193495428600,8.6974287109375,4.694223880767822,8.554167747497559,-0.911312997341156
1788108193505519000,8.70751904296875,4.663896083831787,8.567632675170898,-0.9400489926338196
1788108193515613700,8.71761376953125,4.629339218139648,8.583849906921387,-0.9626680016517639
1788108193525698300,8.7276982421875,4.600605010986328,8.598320007324219,-0.9712629914283752
1788108193535793400,8.73779345703125,4.58289098739624,8.608109474182129,-0.9682779908180237
1788108193545908700,8.74790869140625,4.573122024536133,8.614204406738281,-0.9602349996566772
1788108193555997700,8.757997802734375,4.561919212341309,8.620843887329102,-0.9538959860801697
1788108193566087400,8.76808740234375,4.545598030090332,8.629863739013672,-0.9502540230751038
1788108193576182500,8.7781826171875,4.52660608291626,8.640082359313965,-0.9480310082435608
1788108193586264300,8.788264404296875,4.5075860023498535,8.650227546691895,-0.9461460113525391
1788108193596359400,8.798359375,4.487637996673584,8.660571098327637,-0.9463739991188049
1788108193606451700,8.80845166015625,4.463916778564453,8.672584533691406,-0.9485219717025757
1788108193616548900,8.818548828125,4.436316967010498,8.6870756149292,-0.9454330205917358
1788108193626636500,8.828636474609375,4.41084623336792,8.701433181762695,-0.9324510097503662
1788108193636726000,8.83872607421875,4.398523807525635,8.710423469543457,-0.9064109921455383
1788108193646821400,8.8488212890625,4.4112420082092285,8.708197593688965,-0.8650169968605042
1788108193656919300,8.858919189453125,4.4561591148376465,8.690543174743652,-0.8106529712677002
1788108193667006700,8.8690068359375,4.5229949951171875,8.66094970703125,-0.7552610039710999
1788108193677100500,8.8791005859375,4.5928192138671875,8.627594947814941,-0.7145950198173523
1788108193687193600,8.889193603515626,4.645927906036377,8.599984169006348,-0.7040299773216248
1788108193697278000,8.89927783203125,4.6718878746032715,8.583943367004395,-0.7275570034980774
1788108193707381000,8.909381103515624,4.672323226928711,8.579644203186035,-0.7740100026130676
1788108193717473000,8.91947314453125,4.657033920288086,8.58314323425293,-0.8256040215492249
1788108193727568000,8.92956787109375,4.634842872619629,8.59090518951416,-0.8686680197715759
1788108193737650200,8.939650146484375,4.614157199859619,8.599166870117188,-0.8965989947319031
1788108193747739600,8.94973974609375,4.599197864532471,8.605918884277344,-0.9085760116577148
1788108193757836500,8.95983642578125,4.58856201171875,8.611590385437012,-0.9086400270462036
1788108193767934000,8.969933837890625,4.576542854309082,8.618391036987305,-0.9047359824180603
1788108193778025700,8.980025634765624,4.555319786071777,8.629446029663086,-0.9065170288085938
1788108193788121000,8.99012109375,4.519883155822754,8.646868705749512,-0.9178079962730408
1788108193798214100,9.000214111328125,4.474916934967041,8.668861389160156,-0.9305830001831055
1788108193808311600,9.0103115234375,4.431412220001221,8.690937042236328,-0.9328659772872925
1788108193818402300,9.02040234375,4.402469158172607,8.707348823547363,-0.9166949987411499
1788108193828492000,9.030491943359374,4.396284103393555,8.713750839233398,-0.8850190043449402
1788108193838589700,9.040589599609374,4.4065752029418945,8.71203327178955,-0.8500469923019409
1788108193858774000,9.06077392578125,4.437963008880615,8.701716423034668,-0.7903090119361877
1788108193868866600,9.070866455078125,4.461140155792236,8.692944526672363,-0.7556279897689819
1788108193878957000,9.08095703125,4.502902030944824,8.674622535705566,-0.7175269722938538
1788108193889046300,9.09104638671875,4.5583319664001465,8.64795207977295,-0.6888750195503235
1788108193899131000,9.101130859375,4.607454776763916,8.622331619262695,-0.6831960082054138
1788108193909218600,9.111218505859375,4.632801055908203,8.607312202453613,-0.700918972492218
1788108193919304700,9.1213046875,4.632784843444824,8.604670524597168,-0.7327240109443665
1788108193929397000,9.13139697265625,4.616453170776367,8.61034870147705,-0.7682700157165527
1788108193939491800,9.141491943359375,4.5935587882995605,8.619525909423828,-0.8018820285797119
1788108193949583600,9.15158349609375,4.566964149475098,8.63083267211914,-0.8316149711608887
1788108193959673900,9.161673828125,4.535916805267334,8.644903182983398,-0.8550729751586914
1788108193969770800,9.171770751953124,4.5032172203063965,8.660735130310059,-0.8675990104675293
1788108193979856000,9.18185595703125,4.472638130187988,8.676624298095703,-0.8670060038566589
1788108193989953500,9.19195361328125,4.447659015655518,8.690993309020996,-0.8514860272407532
1788108194000035300,9.202035400390624,4.4344611167907715,8.700460433959961,-0.8231329917907715
1788108194010133000,9.212133056640624,4.430861949920654,8.705501556396484,-0.7884920239448547
1788108194020212000,9.2222119140625,4.433736801147461,8.707257270812988,-0.75211501121521
1788108194030306800,9.232306884765626,4.439919948577881,8.706762313842773,-0.7206869721412659
1788108194040397800,9.242397705078124,4.449948787689209,8.70375919342041,-0.6946430206298828
1788108194050493400,9.252493408203126,4.4690351486206055,8.695427894592285,-0.6762089729309082
1788108194060578300,9.262578369140625,4.496394157409668,8.681761741638184,-0.670403003692627
1788108194070682600,9.2726826171875,4.520895004272461,8.668431282043457,-0.6780779957771301
1788108194080763400,9.282763427734375,4.524984836578369,8.664310455322266,-0.7030580043792725
1788108194090858000,9.29285791015625,4.506509780883789,8.671929359436035,-0.7273439764976501
1788108194100948500,9.302948486328125,4.47718620300293,8.684586524963379,-0.7568389773368835
1788108194111045400,9.31304541015625,4.441891193389893,8.700272560119629,-0.7841489911079407
1788108194121137400,9.323137451171876,4.4119791984558105,8.713123321533203,-0.8099169731140137
1788108194131229400,9.3332294921875,4.389708042144775,8.72217845916748,-0.8331320285797119
1788108194141321000,9.343321044921876,4.356983184814453,8.736761093139648,-0.8518790006637573
1788108194151419400,9.35341943359375,4.324003219604492,8.751493453979492,-0.8685309886932373
1788108194161510700,9.3635107421875,4.300445079803467,8.762060165405273,-0.8789079785346985
1788108194171627800,9.373627685546875,4.285016059875488,8.768257141113281,-0.8923460245132446
1788108194181719800,9.3837197265625,4.2674407958984375,8.775038719177246,-0.9097279906272888
1788108194191816000,9.39381591796875,4.234217166900635,8.790851593017578,-0.9123389720916748
1788108194201901300,9.4039013671875,4.181072235107422,8.816824913024902,-0.9067729711532593
1788108194211997000,9.413996826171875,4.101390838623047,8.85512924194336,-0.8973810076713562
1788108194222088700,9.424088623046876,4.014636039733887,8.896141052246094,-0.8839660286903381
1788108194232178200,9.43417822265625,3.937087059020996,8.932252883911133,-0.8684620261192322
1788108194242270000,9.44427001953125,3.8855159282684326,8.956222534179688,-0.8537110090255737
1788108194252360700,9.454360595703125,3.8761539459228516,8.961560249328613,-0.8401679992675781
1788108194262453500,9.46445361328125,3.913878917694092,8.947304725646973,-0.816897988319397
1788108194272550100,9.474550048828124,3.980604887008667,8.921433448791504,-0.7764300107955933
1788108194282647600,9.4846474609375,4.050634860992432,8.894124031066895,-0.7258989810943604
1788108194292747000,9.4947470703125,4.103550910949707,8.873406410217285,-0.680836021900177
1788108194302830600,9.50483056640625,4.132019996643066,8.862750053405762,-0.6466010212898254
1788108194312925700,9.51492578125,4.14116096496582,8.858793258666992,-0.6423069834709167
1788108194323018000,9.52501806640625,4.140800952911377,8.857999801635742,-0.6554149985313416
1788108194333106000,9.53510595703125,4.1451568603515625,8.854851722717285,-0.6702859997749329
1788108194343195400,9.5451953125,4.164374828338623,8.844780921936035,-0.6839860081672668
1788108194353289500,9.55528955078125,4.202345848083496,8.825477600097656,-0.7008730173110962
1788108194363377200,9.565377197265626,4.253040790557861,8.79940414428711,-0.7226269841194153
1788108194373467600,9.575467529296875,4.3097429275512695,8.770648002624512,-0.7361249923706055
1788108194383562000,9.58556201171875,4.366959095001221,8.741869926452637,-0.7411620020866394
1788108194393656000,9.595656005859375,4.4125590324401855,8.718424797058105,-0.7472789883613586
1788108194403746600,9.60574658203125,4.452661037445068,8.697457313537598,-0.7537109851837158
1788108194413833700,9.615833740234375,4.489535808563232,8.677964210510254,-0.7596079707145691
1788108194423929900,9.625929931640625,4.5399298667907715,8.651471138000488,-0.7622929811477661
1788108194434013700,9.636013671875,4.592666149139404,8.624220848083496,-0.7551190257072449
1788108194444106500,9.6461064453125,4.6483869552612305,8.59633731842041,-0.7317550182342529
1788108194454187000,9.65618701171875,4.709925174713135,8.566612243652344,-0.6853939890861511
1788108194464277200,9.66627734375,4.778451919555664,8.534102439880371,-0.6128129959106445
1788108194474361300,9.676361328125,4.843992233276367,8.503250122070312,-0.5200849771499634
1788108194484446500,9.686446533203124,4.900341987609863,8.476511001586914,-0.41881200671195984
1788108194494536200,9.6965361328125,4.938949108123779,8.458148956298828,-0.3262690007686615
1788108194504636200,9.70663623046875,4.960575103759766,8.448349952697754,-0.24100099503993988
1788108194514722800,9.716722900390625,4.966142177581787,8.44691276550293,-0.16467900574207306
1788108194524813600,9.7268134765625,4.959293842315674,8.452059745788574,-0.09004899859428406
1788108194534908400,9.736908447265625,4.946448802947998,8.460040092468262,-0.019114000722765923
1788108194545008000,9.747008056640626,4.92888879776001,8.470161437988281,0.04901900142431259
1788108194555099400,9.757099365234374,4.913291931152344,8.478532791137695,0.11855000257492065
1788108194565191000,9.76719091796875,4.908133029937744,8.48026180267334,0.18802599608898163
1788108194575283700,9.77728369140625,4.923337936401367,8.469633102416992,0.2570219933986664
1788108194585380900,9.787380859375,4.9547200202941895,8.448966979980469,0.32517901062965393
1788108194595472100,9.79747216796875,4.987794876098633,8.427343368530273,0.376554012298584
1788108194605570300,9.8075703125,5.006968021392822,8.414902687072754,0.3995459973812103
1788108194615660800,9.817660888671876,5.002124786376953,8.418006896972656,0.3948329985141754
1788108194625759700,9.827759765625,4.970442771911621,8.438220977783203,0.3621309995651245
1788108194635853600,9.837853515625,4.9200029373168945,8.469267845153809,0.324196994304657
1788108194645948000,9.847947998046875,4.86561918258667,8.501273155212402,0.30680298805236816
1788108194656039000,9.858038818359375,4.824596881866455,8.524117469787598,0.32047998905181885
1788108194666134800,9.868134765625,4.7943878173828125,8.54001235961914,0.3493640124797821
1788108194676221000,9.878220947265625,4.762042999267578,8.556658744812012,0.38273099064826965
1788108194686318300,9.888318359375,4.721286773681641,8.577484130859375,0.41976600885391235
1788108194696412400,9.898412353515624,4.682705879211426,8.596908569335938,0.4533109962940216
1788108194706510600,9.908510498046875,4.653585910797119,8.611276626586914,0.47964799404144287
1788108194716601300,9.918601318359375,4.658714771270752,8.607284545898438,0.5010200142860413
1788108194726698800,9.92869873046875,4.6886749267578125,8.589417457580566,0.5274789929389954
1788108194736794000,9.938794189453125,4.736405849456787,8.560362815856934,0.5715050101280212
1788108194746888400,9.948888427734374,4.800943851470947,8.520857810974121,0.6212520003318787
1788108194756971800,9.9589716796875,4.875051975250244,8.475689888000488,0.6607270240783691
1788108194767057400,9.969057373046875,4.953884124755859,8.428313255310059,0.6801480054855347
1788108194777150000,9.97914990234375,5.034273147583008,8.380622863769531,0.6791409850120544
1788108194787241700,9.98924169921875,5.112778186798096,8.335488319396973,0.6474120020866394
1788108194797340400,9.99934033203125,5.193366050720215,8.289849281311035,0.5893800258636475
1788108194807434000,10.00943408203125,5.2798662185668945,8.239826202392578,0.51801997423172
1788108194817520000,10.01952001953125,5.3682122230529785,8.186453819274902,0.4519500136375427
1788108194827601400,10.029601318359376,5.445295810699463,8.138677597045898,0.38814499974250793
1788108194837701600,10.03970166015625,5.5303778648376465,8.082320213317871,0.3619849979877472
1788108194847798800,10.049798828125,5.599477767944336,8.036331176757812,0.32128798961639404
1788108194857891000,10.05989111328125,5.642190933227539,8.008254051208496,0.27122899889945984
1788108194867985000,10.06998486328125,5.6568779945373535,7.999650001525879,0.21289999783039093
1788108194878080800,10.080080810546875,5.659146785736084,7.999215126037598,0.16307100653648376
1788108194888176000,10.090176025390624,5.6560821533203125,8.001984596252441,0.13012400269508362
1788108194898273000,10.10027294921875,5.644024848937988,8.010812759399414,0.10897599905729294
1788108194908368400,10.110368408203126,5.627324104309082,8.022756576538086,0.09257499873638153
1788108194918465000,10.120465087890626,5.611446857452393,8.034019470214844,0.07898599654436111
1788108194928554200,10.13055419921875,5.60655403137207,8.037520408630371,0.06945899873971939
1788108194938644700,10.140644775390625,5.61402702331543,8.032331466674805,0.06598400324583054
1788108194948721700,10.1507216796875,5.623978137969971,8.0253324508667,0.07005400210618973
1788108194958816000,10.16081591796875,5.622672080993652,8.026176452636719,0.07795699685811996
1788108194968904000,10.170904052734375,5.6034979820251465,8.039473533630371,0.08742699772119522
1788108194978990000,10.180989990234375,5.572725772857666,8.060798645019531,0.0906200036406517
1788108194989079000,10.1910791015625,5.544303894042969,8.08045482635498,0.08329600095748901
1788108194999176400,10.201176513671875,5.532527923583984,8.088669776916504,0.06741800159215927
1788108195009258000,10.211258056640625,5.543259143829346,8.081402778625488,0.05679500102996826
1788108195019350500,10.2213505859375,5.575784206390381,8.058995246887207,0.05713000148534775
1788108195029441300,10.231441162109375,5.611146926879883,8.034320831298828,0.06865900009870529
1788108195039525000,10.241525146484374,5.625495910644531,8.024131774902344,0.08391299843788147
1788108195049612500,10.251612548828126,5.609149932861328,8.035476684570312,0.09250099956989288
1788108195059703300,10.261703369140625,5.566619873046875,8.065086364746094,0.08455400168895721
1788108195069782000,10.271781982421874,5.515232086181641,8.100541114807129,0.05865500122308731
1788108195079879700,10.281879638671874,5.466652870178223,8.133601188659668,0.014139999635517597
1788108195089963800,10.2919638671875,5.421971797943115,8.163396835327148,-0.03516099974513054
1788108195100059100,10.30205908203125,5.383178234100342,8.188763618469238,-0.07432900369167328
1788108195110143200,10.312143310546874,5.3417649269104,8.215519905090332,-0.10369600355625153
1788108195120226000,10.32222607421875,5.29508113861084,8.245488166809082,-0.1185929998755455
1788108195130315500,10.3323154296875,5.246148109436035,8.276691436767578,-0.11986999958753586
1788108195140414000,10.3424140625,5.202837944030762,8.304171562194824,-0.10576000064611435
1788108195150496500,10.35249658203125,5.177526950836182,8.320300102233887,-0.07623700052499771
1788108195160594200,10.36259423828125,5.175116062164307,8.322074890136719,-0.03582200035452843
1788108195170683600,10.37268359375,5.182949066162109,8.317272186279297,0.0026650000363588333
1788108195180771800,10.382771728515625,5.183194160461426,8.31705379486084,0.03335700184106827
1788108195190865000,10.392864990234376,5.165493011474609,8.327961921691895,0.05249200016260147
1788108195200968400,10.402968505859375,5.1364312171936035,8.345807075500488,0.06759999692440033
1788108195211051800,10.4130517578125,5.108640193939209,8.362751007080078,0.07898599654436111
1788108195221146400,10.423146484375,5.088036060333252,8.375168800354004,0.09183400124311447
1788108195231236600,10.433236572265624,5.0796589851379395,8.380176544189453,0.09867899864912033
1788108195241334300,10.443334228515624,5.083197116851807,8.378010749816895,0.10027600079774857
1788108195251423500,10.453423583984375,5.092548847198486,8.372398376464844,0.09434200078248978
1788108195261521400,10.463521484375,5.099186897277832,8.368470191955566,0.0835300013422966
1788108195271614700,10.47361474609375,5.100680828094482,8.367703437805176,0.06763400137424469
1788108195281714200,10.483714111328124,5.096571922302246,8.370339393615723,0.04846800118684769
1788108195291811600,10.4938115234375,5.086684226989746,8.376449584960938,0.02651599980890751
1788108195301908200,10.503908203125,5.07102108001709,8.385986328125,0.005537000019103289
1788108195311999000,10.5139990234375,5.052370071411133,8.39722728729248,-0.01050500012934208
1788108195322092000,10.524092041015624,5.035103797912598,8.40756893157959,-0.022275999188423157
1788108195332179500,10.534179443359376,5.028698921203613,8.411375045776367,-0.030525999143719673
1788108195342269700,10.544269775390624,5.03683614730835,8.406490325927734,-0.03508099913597107
1788108195352342300,10.55434228515625,5.059665203094482,8.392742156982422,-0.04116300120949745
1788108195362436400,10.564436279296874,5.103115081787109,8.366368293762207,-0.04595400020480156
1788108195372526300,10.5745263671875,5.1595659255981445,8.331646919250488,-0.050446998327970505
1788108195382616000,10.584615966796875,5.225164890289307,8.290667533874512,-0.049970999360084534
1788108195392710400,10.59471044921875,5.292466163635254,8.247913360595703,-0.04112600162625313
1788108195402801000,10.60480078125,5.355519771575928,8.207164764404297,-0.02868499979376793
1788108195412892000,10.614891845703125,5.407479763031006,8.173053741455078,-0.017771000042557716
1788108195422977000,10.62497705078125,5.446059226989746,8.147409439086914,-0.011219000443816185
1788108195433074000,10.635073974609375,5.476952075958252,8.12668228149414,-0.008410000242292881
1788108195443164000,10.645163818359375,5.506270885467529,8.106844902038574,-0.004069000016897917
1788108195453249000,10.6552490234375,5.534809112548828,8.087388038635254,0.006157000083476305
1788108195463337200,10.665337158203124,5.556107997894287,8.07275104522705,0.017666000872850418
1788108195473429000,10.675428955078125,5.562077045440674,8.068614959716797,0.027427000924944878
1788108195483519200,10.685519287109376,5.554172992706299,8.074024200439453,0.0363599993288517
1788108195493606700,10.695606689453125,5.541914939880371,8.082375526428223,0.048976998776197433
1788108195503693000,10.705693115234375,5.528862953186035,8.091190338134766,0.06602200120687485
1788108195513774800,10.71577490234375,5.510400772094727,8.103602409362793,0.08433400094509125
1788108195523860700,10.72586083984375,5.485489845275879,8.120308876037598,0.09983400255441666
1788108195533954000,10.7359541015625,5.460113048553467,8.137255668640137,0.11077799648046494
1788108195544048400,10.74604833984375,5.4390950202941895,8.151238441467285,0.1165200024843216
1788108195554132200,10.75613232421875,5.428811073303223,8.158053398132324,0.11918199807405472
1788108195564234000,10.76623388671875,5.433055877685547,8.155207633972168,0.12035000324249268
1788108195574328600,10.77632861328125,5.451716899871826,8.142757415771484,0.11953199654817581
1788108195584415000,10.7864150390625,5.478483200073242,8.124863624572754,0.11320199817419052
1788108195594504400,10.79650439453125,5.5052289962768555,8.106891632080078,0.10353700071573257
1788108195604593700,10.80659375,5.521704196929932,8.095796585083008,0.09412600100040436
1788108195614686000,10.81668603515625,5.5225749015808105,8.095290184020996,0.08607800304889679
1788108195624774100,10.826774169921874,5.503465175628662,8.108358383178711,0.08003199845552444
1788108195634876400,10.83687646484375,5.461627960205078,8.136664390563965,0.07279600203037262
1788108195644973600,10.8469736328125,5.400780200958252,8.177267074584961,0.06199999898672104
1788108195655067000,10.85706689453125,5.328729152679443,8.224478721618652,0.051336999982595444
1788108195665152500,10.867152587890626,5.2606048583984375,8.268256187438965,0.044119998812675476
1788108195675248400,10.877248291015626,5.20258903503418,8.304895401000977,0.041446998715400696
1788108195685339000,10.8873388671875,5.148016929626465,8.338821411132812,0.04473400115966797
1788108195695433700,10.897433837890626,5.090775966644287,8.373825073242188,0.05554499849677086
1788108195705521700,10.907521728515626,5.0322489738464355,8.409000396728516,0.07229699939489365
1788108195715616800,10.91761669921875,4.980852127075195,8.439294815063477,0.09727399796247482
1788108195725692000,10.92769189453125,4.948622226715088,8.45779800415039,0.129613995552063
1788108195735787800,10.937787841796874,4.937539100646973,8.463653564453125,0.16511300206184387
1788108195745887700,10.9478876953125,4.940895080566406,8.460949897766113,0.1996690034866333
1788108195755981600,10.957981689453124,4.945425033569336,8.457596778869629,0.227633997797966
1788108195766068200,10.968068115234376,4.942773818969727,8.458556175231934,0.24857699871063232
1788108195776189700,10.978189697265625,4.935205936431885,8.462501525878906,0.26423001289367676
1788108195786278000,10.98827783203125,4.928938865661621,8.4656400680542,0.28021499514579773
1788108195796367000,10.9983671875,4.932138919830322,8.462956428527832,0.30396801233291626
1788108195806461700,11.008461669921875,4.947669982910156,8.452654838562012,0.3363820016384125
1788108195816553700,11.0185537109375,4.9743452072143555,8.435667991638184,0.36796700954437256
1788108195826655500,11.028655517578125,5.006940841674805,8.41553783416748,0.3863779902458191
1788108195836749800,11.038749755859374,5.038494110107422,8.39677906036377,0.3843269944190979
1788108195846845400,11.048845458984376,5.065031051635742,8.381877899169922,0.35995399951934814
1788108195856939000,11.05893896484375,5.08538818359375,8.371163368225098,0.3201110064983368
1788108195867032600,11.069032470703124,5.099032878875732,8.364274978637695,0.28059500455856323
1788108195877123600,11.07912353515625,5.106870174407959,8.36036491394043,0.2532379925251007
1788108195887214300,11.08921435546875,5.106687068939209,8.360772132873535,0.24339400231838226
1788108195897311700,11.099311767578126,5.096444129943848,8.36680793762207,0.2505689859390259
1788108195907404000,11.109404052734375,5.074330806732178,8.379693031311035,0.26815399527549744
1788108195917495800,11.119495849609375,5.045605182647705,8.396430969238281,0.2860569953918457
1788108195927593500,11.129593505859376,5.0189971923828125,8.41183090209961,0.30115100741386414
1788108195937682700,11.1396826171875,5.004350185394287,8.420097351074219,0.31373998522758484
1788108195947776500,11.149776611328125,5.005886077880859,8.418743133544922,0.3253310024738312
1788108195957872000,11.1598720703125,5.018950939178467,8.410560607910156,0.33546000719070435
1788108195967967700,11.1699677734375,5.033194065093994,8.401904106140137,0.3390370011329651
1788108195978073600,11.180073486328125,5.0430779457092285,8.396106719970703,0.3357580006122589
1788108195988167000,11.1901669921875,5.049295902252197,8.392492294311523,0.33267900347709656
1788108195998260500,11.200260498046875,5.059854984283447,8.386157035827637,0.3320100009441376
1788108196008348400,11.210348388671875,5.081740856170654,8.372892379760742,0.33251601457595825
1788108196028536000,11.2305361328125,5.122562885284424,8.348092079162598,0.32972198724746704
1788108196038617300,11.240617431640626,5.119451999664307,8.350341796875,0.32095199823379517
1788108196048763000,11.250762939453125,5.102919101715088,8.360820770263672,0.311271995306015
1788108196058855200,11.260855224609376,5.078339099884033,8.376053810119629,0.30360499024391174
1788108196068953600,11.27095361328125,5.046717166900635,8.395389556884766,0.29681700468063354
1788108196079040800,11.281040771484374,5.007852077484131,8.418877601623535,0.2896899878978729
1788108196089134800,11.291134765625,4.965764999389648,8.44406509399414,0.2809849977493286
1788108196109312800,11.311312744140626,4.892393112182617,8.487388610839844,0.2621070146560669
1788108196129486000,11.331486083984375,4.838397026062012,8.518671035766602,0.2493710070848465
1788108196139571200,11.3415712890625,4.8207597732543945,8.528885841369629,0.24164600670337677
1788108196149656300,11.35165625,4.808506965637207,8.536026954650879,0.23352700471878052
1788108196159737300,11.3617373046875,4.801562786102295,8.540130615234375,0.2262430042028427
1788108196169834200,11.371834228515626,4.802077770233154,8.540008544921875,0.21988199651241302
1788108196179912700,11.38191259765625,4.811844825744629,8.534674644470215,0.21325600147247314
1788108196190007300,11.39200732421875,4.831026077270508,8.524006843566895,0.2061620056629181
1788108196200094500,11.402094482421875,4.8577117919921875,8.509005546569824,0.19866299629211426
1788108196210194000,11.41219384765625,4.886929988861084,8.492469787597656,0.18945899605751038
1788108196220292900,11.42229296875,4.912055969238281,8.478212356567383,0.17778299748897552
1788108196230390300,11.432390380859376,4.927196025848389,8.469752311706543,0.1613219976425171
1788108196240478000,11.44247802734375,4.926736831665039,8.47038745880127,0.14076100289821625
1788108196250569500,11.452569580078125,4.912259101867676,8.479063034057617,0.12308699637651443
1788108196260661000,11.462660888671875,4.8965559005737305,8.488269805908203,0.11383900046348572
1788108196270754800,11.4727548828125,4.8876447677612305,8.49339771270752,0.11473900079727173
1788108196280833300,11.482833251953124,4.883634090423584,8.495612144470215,0.12120699882507324
1788108196290932700,11.4929326171875,4.875901222229004,8.499940872192383,0.12880900502204895
1788108196301019100,11.50301904296875,4.856571197509766,8.51089096069336,0.13554300367832184
1788108196311110000,11.51310986328125,4.829486846923828,8.526171684265137,0.14290300011634827
1788108196331291000,11.533290771484374,4.779780864715576,8.553916931152344,0.15580199658870697
1788108196341381600,11.543381591796875,4.770824909210205,8.55879020690918,0.16239899396896362
1788108196351479300,11.553479248046875,4.779510974884033,8.553779602050781,0.1705169975757599
1788108196361570300,11.5635703125,4.804491996765137,8.539623260498047,0.17813099920749664
1788108196371666000,11.573666015625,4.8348917961120605,8.522348403930664,0.18274199962615967
1788108196381751300,11.583751220703125,4.855225086212158,8.51077938079834,0.1828410029411316
1788108196391842800,11.5938427734375,4.859656810760498,8.508343696594238,0.17834700644016266
1788108196401945900,11.60394580078125,4.850271224975586,8.513882637023926,0.16933099925518036
1788108196412050400,11.614050537109375,4.832015037536621,8.524496078491211,0.15686699748039246
1788108196422135800,11.6241357421875,4.8067851066589355,8.538989067077637,0.1430329978466034
1788108196432225000,11.63422509765625,4.779317855834961,8.554616928100586,0.12890200316905975
1788108196442309000,11.64430908203125,4.755886077880859,8.567849159240723,0.11616399884223938
1788108196452404200,11.654404296875,4.743452072143555,8.574827194213867,0.10967099666595459
1788108196462484000,11.66448388671875,4.739941120147705,8.576789855957031,0.1079460009932518
1788108196472580600,11.67458056640625,4.737263202667236,8.578293800354004,0.10592799633741379
1788108196482682400,11.684682373046876,4.723763942718506,8.585821151733398,0.09883099794387817
1788108196492765400,11.694765380859375,4.692046165466309,8.603309631347656,0.08826799690723419
1788108196502849000,11.70484912109375,4.645938873291016,8.628398895263672,0.07748399674892426
1788108196512941600,11.714941650390625,4.593340873718262,8.656579971313477,0.06936100125312805
1788108196523041000,11.725041015625,4.542301177978516,8.68350887298584,0.06481199711561203
1788108196533132300,11.73513232421875,4.499660968780518,8.7056884765625,0.06353999674320221
1788108196543219000,11.745218994140625,4.466885089874268,8.722565650939941,0.06181500107049942
1788108196553307000,11.755306884765625,4.4465131759643555,8.733001708984375,0.05667399987578392
1788108196563402200,11.76540234375,4.441154956817627,8.735772132873535,0.049313001334667206
1788108196573490700,11.77549072265625,4.451396942138672,8.730589866638184,0.043296001851558685
1788108196583593500,11.785593505859374,4.473858833312988,8.719114303588867,0.0402350015938282
1788108196593678300,11.79567822265625,4.500205039978027,8.705545425415039,0.040727999061346054
1788108196603763200,11.80576318359375,4.519842147827148,8.695354461669922,0.04291800037026405
1788108196613857800,11.81585791015625,4.525582790374756,8.692349433898926,0.04635399952530861
1788108196623954700,11.82595458984375,4.518578052520752,8.695965766906738,0.051385000348091125
1788108196634042400,11.83604248046875,4.505974769592285,8.702471733093262,0.05631000176072121
1788108196644140000,11.84614013671875,4.494791030883789,8.708210945129395,0.06263899803161621
1788108196654227000,11.85622705078125,4.486724853515625,8.712301254272461,0.07128500193357468
1788108196664319700,11.86631982421875,4.479188919067383,8.716105461120605,0.079926997423172
1788108196674407200,11.8764072265625,4.4683661460876465,8.721609115600586,0.08507300168275833
1788108196684502500,11.88650244140625,4.45138692855835,8.730289459228516,0.0847179964184761
1788108196694595300,11.89659521484375,4.430254936218262,8.741083145141602,0.0795380026102066
1788108196704683800,11.906683837890625,4.413806915283203,8.749465942382812,0.07155600190162659
1788108196714774000,11.91677392578125,4.408236980438232,8.752334594726562,0.06398800015449524
1788108196724875000,11.926875,4.41287088394165,8.750045776367188,0.057071998715400696
1788108196734959000,11.936958984375,4.423254013061523,8.744832992553711,0.052053000777959824
1788108196745057800,11.947057861328124,4.4351019859313965,8.738858222961426,0.047123998403549194
1788108196755149300,11.9571494140625,4.44617223739624,8.73325252532959,0.04321800172328949
1788108196765244200,11.967244140625,4.461851119995117,8.725259780883789,0.04097599908709526
1788108196775328300,11.977328369140626,4.486332893371582,8.712708473205566,0.03916399925947189
1788108196785422600,11.987422607421875,4.522106170654297,8.69420337677002,0.03688500076532364
1788108196795509800,11.997509765625,4.567295074462891,8.670557022094727,0.03503900021314621
1788108196805601300,12.007601318359375,4.61909818649292,8.64306640625,0.037085000425577164
1788108196815688000,12.01768798828125,4.67601203918457,8.612369537353516,0.04461999982595444
1788108196825787000,12.027786865234376,4.732892990112305,8.581160545349121,0.05832900106906891
1788108196835880000,12.0378798828125,4.784698009490967,8.55224323272705,0.07642599940299988
1788108196845964500,12.047964599609376,4.8293890953063965,8.526867866516113,0.09778399765491486
1788108196856054000,12.058053955078124,4.8672637939453125,8.504982948303223,0.12261400371789932
1788108196866145800,12.068145751953125,4.898543834686279,8.486557006835938,0.15057100355625153
1788108196876238600,12.078238525390624,4.917508125305176,8.474987983703613,0.1807350069284439
1788108196886330600,12.08833056640625,4.923479080200195,8.470829010009766,0.21073199808597565
1788108196896429800,12.098429931640625,4.918334007263184,8.473036766052246,0.2400210052728653
1788108196906525700,12.108525634765625,4.907692909240723,8.478288650512695,0.2705639898777008
1788108196916621600,12.11862158203125,4.897129058837891,8.483277320861816,0.3035370111465454
1788108196926703000,12.128703125,4.889716148376465,8.486285209655762,0.33713600039482117
1788108196936802000,12.138802001953126,4.881138801574707,8.490031242370605,0.3658030033111572
1788108196946899200,12.148899169921876,4.865156173706055,8.498308181762695,0.3860819935798645
1788108196957003500,12.15900341796875,4.842217922210693,8.510820388793945,0.3985219895839691
1788108196967096300,12.169096435546875,4.819143772125244,8.523405075073242,0.4091329872608185
1788108196977194200,12.1791943359375,4.804966926574707,8.530604362487793,0.4255160093307495
1788108196987289000,12.1892890625,4.80464506149292,8.529561996459961,0.44936200976371765
1788108196997373700,12.199373779296875,4.8101959228515625,8.524977684020996,0.47617799043655396
1788108197007465700,12.2094658203125,4.8119401931762695,8.522581100463867,0.5008509755134583
1788108197017556500,12.219556396484375,4.801259994506836,8.527562141418457,0.5182589888572693
1788108197027647700,12.229647705078126,4.7788310050964355,8.539608001708984,0.5271120071411133
1788108197037735400,12.2397353515625,4.752377033233643,8.554121017456055,0.5309799909591675
1788108197047832000,12.24983203125,4.729639053344727,8.566612243652344,0.5326390266418457
1788108197057929700,12.2599296875,4.715060234069824,8.574446678161621,0.5357940196990967
1788108197068024300,12.2700244140625,4.7053751945495605,8.579337120056152,0.5425699949264526
1788108197078123300,12.280123291015625,4.694343090057373,8.584778785705566,0.5520089864730835
1788108197088215800,12.2902158203125,4.674694061279297,8.594878196716309,0.5615329742431641
1788108197098306800,12.300306884765625,4.643202781677246,8.611332893371582,0.5705959796905518
1788108197108399900,12.31039990234375,4.606568813323975,8.630367279052734,0.5799090266227722
1788108197118495700,12.320495849609374,4.5722198486328125,8.647926330566406,0.5900959968566895
1788108197128589300,12.33058935546875,4.5402750968933105,8.664093017578125,0.5994849801063538
1788108197138680800,12.340680908203124,4.5030741691589355,8.683002471923828,0.6064580082893372
1788108197148769800,12.350769775390624,4.459578990936279,8.705098152160645,0.6110529899597168
1788108197158858000,12.36085791015625,4.416578769683838,8.726734161376953,0.6147729754447937
1788108197168948700,12.37094873046875,4.3809638023376465,8.744346618652344,0.619288980960846
1788108197179034400,12.381034423828124,4.355305194854736,8.756890296936035,0.6230279803276062
1788108197199207200,12.401207275390625,4.336358070373535,8.766615867614746,0.6184170246124268
1788108197209323300,12.4113232421875,4.3322248458862305,8.769354820251465,0.608476996421814
1788108197219406800,12.42140673828125,4.328155994415283,8.77221393585205,0.5960950255393982
1788108197229494000,12.431493896484374,4.325141906738281,8.774465560913086,0.5847100019454956
1788108197239582500,12.44158251953125,4.322618007659912,8.776355743408203,0.5749430060386658
1788108197249675500,12.451675537109375,4.318033218383789,8.779245376586914,0.5651710033416748
1788108197259757600,12.461757568359374,4.308929920196533,8.784472465515137,0.5533239841461182
1788108197269842700,12.4718427734375,4.297959804534912,8.790653228759766,0.5403249859809875
1788108197279931100,12.48193115234375,4.289048194885254,8.795716285705566,0.5286319851875305
1788108197290021000,12.492021240234376,4.284934997558594,8.798309326171875,0.5187389850616455
1788108197300110000,12.502110107421874,4.287053108215332,8.797752380371094,0.5105980038642883
1788108197310204400,12.512204345703125,4.295123100280762,8.794157028198242,0.5047469735145569
1788108197320292000,12.5222919921875,4.309002876281738,8.787554740905762,0.5013219714164734
1788108197330386000,12.532385986328125,4.327273845672607,8.778721809387207,0.4987269937992096
1788108197340474000,12.54247412109375,4.34839391708374,8.768486022949219,0.49507299065589905
1788108197350571500,12.552571533203125,4.3727569580078125,8.756582260131836,0.49120599031448364
1788108197360657400,12.562657470703124,4.403310775756836,8.741267204284668,0.49103501439094543
1788108197370755000,12.572755126953124,4.4397711753845215,8.722453117370605,0.4972569942474365
1788108197380851500,12.5828515625,4.475694179534912,8.703707695007324,0.5036280155181885
1788108197390953200,12.592953125,4.505480766296387,8.688228607177734,0.5053009986877441
1788108197401035800,12.603035888671876,4.526640892028809,8.677425384521484,0.5018309950828552
1788108197411132000,12.6131318359375,4.542407989501953,8.669482231140137,0.4966149926185608
1788108197421225200,12.62322509765625,4.55632209777832,8.662335395812988,0.4938400089740753
1788108197431323400,12.633323486328125,4.568786144256592,8.655640602111816,0.4961020052433014
1788108197441404400,12.643404296875,4.576883792877197,8.65100383758545,0.5022500157356262
1788108197451499500,12.65349951171875,4.576854228973389,8.650561332702637,0.5101050138473511
1788108197461595100,12.66359521484375,4.569544792175293,8.653947830200195,0.5181049704551697
1788108197471686100,12.67368603515625,4.562478065490723,8.657155990600586,0.5267639756202698
1788108197481776600,12.683776611328126,4.561446189880371,8.657116889953613,0.5362100005149841
1788108197491874600,12.69387451171875,4.565849781036377,8.654234886169434,0.5451850295066833
1788108197501960400,12.70396044921875,4.566670894622803,8.653290748596191,0.5532640218734741
1788108197512062000,12.71406201171875,4.556128025054932,8.6583890914917,0.5603640079498291
1788108197522156300,12.72415625,4.530436038970947,8.671385765075684,0.5676519870758057
1788108197532301600,12.734301513671875,4.490714073181152,8.691447257995605,0.5763850212097168
1788108197542391600,12.7443916015625,4.446335792541504,8.713574409484863,0.5862820148468018
1788108197552482600,12.754482666015624,4.405876159667969,8.733333587646484,0.5975670218467712
1788108197562574000,12.764573974609375,4.371586799621582,8.749700546264648,0.6098769903182983
1788108197572658200,12.774658203125,4.341901779174805,8.763738632202148,0.620278000831604
1788108197582759200,12.78475927734375,4.313500881195068,8.777162551879883,0.628570020198822
1788108197602933500,12.80493359375,4.264331817626953,8.800025939941406,0.6442369818687439
1788108197613021200,12.815021240234374,4.248094081878662,8.807421684265137,0.65037602186203
1788108197623115800,12.82511572265625,4.237192153930664,8.812564849853516,0.6518610119819641
1788108197633197800,12.83519775390625,4.2331719398498535,8.814712524414062,0.648917019367218
1788108197643283000,12.845282958984376,4.238615036010742,8.812296867370605,0.6461899876594543
1788108197653375500,12.85537548828125,4.253283977508545,8.805046081542969,0.6486579775810242
1788108197663462000,12.8654619140625,4.272621154785156,8.795209884643555,0.6549749970436096
1788108197673558800,12.875558837890624,4.2880167961120605,8.787383079528809,0.6593850255012512
1788108197683642000,12.88564208984375,4.289493083953857,8.786628723144531,0.6598749756813049
1788108197693735200,12.895735107421874,4.273046970367432,8.794816970825195,0.6574530005455017
1788108197703828200,12.905828125,4.243141174316406,8.809550285339355,0.6539040207862854
1788108197713924600,12.915924560546875,4.208752155303955,8.826177597045898,0.6518909931182861
1788108197724015600,12.926015625,4.178402900695801,8.840447425842285,0.6538180112838745
1788108197734107600,12.936107666015625,4.154767990112305,8.851049423217773,0.6609330177307129
1788108197744190700,12.946190673828125,4.137087821960449,8.858426094055176,0.6729130148887634
1788108197754277400,12.95627734375,4.12190580368042,8.864483833312988,0.6861649751663208
1788108197764364500,12.966364501953125,4.103639125823975,8.872196197509766,0.6959030032157898
1788108197774464800,12.97646484375,4.081499099731445,8.882223129272461,0.69821697473526
1788108197784551400,12.986551513671875,4.064637184143066,8.890336990356445,0.6932870149612427
1788108197794648300,12.9966484375,4.05923318862915,8.893527030944824,0.6839929819107056
1788108197804740600,13.00674072265625,4.065567970275879,8.891372680664062,0.6742839813232422
1788108197814837500,13.01683740234375,4.078636169433594,8.885955810546875,0.6667180061340332
1788108197824927500,13.026927490234375,4.094998836517334,8.8787841796875,0.6619430184364319
1788108197835029200,13.037029296875,4.113315105438232,8.870508193969727,0.6593279838562012
1788108197845114600,13.047114501953125,4.133302211761475,8.861392974853516,0.6569070219993591
1788108197855207700,13.057207763671874,4.155155181884766,8.85143756866455,0.6532800197601318
1788108197865297700,13.067297607421875,4.176916122436523,8.841615676879883,0.6474400162696838
1788108197875394800,13.077394775390625,4.193306922912598,8.834446907043457,0.6393259763717651
1788108197885489200,13.0874892578125,4.197693824768066,8.833102226257324,0.6290389895439148
1788108197895577600,13.09757763671875,4.185983180999756,8.839433670043945,0.6180490255355835
1788108197905661200,13.1076611328125,4.161156177520752,8.851738929748535,0.6095209717750549
1788108197915759600,13.117759521484375,4.131502151489258,8.865886688232422,0.6056079864501953
1788108197925854000,13.12785400390625,4.104944229125977,8.878035545349121,0.6082149744033813
1788108197935953400,13.137953369140625,4.084265232086182,8.887090682983398,0.6151430010795593
1788108197946036500,13.148036376953126,4.070497035980225,8.893052101135254,0.6202329993247986
1788108197956128800,13.158128662109375,4.0605878829956055,8.897462844848633,0.6219140291213989
1788108197966201300,13.168201416015625,4.053022861480713,8.900989532470703,0.6207979917526245
1788108197976299000,13.178299072265625,4.048445224761963,8.903243064880371,0.6183289885520935
1788108197986384000,13.1883837890625,4.049684047698975,8.902939796447754,0.6145780086517334
1788108197996479200,13.198479248046874,4.057072162628174,8.899802207946777,0.6113190054893494
1788108198006572800,13.20857275390625,4.068532943725586,8.8948392868042,0.6073390245437622
1788108198016666400,13.218666259765625,4.081787109375,8.889199256896973,0.6009680032730103
1788108198026747000,13.228746826171875,4.096333980560303,8.882987976074219,0.593762993812561
1788108198036836600,13.238836669921875,4.1155219078063965,8.874565124511719,0.5870040059089661
1788108198046934800,13.248934814453126,4.14146614074707,8.862810134887695,0.5820950269699097
1788108198057026300,13.2590263671875,4.173745155334473,8.848058700561523,0.5759479999542236
1788108198067114000,13.269114013671874,4.208522796630859,8.832290649414062,0.5647379755973816
1788108198077201000,13.279200927734376,4.237005233764648,8.819867134094238,0.5456240177154541
