time,seconds_elapsed,z,y,x
1788108184916814300,0.118814453125,0.028737500309944153,-0.1247124969959259,-0.07067500054836273
1788108184936991000,0.138990966796875,0.06421250104904175,-0.016087500378489494,-0.18067499995231628
1788108184947080400,0.14908056640625,0.10449999570846558,0.02914999984204769,-0.16238750517368317
1788108184957170400,0.15917041015625,0.1093124970793724,0.05843750014901161,-0.1013374999165535
1788108184977355300,0.179355224609375,0.015262499451637268,0.08291249722242355,0.2237125039100647
1788108184987436000,0.18943603515625,-0.017737500369548798,0.02433750033378601,0.34581249952316284
1788108184997526300,0.1995263671875,0.017737500369548798,-0.05389999970793724,0.369049996137619
1788108185007619800,0.209619873046875,0.08978749811649323,-0.06971249729394913,0.34347498416900635
1788108185017711900,0.2197119140625,0.17407499253749847,-0.007424999959766865,0.3030500113964081
1788108185027797000,0.229796875,0.14354999363422394,0.12086249887943268,0.2457125037908554
1788108185037885200,0.23988525390625,0.10326249897480011,0.22824999690055847,0.16499999165534973
1788108185047985000,0.24998486328125,0.08249999582767487,0.2686749994754791,0.08923749625682831
1788108185058069000,0.260069091796875,0.09102500230073929,0.3137750029563904,0.028187500312924385
1788108185068156000,0.270156005859375,0.09473749995231628,0.38472500443458557,-0.0193875003606081
1788108185078245600,0.28024560546875,0.07150000333786011,0.4470124840736389,-0.037812501192092896
1788108185088338400,0.29033837890625,0.06778749823570251,0.4604874849319458,-0.04633750021457672
1788108185098429200,0.30042919921875,0.11426249891519547,0.4604874849319458,-0.05967500060796738
1788108185108520200,0.310520263671875,0.1350249946117401,0.4750624895095825,-0.0719124972820282
1788108185118614300,0.3206142578125,0.11921250075101852,0.5252500176429749,-0.040150001645088196
1788108185128708000,0.3307080078125,0.08373750001192093,0.5715875029563904,0.01966249942779541
1788108185138799000,0.340799072265625,0.0775500014424324,0.6632999777793884,0.06613750010728836
1788108185148897300,0.350897216796875,0.1069749966263771,0.6693499684333801,0.03918749839067459
1788108185158985000,0.36098486328125,0.16431249678134918,0.6107749938964844,0.00013749999925494194
1788108185169084400,0.37108447265625,0.20350000262260437,0.4690124988555908,-0.01209999993443489
1788108185179171800,0.381171875,0.21326249837875366,0.22591249644756317,0.02213750034570694
1788108185189265000,0.391264892578125,0.17407499253749847,0.12815000116825104,0.13199999928474426
1788108185199355000,0.40135498046875,0.10449999570846558,0.049912501126527786,0.2872374951839447
1788108185209448200,0.4114482421875,-0.053075000643730164,0.1391499936580658,0.5218124985694885
1788108185219537000,0.421536865234375,-0.17407499253749847,0.12443749606609344,0.6329125165939331
1788108185229635000,0.431635009765625,-0.21683749556541443,-0.0906125009059906,0.546287477016449
1788108185239720200,0.44172021484375,-0.19607499241828918,-0.1699499934911728,0.44481250643730164
1788108185249803800,0.4518037109375,-0.18988749384880066,-0.10037499666213989,0.3727625012397766
1788108185259894000,0.46189404296875,-0.17778749763965607,-0.04661250114440918,0.2835249900817871
1788108185269990700,0.47199072265625,-0.14588749408721924,0.04386249929666519,0.19923749566078186
1788108185280078300,0.482078369140625,-0.08978749811649323,0.12815000116825104,0.11742500215768814
1788108185290172000,0.492171875,-0.006737499963492155,0.1671999990940094,0.05142499879002571
1788108185300263000,0.502262939453125,0.08249999582767487,0.234437495470047,0.02213750034570694
1788108185310365400,0.512365478515625,0.13378749787807465,0.36024999618530273,0.018424998968839645
1788108185320455200,0.522455078125,0.1387374997138977,0.45801249146461487,0.01966249942779541
1788108185330540500,0.53254052734375,0.148499995470047,0.5068249702453613,0.018424998968839645
1788108185340635400,0.542635498046875,0.16197499632835388,0.5142499804496765,-0.008387500420212746
1788108185350753800,0.55275390625,0.1704999953508377,0.5288249850273132,-0.020624998956918716
1788108185360845300,0.56284521484375,0.19607499241828918,0.46406251192092896,-0.015812499448657036
1788108185370940000,0.57293994140625,0.18878750503063202,0.3639625012874603,0.007424999959766865
1788108185381023500,0.5830234375,0.17297500371932983,0.2796750068664551,0.037950001657009125
1788108185391117300,0.593117431640625,0.16431249678134918,0.24791249632835388,0.08923749625682831
1788108185401203200,0.603203125,0.13021250069141388,0.27348750829696655,0.1699499934911728
1788108185411298600,0.613298583984375,0.116737499833107,0.31872498989105225,0.23100000619888306
1788108185421391600,0.6233916015625,0.13750000298023224,0.3040125072002411,0.22852499783039093
1788108185431499800,0.633499755859375,0.15097500383853912,0.2722499966621399,0.20295000076293945
1788108185441587700,0.643587646484375,0.16197499632835388,0.2699125111103058,0.20295000076293945
1788108185451687400,0.6536875,0.16802500188350677,0.3137750029563904,0.22618749737739563
1788108185461772300,0.663772216796875,0.16431249678134918,0.3492499887943268,0.22495000064373016
1788108185471857200,0.673857177734375,0.17407499253749847,0.3969624936580658,0.20652499794960022
1788108185481953000,0.683953125,0.19607499241828918,0.4212999939918518,0.20295000076293945
1788108185492050000,0.6940498046875,0.20350000262260437,0.36272498965263367,0.1956624984741211
1788108185502142700,0.704142822265625,0.2180749922990799,0.2601499855518341,0.17366249859333038
1788108185512242700,0.71424267578125,0.22550000250339508,0.18672500550746918,0.16499999165534973
1788108185522334000,0.724333984375,0.21449999511241913,0.16967499256134033,0.19442500174045563
1788108185532434000,0.734433837890625,0.19373749196529388,0.16843749582767487,0.21876250207424164
1788108185542526000,0.74452587890625,0.19126249849796295,0.19167499244213104,0.21642500162124634
1788108185552612400,0.7546123046875,0.1545500010251999,0.2441999912261963,0.2237125039100647
1788108185572811500,0.7748115234375,0.12031249701976776,0.28325000405311584,0.20295000076293945
1788108185582897700,0.784897705078125,0.09955000132322311,0.25519999861717224,0.17118750512599945
1788108185592989700,0.79498974609375,0.07397499680519104,0.2441999912261963,0.1564749926328659
1788108185603085600,0.80508544921875,0.05926249921321869,0.23196250200271606,0.16142499446868896
1788108185613177000,0.815177001953125,0.055687498301267624,0.1989624947309494,0.15399999916553497
1788108185623277600,0.825277587890625,0.060499999672174454,0.20514999330043793,0.14918750524520874
1788108185633368600,0.83536865234375,0.06778749823570251,0.22714999318122864,0.15895000100135803
1788108185643463400,0.84546337890625,0.06544999778270721,0.2527250051498413,0.17366249859333038
1788108185653560800,0.855560791015625,0.048262499272823334,0.2539624869823456,0.1919499933719635
1788108185663662800,0.865662841796875,0.031212499365210533,0.22948749363422394,0.18700000643730164
1788108185673763600,0.875763671875,0.021449999883770943,0.19648750126361847,0.14794999361038208
1788108185683853600,0.885853515625,0.021449999883770943,0.17215000092983246,0.08195000141859055
1788108185693952800,0.895952880859375,0.021449999883770943,0.15867500007152557,0.033137500286102295
1788108185704039200,0.9060390625,0.021449999883770943,0.15138749778270721,0.006187499966472387
1788108185714127400,0.91612744140625,0.020212499424815178,0.12691250443458557,-0.014574999921023846
1788108185724212000,0.9262119140625,0.011687500402331352,0.10009999573230743,-0.037812501192092896
1788108185734303200,0.93630322265625,-0.005499999970197678,0.08538749814033508,-0.05967500060796738
1788108185744394200,0.946394287109375,-0.016499999910593033,0.07067500054836273,-0.08291249722242355
1788108185754484000,0.95648388671875,-0.017737500369548798,0.05362499877810478,-0.1036750003695488
1788108185774711300,0.976711181640625,-0.009074999950826168,-0.01966249942779541,-0.09886249899864197
1788108185784797000,0.986796875,-0.005499999970197678,-0.03437500074505806,-0.08291249722242355
1788108185794893000,0.99689306640625,-0.012787500396370888,-0.008662499487400055,-0.04881250113248825
1788108185804993300,1.0069931640625,-0.03355000168085098,0.03162499889731407,-0.027912499383091927
1788108185815090200,1.017090087890625,-0.05926249921321869,0.09886249899864197,-0.0340999998152256
1788108185825173200,1.02717333984375,-0.07631249725818634,0.15015000104904175,-0.030387500301003456
1788108185835265800,1.037265869140625,-0.07878749817609787,0.17338749766349792,-0.004812499973922968
1788108185845353000,1.04735302734375,-0.07507500052452087,0.1671999990940094,0.028187500312924385
1788108185855449000,1.057448974609375,-0.08002500236034393,0.15386250615119934,0.05637500062584877
1788108185865531100,1.06753125,-0.09102500230073929,0.1256749927997589,0.07342500239610672
1788108185875621600,1.07762158203125,-0.10078749805688858,0.10491249710321426,0.09047500044107437
1788108185885704400,1.087704345703125,-0.1190750002861023,0.10243749618530273,0.11123749613761902
1788108185895799000,1.097799072265625,-0.13378749787807465,0.10491249710321426,0.13199999928474426
1788108185905888800,1.107888671875,-0.1373624950647354,0.09886249899864197,0.13199999928474426
1788108185915984000,1.11798388671875,-0.1373624950647354,0.08043749630451202,0.1247124969959259
1788108185926074600,1.12807470703125,-0.1350249946117401,0.04386249929666519,0.11013749986886978
1788108185936165600,1.13816552734375,-0.12636250257492065,0.010862499475479126,0.11013749986886978
1788108185946250200,1.148250244140625,-0.11659999936819077,-0.020899999886751175,0.11247500032186508
1788108185956347400,1.158347412109375,-0.10559999942779541,-0.04413750022649765,0.11013749986886978
1788108185966441000,1.16844091796875,-0.09459999948740005,-0.07961250096559525,0.10147500038146973
1788108185976546600,1.178546630859375,-0.09226249903440475,-0.09418749809265137,0.08813749998807907
1788108185986640100,1.18864013671875,-0.0873124971985817,-0.08442500233650208,0.08318749815225601
1788108186006828000,1.208828125,-0.07507500052452087,-0.07961250096559525,0.05142499879002571
1788108186016921900,1.218921875,-0.07631249725818634,-0.057612501084804535,0.042899999767541885
1788108186027013000,1.22901318359375,-0.07507500052452087,-0.047849997878074646,0.030662499368190765
1788108186037107700,1.239107666015625,-0.07026249915361404,-0.04661250114440918,0.013612499460577965
1788108186047200300,1.2492001953125,-0.06283749639987946,-0.06366249918937683,-0.006049999967217445
1788108186057290800,1.259290771484375,-0.060499999672174454,-0.08195000141859055,-0.013337500393390656
1788108186067386000,1.26938623046875,-0.05678749829530716,-0.09418749809265137,-0.009624999947845936
1788108186077499000,1.279498779296875,-0.0518375001847744,-0.09171249717473984,-0.015812499448657036
1788108186087593000,1.289593017578125,-0.0494999997317791,-0.06613750010728836,-0.025575000792741776
1788108186097691600,1.299691650390625,-0.053075000643730164,-0.028187500312924385,-0.03891250118613243
1788108186107790000,1.3097900390625,-0.05555000156164169,-0.008662499487400055,-0.04881250113248825
1788108186117889300,1.31988916015625,-0.053075000643730164,-0.011137500405311584,-0.0695749968290329
1788108186127980800,1.329980712890625,-0.06407500058412552,-0.013612499460577965,-0.07438749819993973
1788108186138064400,1.340064453125,-0.07026249915361404,-0.05884999781847,-0.08167500048875809
1788108186148153900,1.35015380859375,-0.058024998754262924,-0.10037499666213989,-0.08786249905824661
1788108186158242600,1.36024267578125,-0.0494999997317791,-0.11866249889135361,-0.057337500154972076
1788108186168326000,1.370325927734375,-0.040837500244379044,-0.11247500032186508,-0.004812499973922968
1788108186178411800,1.380411865234375,-0.03849999979138374,-0.06737499684095383,0.04661250114440918
1788108186188515000,1.39051513671875,-0.04455000162124634,-0.013612499460577965,0.07218749821186066
1788108186198613800,1.40061376953125,-0.0518375001847744,0.01691249944269657,0.04895000159740448
1788108186208705500,1.41070556640625,-0.06159999966621399,0.015675000846385956,0.00989999994635582
1788108186218800600,1.420800537109375,-0.06283749639987946,-0.035612501204013824,-0.02681249938905239
1788108186228900900,1.43090087890625,-0.053075000643730164,-0.11013749986886978,-0.04138749837875366
1788108186238990300,1.440990234375,-0.053075000643730164,-0.15166249871253967,-0.023099999874830246
1788108186249090800,1.4510908203125,-0.058024998754262924,-0.14547500014305115,0.013612499460577965
1788108186259181000,1.46118115234375,-0.06902500241994858,-0.0966624990105629,0.035612501204013824
1788108186269279200,1.471279296875,-0.07878749817609787,-0.040424998849630356,0.03437500074505806
1788108186279380500,1.48138037109375,-0.0775500014424324,-0.020899999886751175,0.0147124994546175
1788108186289477000,1.49147705078125,-0.07507500052452087,-0.035612501204013824,0.002612499985843897
1788108186299572500,1.501572509765625,-0.0775500014424324,-0.057612501084804535,0.020899999886751175
1788108186309658400,1.511658447265625,-0.0835999995470047,-0.07218749821186066,0.05871250107884407
1788108186319751000,1.5217509765625,-0.09226249903440475,-0.06366249918937683,0.08923749625682831
1788108186329840400,1.53184033203125,-0.10436250269412994,-0.042899999767541885,0.10766249895095825
1788108186339937500,1.5419375,-0.1153625026345253,-0.057612501084804535,0.08195000141859055
1788108186350023700,1.552023681640625,-0.12031249701976776,-0.09418749809265137,0.03671250119805336
1788108186360127000,1.562126953125,-0.1190750002861023,-0.13337500393390656,-0.01209999993443489
1788108186370217700,1.5722177734375,-0.12031249701976776,-0.17613749206066132,-0.049912501126527786
1788108186380311300,1.582311279296875,-0.12636250257492065,-0.19071249663829803,-0.07067500054836273
1788108186390402000,1.592402099609375,-0.1313125044107437,-0.19318750500679016,-0.09157499670982361
1788108186400498400,1.60249853515625,-0.12636250257492065,-0.18947499990463257,-0.11343749612569809
1788108186410590700,1.6125908203125,-0.1190750002861023,-0.19442500174045563,-0.14162500202655792
1788108186420683000,1.62268310546875,-0.11055000126361847,-0.23223750293254852,-0.17215000092983246
1788108186430779400,1.632779296875,-0.09707500040531158,-0.2689499855041504,-0.19538749754428864
1788108186440880000,1.642880126953125,-0.09350000321865082,-0.30428749322891235,-0.20391249656677246
1788108186450972700,1.65297265625,-0.09102500230073929,-0.3605250120162964,-0.19786250591278076
1788108186461069000,1.663069091796875,-0.08607500046491623,-0.3984749913215637,-0.17586250603199005
1788108186471156700,1.67315673828125,-0.08002500236034393,-0.3984749913215637,-0.14643749594688416
1788108186481270500,1.6832705078125,-0.06902500241994858,-0.3667125105857849,-0.13791249692440033
1788108186491356200,1.693356201171875,-0.05555000156164169,-0.31418749690055847,-0.15991249680519104
1788108186511550700,1.71355078125,-0.040837500244379044,-0.19923749566078186,-0.18191249668598175
1788108186521650200,1.723650146484375,-0.04455000162124634,-0.11013749986886978,-0.1391499936580658
1788108186531741400,1.733741455078125,-0.045787498354911804,-0.023375000804662704,-0.1013374999165535
1788108186541835800,1.743835693359375,-0.040837500244379044,0.014574999921023846,-0.1013374999165535
1788108186551932200,1.75393212890625,-0.03478749841451645,-0.016087500378489494,-0.12333749979734421
1788108186562027800,1.76402783203125,-0.03849999979138374,-0.059950001537799835,-0.12443749606609344
1788108186572125400,1.77412548828125,-0.053075000643730164,-0.08071249723434448,-0.09886249899864197
1788108186582218800,1.78421875,-0.05431250110268593,-0.07466249912977219,-0.0658624991774559
1788108186592317200,1.794317138671875,-0.0518375001847744,-0.07218749821186066,-0.05238749831914902
1788108186602413600,1.80441357421875,-0.040837500244379044,-0.08566249907016754,-0.06091250106692314
1788108186612516900,1.814516845703125,-0.04207500070333481,-0.12347500026226044,-0.06091250106692314
1788108186622606600,1.824606689453125,-0.0518375001847744,-0.17847499251365662,-0.037812501192092896
1788108186632693200,1.834693359375,-0.0494999997317791,-0.34595000743865967,0.07713750004768372
1788108186642780000,1.84477978515625,-0.011549999937415123,-0.4423374831676483,0.13571250438690186
1788108186652874800,1.854874755859375,-0.0030249999836087227,-0.43505001068115234,0.12718750536441803
1788108186662970000,1.86497021484375,-0.006737499963492155,-0.41676250100135803,0.09542500227689743
1788108186673055200,1.87505517578125,-0.016499999910593033,-0.3507624864578247,0.05637500062584877
1788108186683147000,1.88514697265625,-0.017737500369548798,-0.2297624945640564,0.0013749999925494194
1788108186693237200,1.8952373046875,-0.031075000762939453,-0.1284250020980835,-0.028049999848008156
1788108186703331600,1.90533154296875,-0.036024998873472214,-0.08689999580383301,0.0013749999925494194
1788108186713429000,1.915428955078125,-0.010312499478459358,-0.1223749965429306,0.08318749815225601
1788108186723530200,1.9255302734375,0.018975000828504562,-0.19689999520778656,0.18342499434947968
1788108186733614800,1.93561474609375,0.031212499365210533,-0.24695000052452087,0.24323749542236328
1788108186743706400,1.945706298828125,0.03849999979138374,-0.22618749737739563,0.2700499892234802
1788108186753786400,1.955786376953125,0.036024998873472214,-0.18947499990463257,0.2774749994277954
1788108186763878700,1.965878662109375,0.03368749842047691,-0.13942499458789825,0.2639999985694885
1788108186773964500,1.975964599609375,0.029975000768899918,-0.09418749809265137,0.24818749725818634
1788108186784070400,1.9860703125,0.026262499392032623,-0.07713750004768372,0.23100000619888306
1788108186794155000,1.996155029296875,0.020212499424815178,-0.0648999959230423,0.21147499978542328
1788108186804245800,2.006245849609375,0.017737500369548798,-0.052662499248981476,0.18342499434947968
1788108186814331100,2.0163310546875,0.020212499424815178,-0.04661250114440918,0.1601874977350235
1788108186824429600,2.0264296875,0.020212499424815178,-0.062424998730421066,0.14190000295639038
1788108186834521300,2.036521240234375,0.026262499392032623,-0.10642500221729279,0.13089999556541443
1788108186844617500,2.046617431640625,0.03726249933242798,-0.15771250426769257,0.13199999928474426
1788108186854706700,2.056706787109375,0.05073750019073486,-0.19071249663829803,0.14918750524520874
1788108186864789000,2.0667890625,0.05197500064969063,-0.21147499978542328,0.16376249492168427
1788108186874880500,2.076880615234375,0.043449997901916504,-0.18342499434947968,0.18342499434947968
1788108186884975600,2.0869755859375,0.04097500070929527,-0.1223749965429306,0.19318750500679016
1788108186895058700,2.09705859375,0.031212499365210533,-0.06984999775886536,0.19442500174045563
1788108186905145000,2.10714501953125,0.020212499424815178,-0.01966249942779541,0.19676250219345093
1788108186915228700,2.117228759765625,0.009212499484419823,-0.002612499985843897,0.19676250219345093
1788108186925323500,2.127323486328125,-0.0005499999970197678,0.0035749999806284904,0.1919499933719635
1788108186935410700,2.13741064453125,-0.016499999910593033,-0.006187499966472387,0.18700000643730164
1788108186945506800,2.1475068359375,-0.036024998873472214,-0.011137500405311584,0.19923749566078186
1788108186955587600,2.157587646484375,-0.06407500058412552,0.002337499987334013,0.21518750488758087
1788108186965681700,2.167681640625,-0.08249999582767487,0.02433750033378601,0.22123749554157257
1788108186975766800,2.177766845703125,-0.09226249903440475,0.0340999998152256,0.20542499423027039
1788108186985863400,2.187863525390625,-0.09831249713897705,0.009624999947845936,0.1601874977350235
1788108186995955700,2.197955810546875,-0.10078749805688858,-0.023375000804662704,0.11866249889135361
1788108187010087400,2.21208740234375,-0.09226249903440475,-0.07837499678134918,0.09171249717473984
1788108187020182500,2.2221826171875,-0.0775500014424324,-0.11371249705553055,0.08442500233650208
1788108187030270700,2.232270751953125,-0.06902500241994858,-0.13942499458789825,0.08071249723434448
1788108187040368400,2.242368408203125,-0.058024998754262924,-0.15523749589920044,0.06971249729394913
1788108187050460700,2.252460693359375,-0.048262499272823334,-0.14190000295639038,0.04413750022649765
1788108187060555300,2.26255517578125,-0.04331250116229057,-0.12113749980926514,0.006187499966472387
1788108187070648000,2.27264794921875,-0.03973750025033951,-0.11618749797344208,-0.04138749837875366
1788108187080744200,2.282744140625,-0.02983750030398369,-0.12113749980926514,-0.07933750003576279
1788108187090835700,2.292835693359375,-0.020075000822544098,-0.1223749965429306,-0.09886249899864197
1788108187111070500,2.313070556640625,0.006737499963492155,-0.06984999775886536,-0.10615000128746033
1788108187121168400,2.32316845703125,0.027499999850988388,-0.016087500378489494,-0.10009999573230743
1788108187131253800,2.333253662109375,0.03973750025033951,0.027912499383091927,-0.09033749997615814
1788108187141351400,2.343351318359375,0.04097500070929527,0.040150001645088196,-0.09157499670982361
1788108187151444700,2.35344482421875,0.045787498354911804,0.02667500078678131,-0.07438749819993973
1788108187161544400,2.36354443359375,0.0494999997317791,-0.013612499460577965,-0.02914999984204769
1788108187171640300,2.373640380859375,0.05197500064969063,-0.050187498331069946,0.035612501204013824
1788108187181736700,2.38373681640625,0.05073750019073486,-0.0966624990105629,0.07947500050067902
1788108187191826000,2.393825927734375,0.0494999997317791,-0.1321374922990799,0.08195000141859055
1788108187201915100,2.4039150390625,0.048262499272823334,-0.1381874978542328,0.06613750010728836
1788108187212013300,2.414013427734375,0.04221250116825104,-0.13089999556541443,0.047712501138448715
1788108187222105300,2.424105224609375,0.03244999796152115,-0.10642500221729279,0.03189999982714653
1788108187232199400,2.434199462890625,0.018975000828504562,-0.08689999580383301,0.00989999994635582
1788108187242293800,2.444293701171875,-0.012787500396370888,-0.062424998730421066,-0.006049999967217445
1788108187252392200,2.45439208984375,-0.028737500309944153,-0.057612501084804535,-0.0035749999806284904
1788108187262488600,2.464488525390625,-0.03355000168085098,-0.0611874982714653,0.0038499999791383743
1788108187272590300,2.47459033203125,-0.036024998873472214,-0.08071249723434448,0.0147124994546175
1788108187282695400,2.4846953125,-0.03849999979138374,-0.0966624990105629,0.02213750034570694
1788108187292783000,2.494783203125,-0.031075000762939453,-0.08442500233650208,0.01718750037252903
1788108187302859800,2.50485986328125,-0.03355000168085098,-0.07342500239610672,0.002612499985843897
1788108187312953000,2.514953125,-0.040837500244379044,-0.0648999959230423,-0.006049999967217445
1788108187323042800,2.525042724609375,-0.04702499881386757,-0.059950001537799835,0.012374999932944775
1788108187333131800,2.5351318359375,-0.053075000643730164,-0.055137500166893005,0.042899999767541885
1788108187343212000,2.5452119140625,-0.0494999997317791,-0.05637500062584877,0.059950001537799835
1788108187353309400,2.555309326171875,-0.048262499272823334,-0.05637500062584877,0.06613750010728836
1788108187363399200,2.565399169921875,-0.0518375001847744,-0.05389999970793724,0.06737499684095383
1788108187373481200,2.575481201171875,-0.058024998754262924,-0.04661250114440918,0.06737499684095383
1788108187383580000,2.585579833984375,-0.06778749823570251,-0.047849997878074646,0.06971249729394913
1788108187393665800,2.595665771484375,-0.0775500014424324,-0.04895000159740448,0.07218749821186066
1788108187403751000,2.6057509765625,-0.07026249915361404,-0.06366249918937683,0.07095000147819519
1788108187413833700,2.615833740234375,-0.048262499272823334,-0.07713750004768372,0.055137500166893005
1788108187423924200,2.62592431640625,-0.018975000828504562,-0.057612501084804535,0.040424998849630356
1788108187444121900,2.646121826171875,0.014024999924004078,-0.052662499248981476,0.00989999994635582
1788108187454216400,2.656216552734375,0.018975000828504562,-0.09418749809265137,0.028187500312924385
1788108187464313900,2.66631396484375,0.026262499392032623,-0.12594999372959137,0.03671250119805336
1788108187474403800,2.67640380859375,0.05073750019073486,-0.09418749809265137,0.02213750034570694
1788108187484499700,2.686499755859375,0.08373750001192093,-0.057612501084804535,-0.015812499448657036
1788108187494591700,2.696591796875,0.10573749989271164,-0.013612499460577965,-0.05362499877810478
1788108187504685000,2.70668505859375,0.09350000321865082,-0.020899999886751175,-0.045099999755620956
1788108187514775000,2.716775146484375,0.03368749842047691,-0.10395000129938126,-0.01209999993443489
1788108187524872200,2.7268720703125,-0.04207500070333481,-0.2517625093460083,0.06366249918937683
1788108187534970600,2.736970703125,-0.11178749799728394,-0.4057624936103821,0.19318750500679016
1788108187545066800,2.747066650390625,0.06778749823570251,-0.39723750948905945,0.2529999911785126
1788108187555155700,2.75715576171875,0.4123624861240387,-0.5878124833106995,0.15166249871253967
1788108187565252600,2.767252685546875,0.2998875081539154,-0.3031874895095825,0.052662499248981476
1788108187575345200,2.77734521484375,0.04455000162124634,-0.10037499666213989,-0.014574999921023846
1788108187585437400,2.7874375,0.03368749842047691,-0.05142499879002571,-0.13791249692440033
1788108187595532500,2.797532470703125,0.13626250624656677,0.007149999961256981,-0.28696250915527344
1788108187605630500,2.80763037109375,0.2560249865055084,0.24791249632835388,-0.4702500104904175
1788108187615714300,2.81771435546875,0.3793624937534332,0.42625001072883606,-0.6743000149726868
1788108187625804000,2.827803955078125,0.4221250116825104,0.5703499913215637,-0.8416374921798706
1788108187635889000,2.837888916015625,0.4538874924182892,0.7121124863624573,-0.9736375212669373
1788108187645981700,2.847981689453125,0.5113624930381775,0.7756375074386597,-1.0309749841690063
1788108187656071200,2.8580712890625,0.5834124684333801,0.8171625137329102,-1.0346875190734863
1788108187676256000,2.878256103515625,0.6506500244140625,0.6973999738693237,-0.9088749885559082
1788108187686347500,2.888347412109375,0.5736500024795532,0.492249995470047,-0.7243499755859375
1788108187696439000,2.89843896484375,0.5211250185966492,0.306487500667572,-0.46172499656677246
1788108187706530000,2.908530029296875,0.505174994468689,0.11962500214576721,-0.19538749754428864
1788108187716624000,2.918623779296875,0.48688748478889465,-0.035612501204013824,0.03918749839067459
1788108187726713300,2.92871337890625,0.4501749873161316,-0.14066250622272491,0.21518750488758087
1788108187736807400,2.938807373046875,0.4478375017642975,-0.19071249663829803,0.2994749844074249
1788108187746892300,2.948892333984375,0.4575999975204468,-0.19689999520778656,0.2774749994277954
1788108187756991200,2.9589912109375,0.4501749873161316,-0.1699499934911728,0.14423750340938568
1788108187767080400,2.96908056640625,0.42336249351501465,-0.05142499879002571,0.02213750034570694
1788108187777162000,2.979161865234375,0.40617498755455017,0.062150001525878906,-0.062150001525878906
1788108187787255800,2.989255859375,0.4111250042915344,0.13062499463558197,-0.09267500042915344
1788108187797351000,2.999350830078125,0.40617498755455017,0.1354375034570694,-0.08415000140666962
1788108187807447300,3.009447265625,0.35983750224113464,0.11838749796152115,-0.0170499999076128
1788108187817539600,3.01953955078125,0.31088748574256897,0.11715000122785568,0.07466249912977219
1788108187827631900,3.0296318359375,0.09955000132322311,0.20748749375343323,0.27252501249313354
1788108187837720000,3.039719970703125,0.007974999956786633,0.09886249899864197,0.38981249928474426
1788108187847811000,3.04981103515625,-0.1350249946117401,0.17215000092983246,0.5120499730110168
1788108187857905700,3.05990576171875,-0.3451249897480011,0.16472500562667847,0.7001500129699707
1788108187868002600,3.07000244140625,-0.6212249994277954,0.3834874927997589,0.8284375071525574
1788108187878088000,3.080087890625,-1.2394249439239502,1.3095500469207764,0.7844374775886536
1788108187888175000,3.090175048828125,-1.2529000043869019,2.456712484359741,0.7074375152587891
1788108187898269000,3.10026904296875,-1.3384250402450562,2.6778125762939453,0.515625
1788108187908359700,3.110359619140625,-1.3309999704360962,2.341899871826172,0.5755749940872192
1788108187918456000,3.1204560546875,-1.278475046157837,2.11213755607605,0.6036249995231628
1788108187928546300,3.13054638671875,-1.178375005722046,2.1073250770568848,0.5035250186920166
1788108187938641200,3.14064111328125,-1.021899938583374,1.867799997329712,0.3067624866962433
1788108187948719000,3.150718994140625,-0.8582749962806702,1.4488375186920166,0.057475000619888306
1788108187958822000,3.16082177734375,-0.6224625110626221,1.0822625160217285,-0.14038750529289246
1788108187968916500,3.17091650390625,-0.36959999799728394,0.7499250173568726,-0.2624875009059906
1788108187979012900,3.181012939453125,-0.15207499265670776,0.6851624846458435,-0.2564375102519989
1788108187989098800,3.1910986328125,-0.018975000828504562,0.8366875052452087,-0.19415000081062317
1788108187999192000,3.201192138671875,0.017737500369548798,0.8586875200271606,-0.1746249943971634
1788108188009281800,3.21128173828125,0.007974999956786633,0.8036875128746033,-0.15867500007152557
1788108188019374300,3.221374267578125,-0.006737499963492155,0.7071624994277954,-0.1256749927997589
1788108188029468000,3.231468017578125,-0.014024999924004078,0.5240125060081482,-0.05362499877810478
1788108188039592200,3.24159228515625,-0.06407500058412552,0.31872498989105225,0.012374999932944775
1788108188059780400,3.2617802734375,-0.05555000156164169,-0.01484999991953373,0.14547500014305115
1788108188069871000,3.27187109375,-0.016499999910593033,-0.13337500393390656,0.17847499251365662
1788108188079968800,3.28196875,0.03849999979138374,-0.19689999520778656,0.20295000076293945
1788108188090054400,3.292054443359375,0.08978749811649323,-0.25671249628067017,0.2102375030517578
1788108188100148000,3.30214794921875,0.13007499277591705,-0.3251875042915344,0.19923749566078186
1788108188110238000,3.312238037109375,0.1667875051498413,-0.38747498393058777,0.15771250426769257
1788108188120328700,3.32232861328125,0.21326249837875366,-0.4338124990463257,0.08071249723434448
1788108188130414300,3.332414306640625,0.23154999315738678,-0.34952500462532043,0.00494999997317791
1788108188140511000,3.342510986328125,0.24502499401569366,-0.2529999911785126,-0.0695749968290329
1788108188150604300,3.352604248046875,0.24736249446868896,-0.17489999532699585,-0.15386250615119934
1788108188160697900,3.36269775390625,0.20954999327659607,-0.03189999982714653,-0.1989624947309494
1788108188170788000,3.3727880859375,0.17902499437332153,0.05609999969601631,-0.21738749742507935
1788108188180889300,3.382889404296875,0.1387374997138977,0.13062499463558197,-0.16843749582767487
1788108188190977800,3.392977783203125,0.10078749805688858,0.19415000081062317,-0.10257499665021896
1788108188201071000,3.403071044921875,0.06173750013113022,0.306487500667572,-0.1013374999165535
1788108188211158300,3.413158203125,0.045787498354911804,0.3382500112056732,-0.15386250615119934
1788108188221255000,3.4232548828125,0.026262499392032623,0.3382500112056732,-0.12815000116825104
1788108188231348500,3.433348388671875,-0.0030249999836087227,0.3297249972820282,-0.010862499475479126
1788108188241446400,3.4434462890625,-0.0017874999903142452,0.3004375100135803,0.10766249895095825
1788108188251528200,3.453528076171875,-0.011549999937415123,0.3077250123023987,0.17971250414848328
1788108188261631500,3.463631591796875,-0.018975000828504562,0.297962486743927,0.2297624945640564
1788108188271725000,3.47372509765625,-0.0494999997317791,0.36272498965263367,0.2529999911785126
1788108188281814300,3.483814208984375,-0.06407500058412552,0.6265875101089478,0.15399999916553497
1788108188291902000,3.49390185546875,0.08249999582767487,0.5020124912261963,-0.24062499403953552
1788108188301997600,3.50399755859375,0.16926249861717224,0.2857249975204468,-0.3102000057697296
1788108188312084000,3.514083984375,0.17902499437332153,0.29301249980926514,-0.07686249911785126
1788108188322177500,3.524177490234375,0.07397499680519104,0.3480125069618225,0.3128125071525574
1788108188332275000,3.53427490234375,-0.028737500309944153,0.46172499656677246,0.6830999851226807
1788108188342375000,3.544375,-0.09102500230073929,0.4470124840736389,0.9774875044822693
1788108188352467000,3.554467041015625,-0.1545500010251999,0.3651999831199646,1.1460624933242798
1788108188362558500,3.564558349609375,-0.24255000054836273,0.30277499556541443,1.1338249444961548
1788108188372656000,3.57465625,-0.20707499980926514,0.09019999951124191,0.8662499785423279
1788108188382748000,3.584747802734375,-0.0775500014424324,-0.18947499990463257,0.491287499666214
1788108188392838400,3.59483837890625,0.060499999672174454,-0.4338124990463257,0.1821874976158142
1788108188402930200,3.60493017578125,0.14973749220371246,-0.6085749864578247,0.0037124999798834324
1788108188413017000,3.61501708984375,0.2022625058889389,-0.7075750231742859,-0.07081250101327896
1788108188423111200,3.625111083984375,0.22302499413490295,-0.7966749668121338,-0.12333749979734421
1788108188433202200,3.6352021484375,0.2180749922990799,-0.8907250165939331,-0.19786250591278076
1788108188443293700,3.645293701171875,0.19126249849796295,-0.9616749882698059,-0.27719998359680176
1788108188453384000,3.655384033203125,0.14354999363422394,-0.9139624834060669,-0.39448750019073486
1788108188463470600,3.665470703125,0.09226249903440475,-0.7832000255584717,-0.5533000230789185
1788108188473559600,3.6755595703125,0.08249999582767487,-0.6256250143051147,-0.7023500204086304
1788108188483656200,3.68565625,0.09226249903440475,-0.443574994802475,-0.8098750114440918
1788108188493744400,3.695744384765625,0.10449999570846558,-0.26042500138282776,-0.9076374769210815
1788108188503835100,3.705835205078125,0.10449999570846558,-0.11742500215768814,-0.940637469291687
1788108188513925600,3.715925537109375,0.11302500218153,0.0035749999806284904,-0.9076374769210815
1788108188524017200,3.72601708984375,0.08978749811649323,0.16472500562667847,-0.8563500046730042
1788108188534103800,3.736103759765625,0.028737500309944153,0.3614875078201294,-0.8538749814033508
1788108188544197000,3.746197021484375,-0.016499999910593033,0.5997750163078308,-0.8123499751091003
1788108188554281700,3.75628173828125,-0.09350000321865082,0.8599249720573425,-0.5605875253677368
1788108188564379100,3.766379150390625,-0.19978749752044678,1.0786875486373901,-0.10862500220537186
1788108188574465500,3.776465576171875,-0.3353624939918518,1.1629749536514282,0.31404998898506165
1788108188584562400,3.7865625,-0.40012499690055847,0.9527375102043152,0.47052499651908875
1788108188594654700,3.79665478515625,-0.3328875005245209,0.5618249773979187,0.4008125066757202
1788108188604750600,3.80675048828125,-0.20954999327659607,0.0658624991774559,0.2297624945640564
1788108188614838500,3.816838623046875,-0.10202500224113464,-0.43505001068115234,0.10889999568462372
1788108188624946000,3.82694580078125,-0.021312499418854713,-0.7551500201225281,0.1247124969959259
1788108188635028000,3.837028076171875,0.0042624999769032,-0.8492000102996826,0.305525004863739
1788108188645135000,3.847135009765625,-0.053075000643730164,-0.7636749744415283,0.5816249847412109
1788108188655228700,3.857228759765625,-0.12526249885559082,-0.6476249694824219,0.8051999807357788
1788108188665326300,3.867326416015625,-0.13007499277591705,-0.5853375196456909,0.9102500081062317
1788108188675417600,3.87741748046875,-0.09955000132322311,-0.558525025844574,0.8784874677658081
1788108188685509600,3.887509521484375,-0.0873124971985817,-0.4961000084877014,0.8113874793052673
1788108188695600000,3.89760009765625,-0.09350000321865082,-0.43505001068115234,0.7673875093460083
1788108188705690600,3.907690673828125,-0.09350000321865082,-0.3544749915599823,0.7539125084877014
1788108188715775200,3.917775146484375,-0.12759999930858612,-0.2639999985694885,0.75638747215271
1788108188725872600,3.92787255859375,-0.16802500188350677,-0.24818749725818634,0.7478625178337097
1788108188746066400,3.94806640625,-0.12278749793767929,-0.2909500002861023,0.6146249771118164
1788108188756157000,3.958156982421875,-0.03973750025033951,-0.28847500681877136,0.44110000133514404
1788108188766243000,3.9682431640625,0.045787498354911804,-0.3227125108242035,0.1344749927520752
1788108188776328700,3.97832861328125,0.1069749966263771,-0.38871249556541443,-0.3797749876976013
1788108188786416400,3.98841650390625,0.15950000286102295,-0.47905001044273376,-1.0909249782562256
1788108188796509200,3.99850927734375,0.18754999339580536,-0.5010499954223633,-1.8507499694824219
1788108188806600700,4.0086005859375,0.22907499969005585,-0.4620000123977661,-2.455475091934204
1788108188816690000,4.01868994140625,0.21683749556541443,-0.3361875116825104,-2.7707624435424805
1788108188826781700,4.02878173828125,0.1447875052690506,-0.18342499434947968,-2.833050012588501
1788108188836867800,4.038867919921875,0.020212499424815178,0.04138749837875366,-2.6668124198913574
1788108188846951000,4.048950927734375,-0.11302500218153,0.24667499959468842,-2.3028500080108643
1788108188857047000,4.059047119140625,-0.2595999836921692,0.4017750024795532,-1.8251750469207764
1788108188867143000,4.069142822265625,-0.3926999866962433,0.4982999861240387,-1.3547874689102173
1788108188877235000,4.07923486328125,-0.4489375054836273,0.4787749946117401,-1.0187374353408813
1788108188887323000,4.089322998046875,-0.4208875000476837,0.3137750029563904,-0.822112500667572
1788108188897419300,4.099419189453125,-0.32807499170303345,0.07686249911785126,-0.7096375226974487
1788108188907515000,4.109514892578125,-0.21078750491142273,-0.11866249889135361,-0.6351125240325928
1788108188917602300,4.119602294921875,-0.12031249701976776,-0.20666250586509705,-0.5887749791145325
1788108188927694600,4.129694580078125,-0.08249999582767487,-0.18947499990463257,-0.5313000082969666
1788108188937785600,4.13978564453125,-0.08483749628067017,-0.10766249895095825,-0.42996248602867126
1788108188947876400,4.14987646484375,-0.12155000120401382,0.018149999901652336,-0.3004375100135803
1788108188957966600,4.159966552734375,-0.17531250417232513,0.14767499268054962,-0.17586250603199005
1788108188968058400,4.170058349609375,-0.23759999871253967,0.2844874858856201,-0.07686249911785126
1788108188978144000,4.18014404296875,-0.284074991941452,0.41029998660087585,0.0013749999925494194
1788108188988237600,4.190237548828125,-0.30236250162124634,0.45925000309944153,0.07218749821186066
1788108188998324000,4.200323974609375,-0.30483749508857727,0.48124998807907104,0.17723749577999115
1788108189008414700,4.210414794921875,-0.2718375027179718,0.40796250104904175,0.27252501249313354
1788108189018510300,4.22051025390625,-0.22659999132156372,0.31872498989105225,0.38733750581741333
1788108189028598500,4.2305986328125,-0.18507499992847443,0.21615000069141388,0.5010499954223633
1788108189038697500,4.240697509765625,-0.13007499277591705,0.07438749819993973,0.6146249771118164
1788108189048796000,4.2507958984375,-0.06531249731779099,-0.07342500239610672,0.7184374928474426
1788108189058896400,4.260896484375,0.006737499963492155,-0.19923749566078186,0.7771499752998352
1788108189068985300,4.2709853515625,0.07507500052452087,-0.30799999833106995,0.7551500201225281
1788108189079079000,4.281078857421875,0.15826250612735748,-0.4632374942302704,0.6316750049591064
1788108189089168100,4.291168212890625,0.24736249446868896,-0.6243875026702881,0.44481250643730164
1788108189099272000,4.30127197265625,0.3133625090122223,-0.6635749936103821,0.2480500042438507
1788108189109359000,4.311359130859375,0.3623124957084656,-0.5535749793052673,0.08689999580383301
1788108189119452400,4.321452392578125,0.34636250138282776,-0.3312374949455261,0.042899999767541885
1788108189129537300,4.331537353515625,0.30483749508857727,-0.22618749737739563,0.11742500215768814
1788108189139633000,4.3416328125,0.22302499413490295,-0.18095000088214874,0.2700499892234802
1788108189149712600,4.351712646484375,0.303600013256073,-0.11618749797344208,0.24695000052452087
1788108189159807200,4.36180712890625,0.6285125017166138,0.37619999051094055,-0.24172499775886536
1788108189169901000,4.371901123046875,0.7079874873161316,1.3265999555587769,-0.6327750086784363
1788108189179995400,4.381995361328125,0.5784624814987183,2.113374948501587,-0.5252500176429749
1788108189190085600,4.392085693359375,0.38183748722076416,2.3944249153137207,-0.062150001525878906
1788108189200175900,4.40217578125,0.2595999836921692,2.438425064086914,0.3104749917984009
1788108189210261200,4.41226123046875,0.12278749793767929,2.0645625591278076,0.44852501153945923
1788108189220351500,4.4223515625,0.14354999363422394,1.435362458229065,0.49486249685287476
1788108189230444500,4.432444580078125,0.2046000063419342,0.4347749948501587,0.5328124761581421
1788108189240539600,4.44253955078125,0.38788750767707825,-0.7636749744415283,0.5033875107765198
1788108189250634800,4.452634765625,0.5711749792098999,-1.8082624673843384,0.3788124918937683
1788108189260733700,4.462733642578125,0.6847500205039978,-2.6915624141693115,0.2297624945640564
1788108189270823200,4.4728232421875,0.696987509727478,-3.383049964904785,0.17599999904632568
1788108189280919800,4.482919921875,0.5979874730110168,-3.5650999546051025,0.17476250231266022
1788108189291009800,4.493009765625,0.42336249351501465,-3.4343373775482178,0.16499999165534973
1788108189301104400,4.5031044921875,0.21326249837875366,-3.039712429046631,0.14918750524520874
1788108189311201800,4.513201904296875,0.023787500336766243,-2.491225004196167,0.08442500233650208
1788108189321301800,4.5233017578125,-0.12759999930858612,-1.7642624378204346,-0.062150001525878906
1788108189331394800,4.533394775390625,-0.23278750479221344,-0.9457250237464905,-0.2209624946117401
1788108189341492700,4.54349267578125,-0.30236250162124634,-0.24323749542236328,-0.29438748955726624
1788108189351579100,4.5535791015625,-0.3268375098705292,0.234437495470047,-0.3016749918460846
1788108189361674800,4.5636748046875,-0.40617498755455017,0.5570124983787537,-0.24172499775886536
1788108189371764000,4.573763916015625,-0.25107499957084656,0.5703499913215637,-0.2246749997138977
1788108189381858800,4.58385888671875,-0.0775500014424324,0.4189625084400177,-0.25519999861717224
1788108189391945200,4.5939453125,-0.016499999910593033,0.1989624947309494,-0.3480125069618225
1788108189402037200,4.604037353515625,0.06531249731779099,0.02914999984204769,-0.428725004196167
1788108189412130600,4.614130615234375,0.12773749232292175,-0.11742500215768814,-0.4652999937534332
1788108189422225400,4.624225341796875,0.12773749232292175,-0.2176624983549118,-0.4482499957084656
1788108189432336400,4.63433642578125,0.10573749989271164,-0.2494249939918518,-0.3774375021457672
1788108189442430200,4.64443017578125,0.07026249915361404,-0.20899999141693115,-0.2699125111103058
1788108189452523300,4.654523193359375,0.026262499392032623,-0.1467124968767166,-0.14162500202655792
1788108189462616000,4.664615966796875,-0.009212499484419823,-0.07837499678134918,-0.008387500420212746
1788108189472705000,4.674705078125,-0.009212499484419823,0.0035749999806284904,0.09790000319480896
1788108189482796300,4.68479638671875,0.03726249933242798,0.08043749630451202,0.1662375032901764
1788108189492882700,4.694882568359375,0.10202500224113464,0.09267500042915344,0.21876250207424164
1788108189502973000,4.704972900390625,0.172837495803833,-0.00013749999925494194,0.25052499771118164
1788108189513061400,4.715061279296875,0.2437874972820282,-0.18466250598430634,0.26276248693466187
1788108189523153400,4.7251533203125,0.30483749508857727,-0.3727625012397766,0.25423750281333923
1788108189533239800,4.73523974609375,0.3316499888896942,-0.4582875072956085,0.24928750097751617
1788108189543327700,4.74532763671875,0.319412499666214,-0.43505001068115234,0.2615250051021576
1788108189553416400,4.75541650390625,0.2901250123977661,-0.3422375023365021,0.28228750824928284
1788108189563501600,4.76550146484375,0.255887508392334,-0.1919499933719635,0.296999990940094
1788108189573588700,4.775588623046875,0.20954999327659607,-0.007424999959766865,0.3104749917984009
1788108189583676400,4.785676513671875,0.1545500010251999,0.18067499995231628,0.3385249972343445
1788108189593757200,4.795757080078125,0.1093124970793724,0.317487508058548,0.3885749876499176
1788108189603849500,4.805849365234375,0.08249999582767487,0.3797749876976013,0.45333749055862427
1788108189613934800,4.815934814453125,0.08373750001192093,0.38596248626708984,0.510812520980835
1788108189624022800,4.826022705078125,0.10807500034570694,0.32848748564720154,0.5315750241279602
1788108189634114600,4.836114501953125,0.14231249690055847,0.23691250383853912,0.5058624744415283
1788108189644205600,4.84620556640625,0.17159999907016754,0.13791249692440033,0.4558124840259552
1788108189654286800,4.856286865234375,0.19002500176429749,0.07686249911785126,0.40328750014305115
1788108189664383200,4.86638330078125,0.19002500176429749,0.06338749825954437,0.38005000352859497
1788108189674468900,4.87646875,0.17902499437332153,0.07438749819993973,0.3862375020980835
1788108189684562200,4.886562255859375,0.17159999907016754,0.08167500048875809,0.3922874927520752
1788108189694659300,4.896659423828125,0.16802500188350677,0.09267500042915344,0.369049996137619
1788108189704756000,4.906755859375,0.14354999363422394,0.12319999933242798,0.32023748755455017
1788108189714846000,4.916845947265625,0.12155000120401382,0.1611499935388565,0.2517625093460083
1788108189724940500,4.9269404296875,0.09955000132322311,0.18548749387264252,0.17118750512599945
1788108189735043000,4.93704296875,0.0775500014424324,0.20143750309944153,0.08442500233650208
1788108189745143800,4.947143798828125,0.05321250110864639,0.2087250053882599,-0.0010999999940395355
1788108189755230500,4.95723046875,0.03355000168085098,0.20624999701976776,-0.06833750009536743
1788108189765328600,4.96732861328125,0.017737500369548798,0.1891999989748001,-0.10986249893903732
1788108189775419000,4.9774189453125,0.010449999943375587,0.17820000648498535,-0.1331000030040741
1788108189785508600,4.987508544921875,0.014024999924004078,0.17215000092983246,-0.15633749961853027
1788108189795601400,4.997601318359375,0.018975000828504562,0.16472500562667847,-0.18314999341964722
1788108189805696300,5.0076962890625,0.022549999877810478,0.17943750321865082,-0.19415000081062317
1788108189815786500,5.017786376953125,0.027499999850988388,0.20996250212192535,-0.1929125040769577
1788108189825879000,5.027879150390625,0.04221250116825104,0.24543750286102295,-0.16967499256134033
1788108189835980000,5.03797998046875,0.06655000150203705,0.27101248502731323,-0.12815000116825104
1788108189846066200,5.048066162109375,0.09707500040531158,0.28943750262260437,-0.09638749808073044
1788108189856160300,5.05816015625,0.13626250624656677,0.3162499964237213,-0.07809999585151672
1788108189866255400,5.06825537109375,0.16554999351501465,0.32725000381469727,-0.09886249899864197
1788108189876348700,5.0783486328125,0.19236250221729279,0.3162499964237213,-0.170912504196167
1788108189886435300,5.088435302734375,0.2120250016450882,0.29672500491142273,-0.26743748784065247
1788108189896522800,5.098522705078125,0.2083124965429306,0.29919999837875366,-0.32120001316070557
1788108189906621400,5.108621337890625,0.1825999915599823,0.3382500112056732,-0.3016749918460846
1788108189916703500,5.118703369140625,0.14602500200271606,0.381012499332428,-0.23086249828338623
1788108189926794200,5.128794189453125,0.11550000309944153,0.4090625047683716,-0.1574375033378601
1788108189936882200,5.138882080078125,0.08855000138282776,0.4067249894142151,-0.12333749979734421
1788108189946973000,5.148972900390625,0.06778749823570251,0.36272498965263367,-0.12209999561309814
1788108189957055000,5.159054931640625,0.060499999672174454,0.3162499964237213,-0.12333749979734421
1788108189967148800,5.169148681640625,0.0494999997317791,0.29919999837875366,-0.09886249899864197
1788108189977239000,5.179239013671875,0.03355000168085098,0.3260124921798706,-0.04633750021457672
1788108189987334100,5.189334228515625,0.017737500369548798,0.37619999051094055,0.020899999886751175
1788108189997427700,5.199427734375,0.011549999937415123,0.4067249894142151,0.07713750004768372
1788108190007522800,5.209522705078125,0.016499999910593033,0.40053749084472656,0.10766249895095825
1788108190017631700,5.2196318359375,0.02502499893307686,0.35048750042915344,0.10147500038146973
1788108190027723300,5.22972314453125,0.03973750025033951,0.28943750262260437,0.07095000147819519
1788108190037826000,5.239825927734375,0.05926249921321869,0.2564375102519989,0.03918749839067459
1788108190047923200,5.249923095703125,0.05678749829530716,0.2576749920845032,0.050187498331069946
1788108190058007600,5.260007568359375,0.04702499881386757,0.27719998359680176,0.09542500227689743
1788108190068093200,5.27009326171875,0.045787498354911804,0.2881999909877777,0.12718750536441803
1788108190078180000,5.28018017578125,0.05073750019073486,0.2820124924182892,0.12223749607801437
1788108190088266500,5.2902666015625,0.05073750019073486,0.24667499959468842,0.0966624990105629
1788108190098355500,5.30035546875,0.05197500064969063,0.19415000081062317,0.07466249912977219
1788108190108447000,5.310447021484375,0.05197500064969063,0.15262499451637268,0.05871250107884407
1788108190118549000,5.320549072265625,0.04702499881386757,0.14396250247955322,0.042899999767541885
1788108190128639500,5.330639404296875,0.03478749841451645,0.1634874939918518,0.035475000739097595
1788108190138736600,5.340736572265625,0.021449999883770943,0.15867500007152557,0.018424998968839645
1788108190148823800,5.35082373046875,0.009212499484419823,0.14767499268054962,-0.0170499999076128
1788108190158923500,5.360923583984375,-0.0030249999836087227,0.17572499811649323,-0.040150001645088196
1788108190169015600,5.371015625,-0.03355000168085098,0.24543750286102295,0.00494999997317791
1788108190179114000,5.381114013671875,-0.08002500236034393,0.32120001316070557,0.10271249711513519
1788108190189198000,5.391197998046875,-0.08483749628067017,0.3394874930381775,0.18947499990463257
1788108190199294500,5.40129443359375,-0.05678749829530716,0.3016749918460846,0.20528750121593475
1788108190209385700,5.4113857421875,-0.026262499392032623,0.24543750286102295,0.13695000112056732
1788108190219486000,5.42148583984375,-0.005499999970197678,0.1671999990940094,0.02694999985396862
1788108190229575400,5.431575439453125,0.015262499451637268,0.08538749814033508,-0.08662500232458115
1788108190239672800,5.4416728515625,0.022549999877810478,0.06943749636411667,-0.1746249943971634
1788108190249768000,5.451767822265625,0.007974999956786633,0.14643749594688416,-0.1929125040769577
1788108190259858000,5.46185791015625,-0.02502499893307686,0.24901250004768372,-0.14533749222755432
1788108190269950200,5.4719501953125,-0.04097500070929527,0.3004375100135803,-0.08057499676942825
1788108190280035300,5.482035400390625,-0.03726249933242798,0.28325000405311584,-0.05609999969601631
1788108190290119400,5.492119384765625,-0.021312499418854713,0.21848750114440918,-0.09157499670982361
1788108190300210200,5.502210205078125,-0.005499999970197678,0.14162500202655792,-0.15262499451637268
1788108190310296300,5.51229638671875,0.018975000828504562,0.07438749819993973,-0.20996250212192535
1788108190320393000,5.52239306640625,0.04221250116825104,0.030387500301003456,-0.25519999861717224
1788108190330484700,5.532484619140625,0.04331250116229057,0.0364375002682209,-0.2699125111103058
1788108190340584200,5.542584228515625,0.022549999877810478,0.08415000140666962,-0.2699125111103058
1788108190350674200,5.552674072265625,-0.0017874999903142452,0.13420000672340393,-0.2527250051498413
1788108190360766000,5.562765869140625,-0.027499999850988388,0.18067499995231628,-0.23196250200271606
1788108190370860000,5.572860107421875,-0.04097500070929527,0.2087250053882599,-0.21738749742507935
1788108190380956700,5.582956787109375,-0.04097500070929527,0.21615000069141388,-0.1891999989748001
1788108190391040300,5.593040283203125,-0.03973750025033951,0.18548749387264252,-0.15991249680519104
1788108190401138000,5.603137939453125,-0.03726249933242798,0.0999625027179718,-0.16843749582767487
1788108190411222500,5.613222412109375,-0.028737500309944153,-0.016087500378489494,-0.23319999873638153
1788108190421319000,5.62331884765625,-0.03231250122189522,-0.10766249895095825,-0.3077250123023987
1788108190431405300,5.6334052734375,-0.06778749823570251,-0.13942499458789825,-0.3359124958515167
1788108190441501400,5.64350146484375,-0.1190750002861023,-0.0929500013589859,-0.29672500491142273
1788108190451585800,5.653585693359375,-0.1802625060081482,0.02914999984204769,-0.19167499244213104
1788108190461684200,5.663684326171875,-0.24488750100135803,0.16596250236034393,-0.05238749831914902
1788108190471767800,5.673767822265625,-0.295074999332428,0.2722499966621399,0.07713750004768372
1788108190481866000,5.683865966796875,-0.31088748574256897,0.2942500114440918,0.16376249492168427
1788108190491961000,5.693961181640625,-0.29864999651908875,0.22824999690055847,0.1919499933719635
1788108190502054700,5.7040546875,-0.2535499930381775,0.11467500030994415,0.19318750500679016
1788108190512153600,5.714153564453125,-0.19359999895095825,-0.01484999991953373,0.1979999989271164
1788108190522249700,5.724249755859375,-0.1313125044107437,-0.1381874978542328,0.19676250219345093
1788108190532339000,5.7343388671875,-0.07507500052452087,-0.2737624943256378,0.1467124968767166
1788108190542439000,5.74443896484375,-0.03478749841451645,-0.4057624936103821,0.030662499368190765
1788108190552541700,5.754541748046875,-0.028737500309944153,-0.443574994802475,-0.10257499665021896
1788108190562636800,5.76463671875,-0.05678749829530716,-0.3922874927520752,-0.22343750298023224
1788108190572713700,5.774713623046875,-0.09102500230073929,-0.2737624943256378,-0.30291250348091125
1788108190582810600,5.784810546875,-0.13626250624656677,-0.07218749821186066,-0.30291250348091125
1788108190592904400,5.794904541015625,-0.20102499425411224,0.11219999939203262,-0.20019999146461487
1788108190602997000,5.8049970703125,-0.25107499957084656,0.2172500044107437,-0.02681249938905239
1788108190613079600,5.81507958984375,-0.24860000610351562,0.17820000648498535,0.1284250020980835
1788108190623169500,5.82516943359375,-0.19359999895095825,0.0193875003606081,0.17971250414848328
1788108190633258000,5.835258056640625,-0.1288374960422516,-0.1859000027179718,0.0966624990105629
1788108190643345400,5.845345458984375,-0.07631249725818634,-0.35571250319480896,-0.05857500061392784
1788108190653451500,5.855451416015625,-0.06902500241994858,-0.408237487077713,-0.1746249943971634
1788108190663546400,5.86554638671875,-0.11178749799728394,-0.3227125108242035,-0.17710000276565552
1788108190673634600,5.875634521484375,-0.17159999907016754,-0.14547500014305115,-0.0719124972820282
1788108190683720000,5.885719970703125,-0.23512500524520874,0.06462500244379044,0.10023749619722366
1788108190693802500,5.895802490234375,-0.2778874933719635,0.18438750505447388,0.25671249628067017
1788108190703885000,5.905885009765625,-0.255887508392334,0.20019999146461487,0.31404998898506165
1788108190713970200,5.91597021484375,-0.1825999915599823,0.11467500030994415,0.2689499855041504
1788108190724066800,5.92606689453125,-0.08002500236034393,-0.0648999959230423,0.12718750536441803
1788108190734154200,5.936154296875,0.016499999910593033,-0.28971248865127563,-0.08181250095367432
1788108190744252200,5.946252197265625,0.08607500046491623,-0.5083374977111816,-0.317487508058548
1788108190754333700,5.956333740234375,0.11302500218153,-0.6133875250816345,-0.48730000853538513
1788108190764432400,5.966432373046875,0.08373750001192093,-0.5670499801635742,-0.5154874920845032
1788108190774517500,5.976517578125,0.017737500369548798,-0.4045250117778778,-0.38472500443458557
1788108190784614400,5.986614501953125,-0.05678749829530716,-0.1919499933719635,-0.15015000104904175
1788108190794697700,5.99669775390625,-0.10449999570846558,-0.057612501084804535,0.052662499248981476
1788108190804785700,6.00678564453125,-0.10202500224113464,-0.04413750022649765,0.1504250019788742
1788108190814876200,6.016876220703125,-0.05926249921321869,-0.12966249883174896,0.14300000667572021
1788108190824975600,6.0269755859375,-0.0030249999836087227,-0.2714250087738037,0.07590000331401825
1788108190835062800,6.037062744140625,0.06778749823570251,-0.4314749836921692,-0.023099999874830246
1788108190845154800,6.04715478515625,0.12155000120401382,-0.5425750017166138,-0.13791249692440033
1788108190855248600,6.05724853515625,0.13007499277591705,-0.5597624778747559,-0.20143750309944153
1788108190865351000,6.067350830078125,0.0873124971985817,-0.4973374903202057,-0.19538749754428864
1788108190875436800,6.077436767578125,0.036024998873472214,-0.3984749913215637,-0.1611499935388565
1788108190885535200,6.08753515625,-0.005499999970197678,-0.3044250011444092,-0.13791249692440033
1788108190895621000,6.09762109375,-0.03726249933242798,-0.2176624983549118,-0.12443749606609344
1788108190905706800,6.107706787109375,-0.060499999672174454,-0.12113749980926514,-0.11233749985694885
1788108190915801000,6.117801025390625,-0.07150000333786011,-0.045375000685453415,-0.1073874980211258
1788108190925898200,6.127898193359375,-0.058024998754262924,-0.01966249942779541,-0.10986249893903732
1788108190935990300,6.137990234375,-0.036024998873472214,-0.029424998909235,-0.11962500214576721
1788108190946084600,6.148084716796875,-0.017737500369548798,-0.08442500233650208,-0.14643749594688416
1788108190956175400,6.15817529296875,0.009212499484419823,-0.14918750524520874,-0.18438750505447388
1788108190966275800,6.16827587890625,0.03355000168085098,-0.21147499978542328,-0.21986250579357147
1788108190976366800,6.178366943359375,0.04097500070929527,-0.2494249939918518,-0.24543750286102295
1788108190986451700,6.18845166015625,0.03973750025033951,-0.25423750281333923,-0.24914999306201935
1788108190996541400,6.19854150390625,0.021312499418854713,-0.22618749737739563,-0.24062499403953552
1788108191006636300,6.20863623046875,-0.0030249999836087227,-0.19071249663829803,-0.2283875048160553
1788108191016726500,6.2187265625,-0.029975000768899918,-0.17489999532699585,-0.2283875048160553
1788108191026816300,6.228816162109375,-0.04455000162124634,-0.17242500185966492,-0.24296249449253082
1788108191036911600,6.23891162109375,-0.05555000156164169,-0.16747500002384186,-0.24062499403953552
1788108191046998300,6.248998291015625,-0.06778749823570251,-0.15771250426769257,-0.22220000624656677
1788108191057087000,6.2590869140625,-0.07397499680519104,-0.13089999556541443,-0.19786250591278076
1788108191067174100,6.269174072265625,-0.0873124971985817,-0.11371249705553055,-0.17586250603199005
1788108191077264600,6.2792646484375,-0.1093124970793724,-0.08566249907016754,-0.15867500007152557
1788108191087360300,6.2893603515625,-0.13007499277591705,-0.035612501204013824,-0.09033749997615814
1788108191097448400,6.299448486328125,-0.15950000286102295,0.023099999874830246,0.01966249942779541
1788108191107542300,6.309542236328125,-0.17407499253749847,0.062150001525878906,0.10766249895095825
1788108191117635600,6.319635498046875,-0.16802500188350677,0.06943749636411667,0.14300000667572021
1788108191127719700,6.3297197265625,-0.16307500004768372,0.049912501126527786,0.14300000667572021
1788108191137812200,6.339812255859375,-0.16431249678134918,0.027912499383091927,0.15895000100135803
1788108191147908400,6.349908447265625,-0.15950000286102295,0.018149999901652336,0.20418749749660492
1788108191157994200,6.359994140625,-0.1508374959230423,0.02914999984204769,0.2615250051021576
1788108191168085800,6.370085693359375,-0.13983750343322754,0.05486249923706055,0.3190000057220459
1788108191178172200,6.380172119140625,-0.1288374960422516,0.05967500060796738,0.3630000054836273
1788108191188250000,6.39025,-0.10078749805688858,0.015675000846385956,0.38609999418258667
1788108191198343000,6.400343017578125,-0.06531249731779099,-0.0611874982714653,0.38609999418258667
1788108191208434400,6.410434326171875,-0.03231250122189522,-0.1699499934911728,0.3653374910354614
1788108191218537000,6.420536865234375,-0.006737499963492155,-0.2652375102043152,0.3250499963760376
1788108191228627000,6.430626953125,0.0017874999903142452,-0.30799999833106995,0.29205000400543213
1788108191238720500,6.440720458984375,-0.006737499963492155,-0.305525004863739,0.2774749994277954
1788108191248807400,6.450807373046875,-0.022549999877810478,-0.2579500079154968,0.25423750281333923
1788108191258903300,6.4609033203125,-0.03973750025033951,-0.1699499934911728,0.20418749749660492
1788108191268990000,6.470989990234375,-0.06902500241994858,-0.04908749833703041,0.1344749927520752
1788108191279086800,6.4810869140625,-0.10202500224113464,0.09143749624490738,0.09418749809265137
1788108191289171200,6.491171142578125,-0.13007499277591705,0.19772499799728394,0.11495000123977661
1788108191299278800,6.50127880859375,-0.13983750343322754,0.2576749920845032,0.16747500002384186
1788108191309365200,6.511365234375,-0.12402500212192535,0.2686749994754791,0.1882375031709671
1788108191319468000,6.521468017578125,-0.08978749811649323,0.234437495470047,0.1699499934911728
1788108191329555500,6.531555419921875,-0.05321250110864639,0.17215000092983246,0.15523749589920044
1788108191339642400,6.541642333984375,-0.026262499392032623,0.10119999945163727,0.1467124968767166
1788108191349716000,6.551716064453125,-0.005499999970197678,0.0681999996304512,0.13942499458789825
1788108191359811800,6.561811767578125,0.0030249999836087227,0.07809999585151672,0.14176249504089355
1788108191369902600,6.571902587890625,-0.005499999970197678,0.09638749808073044,0.1601874977350235
1788108191379992300,6.581992431640625,-0.020212499424815178,0.12072499841451645,0.19442500174045563
1788108191390082300,6.592082275390625,-0.027499999850988388,0.11715000122785568,0.22728750109672546
1788108191400175000,6.602175048828125,-0.022549999877810478,0.07438749819993973,0.23704999685287476
1788108191410267400,6.612267333984375,-0.004124999977648258,0.0012374999932944775,0.20542499423027039
1788108191420364300,6.6223642578125,0.021587500348687172,-0.06971249729394913,0.1443749964237213
1788108191430456300,6.632456298828125,0.03506249934434891,-0.10999999940395355,0.0845625028014183
1788108191440554000,6.642553955078125,0.030112499371170998,-0.11371249705553055,0.055137500166893005
1788108191450646000,6.65264599609375,0.024062499403953552,-0.09404999762773514,0.06366249918937683
1788108191460748300,6.662748291015625,0.022824998944997787,-0.07204999774694443,0.08937499672174454
1788108191470842000,6.672842041015625,0.024062499403953552,-0.06847500056028366,0.0943249985575676
1788108191480945000,6.68294482421875,0.03739999979734421,-0.10999999940395355,0.04908749833703041
1788108191491034400,6.693034423828125,0.05335000157356262,-0.1882375031709671,-0.03396249935030937
1788108191501129700,6.703129638671875,0.05939999967813492,-0.24433749914169312,-0.13791249692440033
1788108191511222300,6.71322216796875,0.05211250111460686,-0.23457500338554382,-0.22948749363422394
1788108191521321000,6.723321044921875,0.021587500348687172,-0.13199999928474426,-0.26001250743865967
1788108191531412200,6.733412109375,-0.03946249932050705,0.03657500073313713,-0.24172499775886536
1788108191541509400,6.74350927734375,-0.1116499975323677,0.24914999306201935,-0.1915374994277954
1788108191551594500,6.753594482421875,-0.17270000278949738,0.45567500591278076,-0.10724999755620956
1788108191561693400,6.763693359375,-0.2092749923467636,0.6157249808311462,-0.0034374999813735485
1788108191571777000,6.773777099609375,-0.20817500352859497,0.6474875211715698,0.07961250096559525
1788108191581874200,6.783874267578125,-0.17022499442100525,0.5680124759674072,0.11261250078678131
1788108191591965700,6.793965576171875,-0.11769999563694,0.40796250104904175,0.0966624990105629
1788108191602057000,6.804056884765625,-0.06641250103712082,0.21504999697208405,0.07108750194311142
1788108191612151000,6.814151123046875,-0.02736249938607216,0.018287500366568565,0.047849997878074646
1788108191622249700,6.824249755859375,-0.0016499999910593033,-0.17352500557899475,0.010037500411272049
1788108191632351700,6.834351806640625,0.019112499430775642,-0.3018124997615814,-0.06091250106692314
1788108191642444000,6.844444091796875,0.013062499463558197,-0.3273875117301941,-0.11467500030994415
1788108191652537900,6.854537841796875,-0.03217500075697899,-0.24928750097751617,-0.08524999767541885
1788108191662620700,6.86462060546875,-0.0798875018954277,-0.14547500014305115,0.008799999952316284
1788108191672713500,6.87471337890625,-0.09569999575614929,-0.0635249987244606,0.10889999568462372
1788108191682803000,6.884802978515625,-0.10064999759197235,0.004812499973922968,0.1639000028371811
1788108191692898000,6.89489794921875,-0.113987497985363,0.03423750028014183,0.1443749964237213
1788108191702984700,6.904984619140625,-0.10546249896287918,0.04881250113248825,0.07590000331401825
1788108191713078000,6.915078125,-0.06888750195503235,0.05128749832510948,0.028324998915195465
1788108191723171000,6.925171142578125,-0.02736249938607216,0.014574999921023846,0.035612501204013824
1788108191733270500,6.9352705078125,0.020349999889731407,-0.045237500220537186,0.06737499684095383
1788108191743357200,6.945357177734375,0.0789249986410141,-0.14904999732971191,0.06984999775886536
1788108191753447200,6.955447265625,0.11935000121593475,-0.2638624906539917,0.02956249937415123
1788108191763535600,6.96553564453125,0.1266375035047531,-0.36781248450279236,-0.03272499889135361
1788108191773625300,6.975625244140625,0.09239999949932098,-0.42157500982284546,-0.09143749624490738
1788108191783710000,6.9857099609375,0.03863750025629997,-0.35186249017715454,-0.12196250259876251
1788108191793803800,6.9958037109375,-0.045649997889995575,-0.15152500569820404,-0.0999625027179718
1788108191803888400,7.005888427734375,-0.1396999955177307,0.1013374999165535,-0.020624998956918716
1788108191813979600,7.015979736328125,-0.2167000025510788,0.31638750433921814,0.09184999763965607
1788108191824061700,7.026061767578125,-0.27527499198913574,0.4422000050544739,0.1919499933719635
1788108191834157600,7.036157470703125,-0.30951249599456787,0.5044875144958496,0.25671249628067017
1788108191844242700,7.04624267578125,-0.31556248664855957,0.503250002861023,0.28971248865127563
1788108191854332200,7.056332275390625,-0.304562509059906,0.42762500047683716,0.29218751192092896
1788108191864412700,7.06641259765625,-0.28022500872612,0.3359124958515167,0.23718750476837158
1788108191874513700,7.076513671875,-0.2484624981880188,0.210099995136261,0.18466250598430634
1788108191884608500,7.0866083984375,-0.19470000267028809,0.03904999792575836,0.10889999568462372
1788108191894708700,7.096708740234375,-0.11769999563694,-0.10752499848604202,0.023375000804662704
1788108191904792800,7.106792724609375,-0.05912499874830246,-0.2199999988079071,-0.04372499883174896
1788108191914887700,7.1168876953125,-0.038362499326467514,-0.3971000015735626,-0.11467500030994415
1788108191924979200,7.126979248046875,-0.048124998807907104,-0.38981249928474426,-0.12443749606609344
1788108191935072800,7.13707275390625,-0.006599999964237213,-0.3592875003814697,-0.0644875019788742
1788108191945156600,7.147156494140625,0.013062499463558197,-0.3763374984264374,-0.020624998956918716
1788108191955252700,7.157252685546875,0.0056374999694526196,-0.340862512588501,0.050324998795986176
1788108191965344000,7.167343994140625,0.0056374999694526196,-0.29452499747276306,0.14066250622272491
1788108191975442000,7.17744189453125,0.010587500408291817,-0.2737624943256378,0.20913749933242798
1788108191985534700,7.18753466796875,0.010587500408291817,-0.28476250171661377,0.22261250019073486
1788108191995632600,7.197632568359375,0.021587500348687172,-0.2517625093460083,0.18466250598430634
1788108192005721900,7.207721923828125,0.04358749836683273,-0.15399999916553497,0.14190000295639038
1788108192015812000,7.21781201171875,0.05816249921917915,-0.057475000619888306,0.12113749980926514
1788108192025911800,7.227911865234375,0.06063750013709068,0.030524998903274536,0.10642500221729279
1788108192036007700,7.238007568359375,0.05582499876618385,0.12086249887943268,0.07837499678134918
1788108192046097200,7.24809716796875,0.05458749830722809,0.18933749198913574,0.033137500286102295
1788108192056199400,7.258199462890625,0.06792499870061874,0.2358125001192093,-0.030387500301003456
1788108192066289200,7.2682890625,0.08139999955892563,0.25533750653266907,-0.08648750185966492
1788108192076382700,7.2783828125,0.09735000133514404,0.2283875048160553,-0.1280124932527542
1788108192086529300,7.288529296875,0.12058749794960022,0.20762500166893005,-0.15619999170303345
1788108192096611600,7.298611572265625,0.13763749599456787,0.2003374993801117,-0.18177500367164612
1788108192106705200,7.308705078125,0.15344999730587006,0.16005000472068787,-0.18548749387264252
1788108192116792300,7.318792236328125,0.1266375035047531,0.0170499999076128,-0.18177500367164612
1788108192126883300,7.32888330078125,0.09239999949932098,-0.07699999958276749,-0.19043749570846558
1788108192136972800,7.338972900390625,0.08635000139474869,-0.17104999721050262,-0.22220000624656677
1788108192147055900,7.349055908203125,0.05458749830722809,0.002337499987334013,-0.3003000020980835
1788108192157141500,7.3591416015625,-0.007699999958276749,0.015812499448657036,-0.09748750180006027
1788108192167221200,7.36922119140625,-0.018699999898672104,-0.08304999768733978,-0.05238749831914902
1788108192177310200,7.379310302734375,0.019112499430775642,-0.07576250284910202,-0.05472499877214432
1788108192187405000,7.389405029296875,0.04963750019669533,-0.07576250284910202,-0.08524999767541885
1788108192197496300,7.399496337890625,0.07163749635219574,-0.06599999964237213,-0.08167500048875809
1788108192207588400,7.40958837890625,0.0826374962925911,-0.04895000159740448,-0.07067500054836273
1788108192217676800,7.4196767578125,0.07163749635219574,-0.018424998968839645,-0.07067500054836273
1788108192227773200,7.429773193359375,0.07039999961853027,0.010999999940395355,-0.08772499859333038
1788108192237866500,7.439866455078125,0.08139999955892563,0.02928750030696392,-0.11467500030994415
1788108192247962000,7.449962158203125,0.08882500231266022,0.045099999755620956,-0.14767499268054962
1788108192258049500,7.460049560546875,0.09363749623298645,0.04028749838471413,-0.18301250040531158
1788108192268134000,7.4701337890625,0.10092499852180481,0.03657500073313713,-0.2172500044107437
1788108192278222300,7.480222412109375,0.10092499852180481,0.05252499878406525,-0.22220000624656677
1788108192288312000,7.49031201171875,0.09363749623298645,0.059812501072883606,-0.18672500550746918
1788108192298393900,7.500393798828125,0.0789249986410141,0.05857500061392784,-0.13048750162124634
1788108192308485400,7.5104853515625,0.06435000151395798,0.05004999786615372,-0.08167500048875809
1788108192318581000,7.5205810546875,0.05087500065565109,0.028049999848008156,-0.06572499871253967
1788108192328681500,7.530681396484375,0.028875000774860382,0.035337500274181366,-0.06338749825954437
1788108192338780400,7.540780517578125,0.013062499463558197,0.09652499854564667,-0.022962499409914017
1788108192348868400,7.550868408203125,0.04235000163316727,0.13805000483989716,0.07356250286102295
1788108192358970000,7.56097021484375,0.03506249934434891,0.2125750035047531,0.16266250610351562
1788108192369064700,7.571064697265625,0.028875000774860382,0.23333749175071716,0.23361249268054962
1788108192379159600,7.58115966796875,0.05816249921917915,0.1966249942779541,0.24213749170303345
1788108192389244400,7.591244384765625,0.1106875017285347,0.12828749418258667,0.19813749194145203
1788108192399341000,7.601341064453125,0.14492499828338623,0.06476250290870667,0.1443749964237213
1788108192409438700,7.611438720703125,0.1498750001192093,0.05128749832510948,0.11866249889135361
1788108192419534600,7.62153466796875,0.13516250252723694,0.1013374999165535,0.11742500215768814
1788108192429616600,7.63161669921875,0.1106875017285347,0.18205000460147858,0.13708749413490295
1788108192439710200,7.641710205078125,0.09239999949932098,0.2516250014305115,0.1639000028371811
1788108192449803300,7.65180322265625,0.09487500041723251,0.2956250011920929,0.17737500369548798
1788108192459903500,7.661903564453125,0.1106875017285347,0.28462499380111694,0.15908749401569366
1788108192469987800,7.67198779296875,0.11811249703168869,0.24062499403953552,0.12113749980926514
1788108192480080400,7.682080322265625,0.13887499272823334,0.21381250023841858,0.07356250286102295
1788108192490172000,7.692171875,0.15963749587535858,0.21986250579357147,0.04179999977350235
1788108192500263200,7.70226318359375,0.18768750131130219,0.20762500166893005,0.018562499433755875
1788108192510346500,7.712346435546875,0.2414499968290329,0.17833749949932098,-0.05967500060796738
1788108192520445000,7.72244482421875,0.2671625018119812,0.1648624986410141,-0.1451999992132187
1788108192530538200,7.732538330078125,0.2903999984264374,0.12457499653100967,-0.2307250052690506
1788108192540634400,7.74263427734375,0.2817375063896179,0.20281249284744263,-0.2404875010251999
1788108192550736400,7.752736328125,0.2634499967098236,0.21738749742507935,-0.16224999725818634
1788108192560842200,7.76284228515625,0.17063750326633453,0.07081250101327896,-0.0681999996304512
1788108192570934500,7.7729345703125,0.10958749800920486,0.1013374999165535,0.09790000319480896
1788108192581028000,7.783028076171875,0.09611249715089798,-0.025712499395012856,0.1480875015258789
1788108192591115500,7.793115478515625,0.021587500348687172,-0.09652499854564667,0.07713750004768372
1788108192601215500,7.803215576171875,-0.048124998807907104,-0.10271249711513519,0.02708750031888485
1788108192611311000,7.81331103515625,-0.08841250091791153,-0.07095000147819519,-0.008387500420212746
1788108192621403000,7.82340283203125,-0.11769999563694,0.12952500581741333,0.02708750031888485
1788108192631496700,7.83349658203125,-0.18975000083446503,0.38843750953674316,0.14918750524520874
1788108192641590000,7.843590087890625,-0.2569875121116638,0.3091000020503998,0.26042500138282776
1788108192651669500,7.85366943359375,-0.2264624983072281,0.428725004196167,0.40094998478889465
1788108192661759200,7.86375927734375,-0.22398750483989716,0.2320999950170517,0.4375250041484833
1788108192671854000,7.87385400390625,-0.23746250569820404,0.13186250627040863,0.4045250117778778
1788108192681948700,7.88394873046875,-0.21917499601840973,-0.030524998903274536,0.2763749957084656
1788108192692043000,7.89404296875,-0.15674999356269836,-0.14547500014305115,0.0845625028014183
1788108192702140400,7.904140380859375,-0.07617499679327011,-0.25905001163482666,-0.11715000122785568
1788108192712237000,7.914237060546875,-0.040699999779462814,-0.2675749957561493,-0.2624875009059906
1788108192722331400,7.924331298828125,-0.007699999958276749,-0.17476250231266022,-0.32848748564720154
1788108192732434700,7.9344345703125,0.008112499490380287,-0.2102375030517578,-0.4175874888896942
1788108192742531300,7.94453125,0.015399999916553497,-0.24076250195503235,-0.5543999671936035
1788108192752630000,7.954630126953125,0.0032999999821186066,-0.16499999165534973,-0.6839249730110168
1788108192762717700,7.9647177734375,-0.03217500075697899,0.0085249999538064,-0.7279250025749207
1788108192772801000,7.974801025390625,-0.09569999575614929,0.21133749186992645,-0.6643999814987183
1788108192782894800,7.984894775390625,-0.1849374920129776,0.43738749623298645,-0.5105375051498413
1788108192792984000,7.994984130859375,-0.28146249055862427,0.7073000073432922,-0.28929999470710754
1788108192803071700,8.00507177734375,-0.35475000739097595,0.9125875234603882,-0.021724998950958252
1788108192813158100,8.015158203125,-0.3975124955177307,1.0884499549865723,0.2677125036716461
1788108192823248000,8.025247802734375,-0.4292750060558319,1.1752125024795532,0.5377625226974487
1788108192833329200,8.0353291015625,-0.4207499921321869,1.1166374683380127,0.7160999774932861
1788108192843421000,8.0454208984375,-0.38403749465942383,0.9003499746322632,0.7210500240325928
1788108192853505500,8.055505615234376,-0.31927499175071716,0.6242499947547913,0.5658124685287476
1788108192863594800,8.0655947265625,-0.22522500157356262,0.428725004196167,0.3190000057220459
1788108192873684200,8.075684326171874,-0.12993749976158142,0.27857500314712524,0.05884999781847
1788108192883775200,8.085775146484375,-0.03946249932050705,0.14533749222755432,-0.11824999749660492
1788108192893859800,8.09585986328125,0.05335000157356262,0.07576250284910202,-0.1451999992132187
1788108192903947300,8.105947265625,0.1326874941587448,-0.02199999988079071,-0.05596249923110008
1788108192914030300,8.1160302734375,0.15839999914169312,-0.11247500032186508,0.0648999959230423
1788108192924129000,8.12612890625,0.1498750001192093,-0.1979999989271164,0.1260875016450882
1788108192934209500,8.13620947265625,0.1266375035047531,-0.32381248474121094,0.050324998795986176
1788108192944296200,8.146296142578125,0.1303499937057495,-0.4655750095844269,-0.19401249289512634
1788108192954383400,8.15638330078125,0.14011250436306,-0.48510000109672546,-0.5190625190734863
1788108192964481800,8.166481689453125,0.15716250240802765,-0.4423374831676483,-0.7438749670982361
1788108192974565600,8.176565673828126,0.1106875017285347,-0.2700499892234802,-0.7706875205039978
1788108192984663300,8.186663330078124,0.04839999973773956,-0.13805000483989716,-0.5874000191688538
1788108192994746000,8.19674609375,-0.03341250121593475,-0.1050499975681305,-0.32848748564720154
1788108193004845600,8.206845458984375,-0.10546249896287918,-0.09171249717473984,-0.0999625027179718
1788108193014931500,8.216931396484375,-0.16417500376701355,-0.02447500079870224,0.09308750182390213
1788108193025030100,8.227030029296875,-0.2227499932050705,0.07933750003576279,0.26647499203681946
1788108193035152100,8.237152099609375,-0.2667500078678131,0.1588124930858612,0.4314749836921692
1788108193045247500,8.24724755859375,-0.2765125036239624,0.18081249296665192,0.546287477016449
1788108193055335700,8.257335693359375,-0.2569875121116638,0.15028749406337738,0.5732374787330627
1788108193065426000,8.267426025390625,-0.23251250386238098,0.12581250071525574,0.4717625081539154
1788108193075522000,8.27752197265625,-0.15674999356269836,0.01223750039935112,0.3068999946117401
1788108193085618000,8.287617919921875,-0.12993749976158142,-0.09171249717473984,0.1223749965429306
1788108193095698200,8.2976982421875,-0.11522500216960907,-0.15757499635219574,-0.011962499469518661
1788108193105796600,8.307796630859375,-0.089649997651577,-0.1527625024318695,-0.037675000727176666
1788108193115884500,8.317884521484375,-0.0859375,-0.09171249717473984,0.030799999833106995
1788108193125976600,8.3279765625,-0.09817499667406082,-0.05376249924302101,0.1443749964237213
1788108193136063200,8.338063232421876,-0.07864999771118164,-0.06228749826550484,0.22261250019073486
1788108193146152200,8.348152099609376,0.006874999962747097,-0.09776250272989273,0.24447499215602875
1788108193156244500,8.358244384765625,0.04235000163316727,-0.17723749577999115,0.17242500185966492
1788108193166339600,8.368339599609374,0.06435000151395798,-0.18081249296665192,0.05884999781847
1788108193176431900,8.378431884765625,0.07411249727010727,-0.19552500545978546,-0.0193875003606081
1788108193186525000,8.38852490234375,0.07535000145435333,-0.22110000252723694,-0.0644875019788742
1788108193196610600,8.398610595703126,0.06792499870061874,-0.2297624945640564,-0.08415000140666962
1788108193206692400,8.4086923828125,0.05458749830722809,-0.17476250231266022,-0.07919999957084656
1788108193216780000,8.418780029296874,0.0448249988257885,-0.04399999976158142,-0.0193875003606081
1788108193226912000,8.428912109375,0.014299999922513962,0.05857500061392784,0.09308750182390213
1788108193236993000,8.438992919921875,-0.004124999977648258,0.08428750187158585,0.1859000027179718
1788108193247084500,8.44908447265625,0.0008249999955296516,0.0695749968290329,0.19813749194145203
1788108193257170200,8.459170166015625,0.021587500348687172,0.007287499960511923,0.13708749413490295
1788108193267267600,8.469267578125,0.05582499876618385,-0.04647500067949295,0.038087498396635056
1788108193277362000,8.47936181640625,0.0789249986410141,-0.05128749832510948,-0.03162499889731407
1788108193287458300,8.489458251953126,0.0789249986410141,-0.025712499395012856,-0.040150001645088196
1788108193297556700,8.499556640625,0.06435000151395798,0.00976249948143959,-0.005912499967962503
1788108193307652400,8.50965234375,0.03506249934434891,0.05128749832510948,0.018562499433755875
1788108193317745400,8.519745361328125,0.008112499490380287,0.07452499866485596,0.02956249937415123
1788108193327840500,8.529840576171875,-0.008937500417232513,0.08676250278949738,0.04661250114440918
1788108193337934000,8.53993408203125,-0.03712499886751175,0.09281250089406967,0.0625625029206276
1788108193348022300,8.550022216796876,-0.013887500390410423,0.00976249948143959,0.07356250286102295
1788108193358115800,8.56011572265625,-0.02488750033080578,-0.050187498331069946,0.05389999970793724
1788108193368211200,8.570211181640625,-0.01746249943971634,-0.059950001537799835,0.030799999833106995
1788108193378317000,8.580317138671875,-0.03341250121593475,-0.025712499395012856,0.025849999859929085
1788108193388417500,8.59041748046875,-0.035887498408555984,-0.023237500339746475,0.033137500286102295
1788108193398516200,8.60051611328125,-0.050462499260902405,-0.04028749838471413,0.013612499460577965
1788108193408621300,8.610621337890626,-0.0541750006377697,0.0035749999806284904,0.01979999989271164
1788108193418723600,8.6207236328125,-0.040699999779462814,-0.05623750016093254,0.025849999859929085
1788108193428822300,8.630822265625,-0.055412501096725464,-0.08304999768733978,-0.008387500420212746
1788108193438915600,8.64091552734375,-0.050462499260902405,-0.10752499848604202,-0.07067500054836273
1788108193448998000,8.650997802734375,-0.043175000697374344,-0.10876250267028809,-0.1317249983549118
1788108193459082500,8.66108251953125,-0.057887498289346695,-0.06847500056028366,-0.16101250052452087
1788108193469180700,8.6711806640625,-0.08346249908208847,0.04881250113248825,-0.12691250443458557
1788108193479266800,8.681266845703124,-0.10422500222921371,0.2003374993801117,-0.03519999980926514
1788108193489364200,8.6913642578125,-0.10793749988079071,0.340862512588501,0.08937499672174454
1788108193499456300,8.701456298828125,-0.09941250085830688,0.4361499845981598,0.23361249268054962
1788108193509553200,8.71155322265625,-0.089649997651577,0.40562498569488525,0.33742499351501465
1788108193519642600,8.721642578125,-0.0541750006377697,0.2761000096797943,0.353237509727478
1788108193529731800,8.73173193359375,0.013062499463558197,0.07204999774694443,0.2689499855041504
1788108193539846000,8.741845947265626,0.05211250111460686,-0.04028749838471413,0.1541374921798706
1788108193549941500,8.75194140625,0.06792499870061874,-0.05623750016093254,0.10642500221729279
1788108193560028200,8.762028076171875,0.05335000157356262,-0.01952499896287918,0.14685000479221344
1788108193570125000,8.772125,0.04358749836683273,0.014574999921023846,0.19442500174045563
1788108193580211000,8.7822109375,0.05087500065565109,0.047575000673532486,0.20542499423027039
1788108193590301700,8.7923017578125,0.05816249921917915,0.08552499860525131,0.20295000076293945
1788108193600394200,8.802394287109376,0.03616249933838844,0.11962500214576721,0.22261250019073486
1788108193610490400,8.812490478515626,0.03987500071525574,0.08676250278949738,0.2774749994277954
1788108193620580900,8.822580810546874,0.07039999961853027,-0.01223750039935112,0.3104749917984009
1788108193630673000,8.8326728515625,0.12292499840259552,-0.17104999721050262,0.26042500138282776
1788108193640761600,8.84276171875,0.15716250240802765,-0.4068624973297119,0.0845625028014183
1788108193650861300,8.852861328125,0.1938749998807907,-0.681725025177002,-0.22577500343322754
1788108193660953000,8.862953125,0.21092499792575836,-0.8515374660491943,-0.5483499765396118
1788108193671046000,8.8730458984375,0.18645000457763672,-0.7745375037193298,-0.7414000034332275
1788108193681134000,8.883134033203126,0.09735000133514404,-0.46915000677108765,-0.7071624994277954
1788108193691229700,8.893229736328125,-0.043175000697374344,-0.0012374999932944775,-0.49211248755455017
1788108193701321000,8.903321044921874,-0.16651250422000885,0.4251500070095062,-0.2087250053882599
1788108193711419100,8.913419189453125,-0.20817500352859497,0.6914874911308289,0.018562499433755875
1788108193721510000,8.923510009765625,-0.1592250019311905,0.7623000144958496,0.1504250019788742
1788108193731601400,8.933601318359376,-0.06888750195503235,0.6730625033378601,0.1896124929189682
1788108193741688300,8.943688232421875,0.010587500408291817,0.4776749908924103,0.16513749957084656
1788108193751778300,8.9537783203125,0.07039999961853027,0.2638624906539917,0.1163249984383583
1788108193761873200,8.963873046875,0.10216250270605087,0.1270499974489212,0.09790000319480896
1788108193771970300,8.97397021484375,0.08511249721050262,0.11481250077486038,0.15289999544620514
1788108193792160500,8.994160400390625,-0.015124999918043613,0.2626250088214874,0.4351874887943268
1788108193802253300,9.00425341796875,-0.015124999918043613,0.2003374993801117,0.5047624707221985
1788108193812348400,9.014348388671875,0.05211250111460686,-0.00494999997317791,0.44728749990463257
1788108193822433300,9.024433349609374,0.11687500029802322,-0.29452499747276306,0.2591874897480011
1788108193832529200,9.034529052734374,0.14011250436306,-0.5033875107765198,0.033137500286102295
1788108193842627600,9.044627685546875,0.11935000121593475,-0.5143874883651733,-0.1036750003695488
1788108193852731000,9.05473095703125,0.09611249715089798,-0.4618625044822693,-0.13420000672340393
1788108193862812200,9.064812255859374,0.10216250270605087,-0.48743748664855957,-0.15248750150203705
1788108193872903400,9.0749033203125,0.11687500029802322,-0.5974375009536743,-0.2857249975204468
1788108193882995000,9.084994873046876,0.10339999943971634,-0.594962477684021,-0.508062481880188
1788108193893085000,9.0950849609375,0.0411125011742115,-0.369049996137619,-0.6106374859809875
1788108193903164200,9.1051640625,-0.06888750195503235,-0.03423750028014183,-0.46777498722076416
1788108193913258200,9.11525830078125,-0.16169999539852142,0.23457500338554382,-0.18548749387264252
1788108193923342600,9.125342529296875,-0.18741250038146973,0.38843750953674316,0.06132499873638153
1788108193933437000,9.13543701171875,-0.1494625061750412,0.4801499843597412,0.18342499434947968
1788108193943528200,9.145528076171875,-0.09322500228881836,0.5216749906539917,0.23237499594688416
1788108193953619200,9.155619140625,-0.06641250103712082,0.476437509059906,0.281187504529953
1788108193963712000,9.1657119140625,-0.04441250115633011,0.34443750977516174,0.3349500000476837
1788108193973809000,9.175808837890624,0.013062499463558197,0.19181250035762787,0.353237509727478
1788108193983895300,9.185895263671876,0.09735000133514404,0.05857500061392784,0.32147499918937683
1788108193993992700,9.19599267578125,0.20363749563694,-0.08676250278949738,0.23718750476837158
1788108194004074000,9.206073974609374,0.2451625019311905,-0.22123749554157257,0.12484999746084213
1788108194014169000,9.216169189453124,0.2694999873638153,-0.2773374915122986,0.030799999833106995
1788108194024247000,9.2262470703125,0.25616249442100525,-0.2798124849796295,-0.027912499383091927
1788108194034346200,9.23634619140625,0.2059749960899353,-0.24681249260902405,-0.0644875019788742
1788108194044434400,9.246434326171874,0.15963749587535858,-0.21381250023841858,-0.12925000488758087
1788108194054531600,9.256531494140624,0.11687500029802322,-0.06599999964237213,-0.2527250051498413
1788108194064620800,9.266620849609374,0.11316250264644623,0.14781250059604645,-0.31501248478889465
1788108194074721000,9.276720947265625,0.05211250111460686,0.45691248774528503,-0.24901250004768372
1788108194084799700,9.2867998046875,0.05582499876618385,0.7097749710083008,0.013612499460577965
1788108194094893000,9.29689306640625,0.03739999979734421,0.6315374970436096,0.21271249651908875
1788108194104987100,9.306987060546875,0.027637500315904617,0.7195374965667725,0.3166624903678894
1788108194125174300,9.32717431640625,0.002062499988824129,0.5875374674797058,0.2628999948501587
1788108194135268000,9.33726806640625,-0.048124998807907104,0.34814998507499695,0.24695000052452087
1788108194145360100,9.347360107421874,-0.011412499472498894,0.4311999976634979,0.3386625051498413
1788108194155456800,9.357456787109374,-0.03217500075697899,0.2381500005722046,0.32147499918937683
1788108194165544400,9.36754443359375,-0.06517499685287476,0.11233749985694885,0.21642500162124634
1788108194175664600,9.37766455078125,-0.089649997651577,0.17710000276565552,0.15289999544620514
1788108194185756200,9.387756103515626,-0.06641250103712082,0.23086249828338623,0.233474999666214
1788108194195852000,9.39785205078125,0.12044999748468399,0.15386250615119934,0.44123750925064087
1788108194205938200,9.407938232421875,0.17063750326633453,0.19415000081062317,0.7063375115394592
1788108194216029400,9.418029541015626,0.1999250054359436,0.18438750505447388,0.9384375214576721
1788108194226116600,9.42811669921875,0.08511249721050262,-0.15399999916553497,0.9568625092506409
1788108194236211000,9.4382109375,-0.021175000816583633,-0.43738749623298645,0.807812511920929
1788108194246301400,9.448301513671876,-0.07741250097751617,-0.520437479019165,0.455949991941452
1788108194256392200,9.45839208984375,-0.06146249920129776,-0.5449125170707703,-0.05596249923110008
1788108194266492700,9.46849267578125,0.03987500071525574,-0.6682500243186951,-0.5202999711036682
1788108194276588000,9.478588134765625,0.17668749392032623,-0.7501999735832214,-0.726687490940094
1788108194286689300,9.488689208984376,0.26592499017715454,-0.6389625072479248,-0.6705874800682068
1788108194296777500,9.498777587890626,0.2451625019311905,-0.45333749055862427,-0.444537490606308
1788108194306865700,9.50886572265625,0.10587500035762787,-0.3091000020503998,-0.20377500355243683
1788108194316956000,9.518955810546874,-0.02488750033080578,0.09776250272989273,-0.04372499883174896
1788108194327051500,9.529051513671876,-0.06270000338554382,0.24062499403953552,-0.015675000846385956
1788108194337137000,9.539136962890625,-0.07136250287294388,0.18933749198913574,-0.12815000116825104
1788108194347234800,9.54923486328125,-0.08841250091791153,0.16128750145435333,-0.317487508058548
1788108194357319400,9.5593193359375,-0.07012499868869781,0.29809999465942383,-0.5178250074386597
1788108194367407600,9.56940771484375,-0.02488750033080578,0.4409624934196472,-0.6424000263214111
1788108194377500200,9.579500244140625,0.05335000157356262,0.22481249272823334,-0.6668750047683716
1788108194387595300,9.58959521484375,0.024062499403953552,0.2125750035047531,-0.6253499984741211
1788108194397689300,9.599689453125,0.03258749842643738,0.16609999537467957,-0.4982999861240387
1788108194407781000,9.609781005859375,-0.016362499445676804,0.15138749778270721,-0.453062504529953
1788108194417868000,9.619867919921875,0.002062499988824129,0.01223750039935112,-0.43834999203681946
1788108194427954700,9.62995458984375,0.008112499490380287,0.09281250089406967,-0.6386874914169312
1788108194438043600,9.640043701171875,0.09735000133514404,-0.08195000141859055,-0.5898749828338623
1788108194448134100,9.650134033203125,0.11811249703168869,-0.4606249928474426,-0.6289250254631042
1788108194458214100,9.660214111328125,0.1938749998807907,-0.8637750148773193,-0.6888750195503235
1788108194468304100,9.67030419921875,0.31597501039505005,-1.1435874700546265,-0.7071624994277954
1788108194478389200,9.68038916015625,0.3782624900341034,-1.364687442779541,-0.6546375155448914
1788108194488474600,9.690474609375,0.37097498774528503,-1.3292125463485718,-0.5116375088691711
1788108194498574000,9.700573974609375,0.3404499888420105,-1.2131625413894653,-0.32477501034736633
1788108194508662000,9.710662109375,0.27568748593330383,-1.1606374979019165,-0.1414874941110611
1788108194518753000,9.7207529296875,0.18039999902248383,-1.168062448501587,0.020899999886751175
1788108194528844500,9.730844482421874,0.09858749806880951,-1.2926374673843384,0.1223749965429306
1788108194538946000,9.740946044921875,0.03739999979734421,-1.3341624736785889,0.1859000027179718
1788108194549036300,9.751036376953126,0.0031624999828636646,-1.3499749898910522,0.20061250030994415
1788108194559129900,9.7611298828125,0.026399999856948853,-1.3719749450683594,0.13708749413490295
1788108194569223000,9.771222900390624,0.1143999993801117,-1.1789250373840332,-0.05362499877810478
1788108194579319800,9.78131982421875,0.2989250123500824,-0.8833000063896179,-0.29301249980926514
1788108194589409800,9.791409912109375,0.3489750027656555,-0.6291999816894531,-0.4175874888896942
1788108194599509000,9.801509033203125,0.2634499967098236,-0.38005000352859497,-0.36024999618530273
1788108194609598500,9.811598388671875,0.12787500023841858,0.004812499973922968,-0.12443749606609344
1788108194619696600,9.821696533203125,-0.04441250115633011,0.3041499853134155,0.2139499932527542
1788108194629791700,9.831791748046875,-0.1714625060558319,0.4141499996185303,0.4680500030517578
1788108194639889700,9.8418896484375,-0.11646249890327454,0.47148749232292175,0.6623374819755554
1788108194649981400,9.8519814453125,-0.004124999977648258,0.08676250278949738,0.5842375159263611
1788108194660075800,9.86207568359375,0.08758749812841415,-0.30057498812675476,0.4045250117778778
1788108194670161700,9.87216162109375,0.14135000109672546,-0.3848625123500824,0.32147499918937683
1788108194680259800,9.882259765625,0.19744999706745148,-0.3983374834060669,0.403425008058548
1788108194690353000,9.892352783203124,0.2634499967098236,-0.2712875008583069,0.4582875072956085
1788108194700451000,9.902451171875,0.24873749911785126,-0.22123749554157257,0.403425008058548
1788108194710544400,9.91254443359375,0.10958749800920486,-0.24076250195503235,0.23842500150203705
1788108194720635100,9.92263525390625,0.008112499490380287,-0.4923875033855438,-0.22453749179840088
1788108194730732300,9.932732177734374,0.09363749623298645,-0.5534374713897705,-0.46777498722076416
1788108194740831000,9.9428310546875,0.19868749380111694,-0.6364874839782715,-0.6791124939918518
1788108194761009000,9.9630087890625,0.12540000677108765,-0.432574987411499,-0.9344499707221985
1788108194771091200,9.97309130859375,0.05211250111460686,-0.15757499635219574,-0.9502624869346619
1788108194781187800,9.983187744140626,0.013062499463558197,0.3004375100135803,-0.9124500155448914
1788108194791280000,9.993280029296875,-0.05664999783039093,0.6682500243186951,-0.8989750146865845
1788108194801379800,10.0033798828125,-0.1751749962568283,1.0261625051498413,-0.909974992275238
1788108194811470300,10.01347021484375,-0.09088750183582306,1.1642124652862549,-0.9882124662399292
1788108194821550000,10.023550048828126,0.028875000774860382,1.2412124872207642,-0.9514999985694885
1788108194831641900,10.033641845703125,0.19139999151229858,1.0346875190734863,-0.9209749698638916
1788108194841741800,10.043741943359375,0.2891624867916107,0.9468249678611755,-0.9564499855041504
1788108194851833600,10.05383349609375,0.1742125004529953,1.0591624975204468,-0.6791124939918518
1788108194861930500,10.063930419921874,0.07411249727010727,1.1141624450683594,-0.32848748564720154
1788108194872022000,10.07402197265625,0.04235000163316727,1.0396374464035034,-0.07796250283718109
1788108194882119000,10.084118896484375,0.06916250288486481,0.8685874938964844,0.02461249940097332
1788108194892213000,10.094212890625,0.14011250436306,0.6657750010490417,0.08937499672174454
1788108194902311200,10.104311279296875,0.14739999175071716,0.5339124798774719,0.1919499933719635
1788108194912408600,10.11440869140625,0.15111249685287476,0.48743748664855957,0.2237125039100647
1788108194922502400,10.12450244140625,0.11687500029802322,0.38596248626708984,0.14561249315738678
1788108194932591900,10.134591796875,0.07535000145435333,0.22591249644756317,-0.010862499475479126
1788108194942681300,10.144681396484375,0.0411125011742115,0.059812501072883606,-0.13048750162124634
1788108194952760300,10.15476025390625,-0.004124999977648258,-0.11123749613761902,-0.08648750185966492
1788108194962851800,10.164851806640625,-0.015124999918043613,-0.18205000460147858,0.11384999752044678
1788108194972941800,10.17494189453125,-0.006599999964237213,-0.15771250426769257,0.3129499852657318
1788108194983030500,10.185030517578125,0.011824999935925007,0.02928750030696392,0.3997125029563904
1788108194993116400,10.195116455078125,0.023924998939037323,0.24186250567436218,0.27994999289512634
1788108195003209700,10.205209716796874,0.023924998939037323,0.31033748388290405,0.030799999833106995
1788108195013297400,10.21529736328125,0.002062499988824129,0.12209999561309814,-0.26001250743865967
1788108195023388200,10.22538818359375,-0.02241249941289425,-0.11852499842643738,-0.4591124951839447
1788108195033479200,10.235479248046875,0.008112499490380287,-0.23828749358654022,-0.3577750027179718
1788108195043563000,10.24556298828125,0.020349999889731407,-0.21752500534057617,-0.020624998956918716
1788108195053649200,10.255649169921876,0.014162499457597733,-0.029424998909235,0.3507624864578247
1788108195063739100,10.2657392578125,0.03863750025629997,0.3334375023841858,0.5963374972343445
1788108195073819000,10.27581884765625,0.0411125011742115,0.6584874987602234,0.6318125128746033
1788108195083911000,10.285910888671875,0.010587500408291817,0.9028249979019165,0.5780500173568726
1788108195094003200,10.296003173828124,0.020349999889731407,0.869825005531311,0.510812520980835
1788108195104096800,10.3060966796875,0.05582499876618385,0.7488250136375427,0.466949999332428
1788108195114173400,10.31617333984375,0.09611249715089798,0.5852000117301941,0.5218124985694885
1788108195124265500,10.326265380859375,0.14492499828338623,0.404387503862381,0.5768125057220459
1788108195134355000,10.33635498046875,0.196212500333786,0.23457500338554382,0.5755749940872192
1788108195144445200,10.346445068359374,0.259737491607666,0.018287500366568565,0.4449499845504761
1788108195154535400,10.356535400390625,0.2989250123500824,-0.1942874938249588,0.18713749945163727
1788108195164634600,10.366634521484375,0.2769249975681305,-0.3348124921321869,-0.04619999974966049
1788108195174717400,10.376717529296876,0.21821250021457672,-0.3310999870300293,-0.07672499865293503
1788108195184811300,10.386811279296875,0.171875,-0.19923749566078186,0.0906125009059906
1788108195194904300,10.396904296875,0.15592500567436218,-0.08318749815225601,0.2824249863624573
1788108195205005300,10.40700537109375,0.14739999175071716,-0.03423750028014183,0.34966251254081726
1788108195215087900,10.417087890625,0.1106875017285347,-0.02447500079870224,0.3092375099658966
1788108195225183200,10.427183349609376,-0.0016499999910593033,-0.30428749322891235,0.1821874976158142
1788108195235276300,10.4372763671875,-0.09817499667406082,-0.24433749914169312,0.01979999989271164
1788108195245364500,10.447364501953125,-0.14464999735355377,-0.21504999697208405,-0.08291249722242355
1788108195255461000,10.457461181640625,-0.15070000290870667,-0.09776250272989273,-0.10243749618530273
1788108195265560800,10.467560791015625,-0.09693749994039536,0.08181250095367432,-0.04867500066757202
1788108195275654700,10.477654541015625,-0.048124998807907104,0.2516250014305115,0.018562499433755875
1788108195285752000,10.487751953125,-0.023649999871850014,0.35420000553131104,0.08208750188350677
1788108195295849500,10.497849365234375,-0.013887500390410423,0.4104374945163727,0.14685000479221344
1788108195305943300,10.507943359375,0.006874999962747097,0.39338749647140503,0.2079000025987625
1788108195316034000,10.518033935546875,0.03616249933838844,0.29315000772476196,0.20295000076293945
1788108195326124800,10.528124755859375,0.05816249921917915,0.28833749890327454,0.1578499972820282
1788108195336211500,10.53821142578125,0.016637500375509262,0.16609999537467957,0.006324999965727329
1788108195346296000,10.548296142578126,-0.08346249908208847,-0.0672374963760376,-0.1732500046491623
1788108195356377300,10.55837744140625,-0.13488750159740448,-0.11976250261068344,-0.37853750586509705
1788108195366468000,10.568468017578125,-0.15193749964237213,-0.1564749926328659,-0.5838249921798706
1788108195376557800,10.578557861328125,-0.11288750171661377,-0.12223749607801437,-0.7231125235557556
1788108195386650400,10.588650390625,0.004399999976158142,-0.07328750193119049,-0.7999749779701233
1788108195396741400,10.598741455078125,0.12911249697208405,-0.0037124999798834324,-0.7976375222206116
1788108195406833700,10.608833740234376,0.1938749998807907,0.0695749968290329,-0.7169250249862671
1788108195416917500,10.61891748046875,0.18645000457763672,0.11110000312328339,-0.5654000043869019
1788108195427014000,10.629013916015625,0.13144999742507935,0.11110000312328339,-0.42006251215934753
1788108195437105700,10.639105712890625,0.08016250282526016,0.07204999774694443,-0.36024999618530273
1788108195447196200,10.649196044921876,0.0668250024318695,-0.029424998909235,-0.3480125069618225
1788108195457278200,10.6592783203125,0.09116250276565552,-0.06971249729394913,-0.3198249936103821
1788108195467369700,10.66936962890625,0.14863750338554382,0.015812499448657036,-0.1891999989748001
1788108195477461500,10.67946142578125,0.2194499969482422,0.15386250615119934,0.013612499460577965
1788108195487552300,10.68955224609375,0.2829749882221222,0.2358125001192093,0.13461250066757202
1788108195497639400,10.699639404296875,0.3367374837398529,0.22962500154972076,0.15289999544620514
1788108195507720700,10.709720703125,0.34402498602867126,0.18205000460147858,0.1798499971628189
1788108195517809200,10.71980908203125,0.2989250123500824,0.11852499842643738,0.26647499203681946
1788108195527892700,10.729892822265626,0.2316875010728836,0.09652499854564667,0.3190000057220459
1788108195537986600,10.739986572265625,0.171875,0.09281250089406967,0.2946625053882599
1788108195548078600,10.75007861328125,0.11687500029802322,0.09157499670982361,0.20666250586509705
1788108195558171100,10.760171142578125,0.07039999961853027,0.06710000336170197,0.05156249925494194
1788108195568266500,10.7702666015625,0.028875000774860382,0.02199999988079071,-0.13420000672340393
1788108195578357800,10.780357666015625,-0.02488750033080578,0.010999999940395355,-0.28696250915527344
1788108195588442400,10.7904423828125,-0.07493750005960464,0.037812501192092896,-0.34306249022483826
1788108195598531300,10.80053125,-0.10917499661445618,0.00976249948143959,-0.27953749895095825
1788108195608625700,10.810625732421874,-0.12264999747276306,-0.018424998968839645,-0.12691250443458557
1788108195618712300,10.82071240234375,-0.11041250079870224,-0.03918749839067459,0.08813749998807907
1788108195628814300,10.830814453125,-0.10422500222921371,-0.04399999976158142,0.34966251254081726
1788108195638909400,10.840909423828125,-0.09817499667406082,0.00976249948143959,0.6085749864578247
1788108195649004500,10.851004638671874,-0.07741250097751617,0.0952875018119812,0.8089125156402588
1788108195659088000,10.861087890625,-0.02488750033080578,0.13062499463558197,0.8713374733924866
1788108195669187300,10.871187255859375,0.028875000774860382,0.15633749961853027,0.7661499977111816
1788108195679274200,10.881274169921875,0.05816249921917915,0.10628750175237656,0.6660500168800354
1788108195689372400,10.891372314453125,0.07535000145435333,-0.0012374999932944775,0.6550499796867371
1788108195699458600,10.90145849609375,0.09968750178813934,-0.09404999762773514,0.6916249990463257
1788108195709555500,10.911555419921875,0.14739999175071716,-0.14547500014305115,0.6745749711990356
1788108195719641600,10.9216416015625,0.2059749960899353,-0.21133749186992645,0.5242875218391418
1788108195729726500,10.9317265625,0.24268749356269836,-0.26633748412132263,0.2689499855041504
1788108195739824400,10.941824462890626,0.2512125074863434,-0.2858625054359436,0.042899999767541885
1788108195749923600,10.951923583984374,0.23897500336170197,-0.23952500522136688,-0.06943749636411667
1788108195760011800,10.96201171875,0.20845000445842743,-0.14904999732971191,-0.020624998956918716
1788108195770131700,10.972131591796876,0.19744999706745148,-0.04152499884366989,0.06613750010728836
1788108195780219000,10.982218994140625,0.20239999890327454,0.042762499302625656,0.09913749992847443
1788108195790310000,10.992309814453124,0.23663750290870667,0.01952499896287918,0.042899999767541885
1788108195800400400,11.002400390625,0.2694999873638153,-0.10876250267028809,-0.09748750180006027
1788108195810500000,11.0125,0.25244998931884766,-0.23704999685287476,-0.2502500116825104
1788108195820595700,11.022595703125,0.15468749403953552,-0.2895750105381012,-0.3590124845504761
1788108195830693400,11.032693359375,0.0008249999955296516,-0.2162874937057495,-0.39806249737739563
1788108195840782000,11.042781982421875,-0.15070000290870667,-0.02694999985396862,-0.35653749108314514
1788108195850881300,11.05288134765625,-0.23993749916553497,0.23333749175071716,-0.2747249901294708
1788108195860973000,11.06297314453125,-0.23127499222755432,0.42996248602867126,-0.19277499616146088
1788108195871070000,11.073070068359375,-0.11041250079870224,0.5094375014305115,-0.11824999749660492
1788108195881158400,11.083158447265625,0.04839999973773956,0.48124998807907104,-0.04262499883770943
1788108195891255000,11.093255126953125,0.19744999706745148,0.3726249933242798,0.057612501084804535
1788108195901344800,11.1033447265625,0.2854500114917755,0.22481249272823334,0.1859000027179718
1788108195911442000,11.11344189453125,0.30250000953674316,0.13557499647140503,0.3044250011444092
1788108195921535700,11.12353564453125,0.2732124924659729,0.12333749979734421,0.34595000743865967
1788108195931632600,11.133632568359374,0.24021250009536743,0.12581250071525574,0.27390000224113464
1788108195941720000,11.143719970703126,0.22192500531673431,0.1331000030040741,0.09790000319480896
1788108195951813000,11.153813232421875,0.2134000062942505,0.1331000030040741,-0.09019999951124191
1788108195961905200,11.1639052734375,0.18287499248981476,0.1368124932050705,-0.17572499811649323
1788108195972007400,11.17400732421875,0.1083500012755394,0.16005000472068787,-0.14643749594688416
1788108195982113500,11.184113525390625,0.04963750019669533,0.14409999549388885,-0.08896250277757645
1788108195992204500,11.19420458984375,0.021587500348687172,0.059812501072883606,-0.08291249722242355
1788108196002291500,11.20429150390625,0.013062499463558197,0.010999999940395355,-0.18301250040531158
1788108196012384000,11.214384033203125,0.016637500375509262,-0.010999999940395355,-0.297962486743927
1788108196022478000,11.22447802734375,0.006874999962747097,0.013337500393390656,-0.267300009727478
1788108196032575500,11.234575439453126,-0.006599999964237213,0.08786249905824661,-0.08291249722242355
1788108196042657000,11.244656982421875,-0.0004124999977648258,0.1868624985218048,0.12361250072717667
1788108196062894000,11.26489404296875,0.05458749830722809,0.22714999318122864,0.328900009393692
1788108196072993300,11.2749931640625,0.04839999973773956,0.2149125039577484,0.4179999828338623
1788108196083078700,11.28507861328125,0.03616249933838844,0.21738749742507935,0.48647499084472656
1788108196093172500,11.29517236328125,0.03382499888539314,0.24791249632835388,0.4974749982357025
1788108196103261200,11.30526123046875,0.05335000157356262,0.29067498445510864,0.4437125027179718
1788108196113345500,11.315345458984375,0.08635000139474869,0.3004375100135803,0.3825249969959259
1788108196123431000,11.325430908203124,0.10216250270605087,0.2993375062942505,0.33371248841285706
1788108196143610000,11.345610107421875,0.07535000145435333,0.29686251282691956,0.1859000027179718
1788108196153692700,11.355692626953125,0.05692499876022339,0.24062499403953552,0.11866249889135361
1788108196163775200,11.365775146484374,0.030112499371170998,0.17710000276565552,0.05156249925494194
1788108196173870600,11.37587060546875,0.002062499988824129,0.12581250071525574,-0.05238749831914902
1788108196183953200,11.385953125,-0.028599999845027924,0.07081250101327896,-0.16224999725818634
1788108196194047000,11.396046875,-0.06393750011920929,0.014574999921023846,-0.26124998927116394
1788108196204133400,11.40613330078125,-0.09212499856948853,-0.01347499992698431,-0.32848748564720154
1788108196214233300,11.4162333984375,-0.12017499655485153,-0.007424999959766865,-0.3235374987125397
1788108196224331500,11.42633154296875,-0.12870000302791595,0.04399999976158142,-0.24543750286102295
1788108196234428200,11.43642822265625,-0.1116499975323677,0.18809999525547028,-0.10243749618530273
1788108196244510000,11.446510009765625,-0.04936249926686287,0.3151499927043915,0.0943249985575676
1788108196254605800,11.456605712890624,0.04358749836683273,0.3713875114917755,0.19318750500679016
1788108196264703000,11.466702880859375,0.12911249697208405,0.32491248846054077,0.16142499446868896
1788108196274790400,11.476790283203124,0.18645000457763672,0.24433749914169312,0.08084999769926071
1788108196284873200,11.486873291015625,0.20239999890327454,0.19538749754428864,0.060087498277425766
1788108196294970600,11.496970703125,0.19868749380111694,0.20157499611377716,0.14685000479221344
1788108196305052400,11.507052490234376,0.21216249465942383,0.2283875048160553,0.2751374840736389
1788108196315146500,11.517146484375,0.22673749923706055,0.25286251306533813,0.33371248841285706
1788108196325230800,11.52723095703125,0.22068749368190765,0.25891250371932983,0.3104749917984009
1788108196335328000,11.537327880859374,0.19016249477863312,0.2149125039577484,0.201712504029274
1788108196345420800,11.5474208984375,0.1522125005722046,0.11852499842643738,0.020899999886751175
1788108196355518500,11.5575185546875,0.09968750178813934,0.004812499973922968,-0.19167499244213104
1788108196365606100,11.567606201171875,0.0471624992787838,-0.05128749832510948,-0.341825008392334
1788108196375697000,11.57769677734375,0.006874999962747097,-0.050187498331069946,-0.31501248478889465
1788108196385782300,11.5877822265625,-0.006599999964237213,0.030524998903274536,-0.15991249680519104
1788108196395882200,11.59788232421875,-0.008937500417232513,0.11233749985694885,0.03189999982714653
1788108196405987300,11.6079873046875,-0.012649999931454659,0.19304999709129333,0.1676124930381775
1788108196416081400,11.618081298828125,-0.02241249941289425,0.22962500154972076,0.2554749846458435
1788108196426167600,11.62816748046875,-0.04688749834895134,0.20762500166893005,0.3129499852657318
1788108196436256500,11.638256591796875,-0.06764999777078629,0.16609999537467957,0.3129499852657318
1788108196446344400,11.648344482421875,-0.06393750011920929,0.08910000324249268,0.22013749182224274
1788108196456436200,11.658436279296875,-0.03959999978542328,0.004812499973922968,0.08689999580383301
1788108196466517000,11.66851708984375,-0.02969999983906746,-0.04647500067949295,0.02213750034570694
1788108196476619000,11.678618896484375,-0.03712499886751175,0.004812499973922968,0.07466249912977219
1788108196486712300,11.68871240234375,-0.03464999794960022,0.12333749979734421,0.24089999496936798
1788108196496789000,11.6987890625,-0.016362499445676804,0.20514999330043793,0.44123750925064087
1788108196506882600,11.708882568359375,0.010587500408291817,0.23086249828338623,0.5755749940872192
1788108196516983300,11.7189833984375,0.03382499888539314,0.2125750035047531,0.6037625074386597
1788108196527073500,11.729073486328126,0.03382499888539314,0.12457499653100967,0.550000011920929
1788108196537164000,11.7391640625,0.0008249999955296516,0.01223750039935112,0.4399999976158142
1788108196547248600,11.74924853515625,-0.07369999587535858,-0.08923749625682831,0.31418749690055847
1788108196557344000,11.759343994140625,-0.13722500205039978,-0.13805000483989716,0.15895000100135803
1788108196567438000,11.76943798828125,-0.15070000290870667,-0.14904999732971191,-0.015675000846385956
1788108196577531400,11.779531494140626,-0.11893749982118607,-0.13928750157356262,-0.18067499995231628
1788108196597706000,11.7997060546875,0.002062499988824129,-0.03918749839067459,-0.2782999873161316
1788108196607797200,11.80979736328125,0.04358749836683273,0.014574999921023846,-0.15619999170303345
1788108196617896000,11.81989599609375,0.0728750005364418,0.042762499302625656,0.005087499972432852
1788108196627980800,11.829980712890626,0.08016250282526016,0.03657500073313713,0.12361250072717667
1788108196638076700,11.84007666015625,0.07768750190734863,0.01952499896287918,0.1504250019788742
1788108196648168000,11.85016796875,0.06668750196695328,-0.04152499884366989,0.11990000307559967
1788108196658257700,11.860257568359375,0.04839999973773956,-0.10999999940395355,0.08813749998807907
1788108196668348000,11.870347900390625,0.03987500071525574,-0.10023749619722366,0.10284999758005142
1788108196678441200,11.880441162109374,0.0411125011742115,0.013337500393390656,0.15537500381469727
1788108196698623500,11.90062353515625,0.08016250282526016,0.3091000020503998,0.233474999666214
1788108196708710100,11.910710205078125,0.10587500035762787,0.3871999979019165,0.14190000295639038
1788108196718812200,11.920812255859374,0.1106875017285347,0.39214998483657837,0.01484999991953373
1788108196728903400,11.9309033203125,0.10092499852180481,0.34443750977516174,-0.08167500048875809
1788108196738995200,11.9409951171875,0.08635000139474869,0.2723875045776367,-0.12691250443458557
1788108196749086000,11.9510859375,0.06792499870061874,0.21738749742507935,-0.1256749927997589
1788108196759183000,11.96118310546875,0.05692499876022339,0.16733749210834503,-0.13420000672340393
1788108196769266200,11.97126611328125,0.05087500065565109,0.11962500214576721,-0.2147749960422516
1788108196779361300,11.981361328125,0.04358749836683273,0.11604999750852585,-0.3297249972820282
1788108196789446700,11.99144677734375,0.04592499881982803,0.14657500386238098,-0.4542999863624573
1788108196799539700,12.001539794921875,0.0728750005364418,0.14657500386238098,-0.5483499765396118
1788108196809624000,12.0116240234375,0.11687500029802322,0.13433749973773956,-0.6204000115394592
1788108196819725000,12.02172509765625,0.17544999718666077,0.1050499975681305,-0.6631624698638916
1788108196829816800,12.03181689453125,0.22921249270439148,0.08552499860525131,-0.6363499760627747
1788108196839911000,12.041910888671875,0.2817375063896179,0.10628750175237656,-0.5678749680519104
1788108196849995500,12.05199560546875,0.3232625126838684,0.10628750175237656,-0.48358750343322754
1788108196860087300,12.06208740234375,0.35378751158714294,0.07933750003576279,-0.41401249170303345
1788108196870180900,12.072180908203125,0.3647874891757965,0.04881250113248825,-0.3100624978542328
1788108196880273000,12.08227294921875,0.37950000166893005,0.0340999998152256,-0.16101250052452087
1788108196890366700,12.09236669921875,0.40149998664855957,0.0952875018119812,-0.008387500420212746
1788108196900467700,12.1024677734375,0.43697500228881836,0.1551000028848648,0.09913749992847443
1788108196910561800,12.112561767578125,0.47478750348091125,0.18205000460147858,0.13708749413490295
1788108196930738000,12.132738037109375,0.5077875256538391,0.22591249644756317,0.09184999763965607
1788108196940842000,12.142842041015625,0.4760249853134155,0.3114374876022339,0.13942499458789825
1788108196950943700,12.15294384765625,0.43697500228881836,0.4189625084400177,0.24213749170303345
1788108196961043700,12.163043701171874,0.40149998664855957,0.48743748664855957,0.3031874895095825
1788108196971134700,12.173134765625,0.3917374908924103,0.43972501158714294,0.2616625130176544
1788108196981227800,12.183227783203124,0.39297500252723694,0.29067498445510864,0.11384999752044678
1788108196991321300,12.1933212890625,0.3722124993801117,0.1270499974489212,-0.0364375002682209
1788108197001412400,12.203412353515626,0.3147374987602234,0.010999999940395355,-0.062150001525878906
1788108197011499800,12.213499755859376,0.259737491607666,0.0035749999806284904,0.03932499885559082
1788108197021594600,12.2235947265625,0.21463750302791595,0.0976250022649765,0.1993750035762787
1788108197031684000,12.23368408203125,0.20239999890327454,0.22962500154972076,0.3031874895095825
1788108197041773000,12.24377294921875,0.2134000062942505,0.32491248846054077,0.32023748755455017
1788108197051870200,12.2538701171875,0.2134000062942505,0.34814998507499695,0.24818749725818634
1788108197061966600,12.263966552734376,0.2096875011920929,0.28833749890327454,0.15661250054836273
1788108197072063200,12.274063232421875,0.19139999151229858,0.17833749949932098,0.12113749980926514
1788108197082163000,12.284162841796874,0.16321249306201935,0.09033749997615814,0.1699499934911728
1788108197092247800,12.294247802734375,0.14739999175071716,0.06710000336170197,0.28971248865127563
1788108197102344700,12.3043447265625,0.15344999730587006,0.09652499854564667,0.4057624936103821
1788108197112436500,12.3144365234375,0.18521249294281006,0.1331000030040741,0.427762508392334
1788108197132628500,12.33462841796875,0.20363749563694,0.1966249942779541,0.392425000667572
1788108197142720300,12.34472021484375,0.1681624948978424,0.1905750036239624,0.4717625081539154
1788108197152808700,12.35480859375,0.13021250069141388,0.16609999537467957,0.5157625079154968
1788108197162896100,12.364896240234375,0.10216250270605087,0.11728750169277191,0.4717625081539154
1788108197172986600,12.374986572265625,0.0789249986410141,0.05004999786615372,0.3642374873161316
1788108197183070200,12.3850703125,0.04592499881982803,0.006049999967217445,0.233474999666214
1788108197193153800,12.39515380859375,0.0056374999694526196,0.030524998903274536,0.11137499660253525
1788108197203244800,12.405244873046875,-0.02969999983906746,0.09652499854564667,0.0625625029206276
1788108197213360400,12.4153603515625,-0.04193750023841858,0.1588124930858612,0.06861250102519989
1788108197223442400,12.4254423828125,-0.03341250121593475,0.20157499611377716,0.0625625029206276
1788108197233533700,12.43553369140625,-0.013887500390410423,0.20762500166893005,0.052662499248981476
1788108197243619300,12.445619384765624,-0.006599999964237213,0.1905750036239624,0.05389999970793724
1788108197253713000,12.455712890625,-0.018837500363588333,0.19415000081062317,0.09184999763965607
1788108197263788300,12.465788330078125,-0.03464999794960022,0.20762500166893005,0.13708749413490295
1788108197273881600,12.475881591796876,-0.03341250121593475,0.20391249656677246,0.13708749413490295
1788108197283967700,12.4859677734375,-0.018837500363588333,0.19415000081062317,0.09184999763965607
1788108197294060500,12.496060546875,0.002062499988824129,0.19786250591278076,0.025849999859929085
1788108197304147000,12.50614697265625,0.017875000834465027,0.18933749198913574,-0.04619999974966049
1788108197314241000,12.516240966796875,0.03382499888539314,0.1588124930858612,-0.11096250265836716
1788108197324328000,12.526327880859375,0.03382499888539314,0.11728750169277191,-0.17448750138282776
1788108197334424600,12.536424560546875,0.019112499430775642,0.08304999768733978,-0.2209624946117401
1788108197344513300,12.54651318359375,-0.008937500417232513,0.054999999701976776,-0.2527250051498413
1788108197354609200,12.556609130859375,-0.01759999990463257,0.007287499960511923,-0.30153748393058777
1788108197364691000,12.56669091796875,-0.0016499999910593033,-0.07328750193119049,-0.3858250081539154
1788108197374793200,12.576793212890625,0.013062499463558197,-0.13199999928474426,-0.42858749628067017
1788108197384889600,12.5868896484375,0.008112499490380287,-0.09171249717473984,-0.3895374834537506
1788108197394988000,12.596988037109375,-0.008937500417232513,-0.007424999959766865,-0.2905375063419342
1788108197405073200,12.6070732421875,-0.007837500423192978,0.07328750193119049,-0.19772499799728394
1788108197415171300,12.61717138671875,0.010587500408291817,0.11481250077486038,-0.15496249496936798
1788108197425264400,12.627264404296875,0.0411125011742115,0.07204999774694443,-0.1451999992132187
1788108197435350000,12.63735009765625,0.05816249921917915,0.002337499987334013,-0.12319999933242798
1788108197445441000,12.64744091796875,0.07163749635219574,-0.0317624993622303,-0.05843750014901161
1788108197455536600,12.65753662109375,0.08387500047683716,-0.032999999821186066,0.040562499314546585
1788108197465628400,12.66762841796875,0.08744999766349792,-0.025712499395012856,0.0943249985575676
1788108197475719000,12.677718994140625,0.09363749623298645,-0.03671250119805336,0.052662499248981476
