time,seconds_elapsed,z,y,x
195818257111012,0.007786,-0.0025453568,-0.0021457672,-3.540516E-5
195818265090743,0.015766,0.03688526,0.011850834,0.07312733
195818273098435,0.023773,-0.02543497,0.098704815,0.01782149
195818281085743,0.031761,-0.12049675,0.14793444,-0.107013226
195818289176012,0.039851,-0.181036,0.10019636,-0.14962405
195818297161628,0.047837,-0.11200571,-5.636215E-4,-0.042278618
195818305165166,0.055840,0.041339874,-0.050467014,0.028375626
195818313186704,0.063862,0.115255356,-0.0719018,0.051401794
195818321431435,0.072106,0.13783121,-0.06544495,0.09670371
195818329205858,0.079881,0.13544226,-0.029240131,0.08083928
195818337206627,0.087882,0.087658405,-0.042978764,0.099776804
195818345187897,0.095863,0.09173155,-0.048913956,0.08081424
195818353197089,0.103872,0.113055706,-0.014845848,0.058040798
195818361203781,0.111879,0.06154394,-0.052469254,-0.019988835
195818369177473,0.119852,0.0036497116,-0.033695698,-0.06118554
195818377176935,0.127852,-0.023382187,-0.019512653,-0.12868732
195818385200358,0.135875,-0.07595396,0.052593708,-0.15825409
195818393229320,0.143904,-0.097826004,0.06790781,-0.2063643
195818401210281,0.151885,-0.13197708,0.026484013,-0.184147
195818409204166,0.159879,-0.17628574,-0.03960085,-0.07955098
195818417184743,0.167860,-0.15196466,-0.0828495,-0.010039657
195818425165358,0.175840,-0.112466335,-0.13362074,0.07393834
195818433174281,0.183849,-0.03841877,-0.14941788,0.10731691
195818441220781,0.191896,0.017348766,-0.12863684,0.1072157
195818449254435,0.199929,0.04291582,-0.16944933,0.12205601
195818457253704,0.207929,0.030304909,-0.09466219,0.022845685
195818465239242,0.215914,0.049773216,-0.1650877,-0.022832572
195818473266935,0.223942,0.11529875,-0.1794548,-0.091134876
195818481247858,0.231923,0.12790823,-0.1633954,-0.19592443
195818489236281,0.239911,0.12468815,-0.15525436,-0.20131241
195818497217550,0.247893,0.09942961,-0.06467199,-0.17249519
195818505196896,0.255872,0.003212452,-0.024605274,-0.12535882
195818513205588,0.263881,-0.033892155,0.085371494,-0.16680779
195818521203973,0.271879,-0.080078125,0.10852909,-0.2091128
195818529179165,0.279854,-0.07371855,0.3820119,-0.4952684
195818537179473,0.287854,-0.08398104,0.4626832,-0.5233886
195818545171934,0.295847,-0.21801186,0.32404852,-0.40278518
195818553198819,0.303874,-0.49534702,0.16951847,-0.26706278
195818561180088,0.311855,-0.840436,-0.10153437,-0.11152977
195818569171819,0.319847,-0.87699986,-0.19267988,-0.06723025
195818577155627,0.327831,-0.76035786,-0.20945168,-0.072963454
195818585139896,0.335815,-0.72859526,-0.14584637,-0.16989203
195818593151319,0.343826,-0.4744029,-0.29709005,-0.22862667
195818601152780,0.351828,-0.4145441,-0.1456685,-0.0010846555
195818609128973,0.359804,-0.05235386,-0.061276436,0.5722208
195818617134126,0.367809,0.06934309,-0.384511,0.33073586
195818625136742,0.375812,-0.056671143,-0.5405874,0.4477795
195818633161357,0.383836,-0.03397703,-0.9116254,0.26325727
195818641142011,0.391817,0.4174013,-1.1191216,0.31230056
195818649132780,0.399808,1.1713514,-1.3003445,0.10903613
195818657114049,0.407789,1.3609028,-1.3952341,0.12975691
195818665096665,0.415772,1.1173835,-1.4226375,0.65051425
195818673096511,0.423771,0.7019701,-1.672739,1.2271553
195818681097703,0.431773,0.46835518,-2.0539265,1.4690937
195818689072741,0.439748,0.39111948,-2.1552353,1.7092152
195818697072434,0.447747,0.031912327,-2.0101204,1.8178155
195818705079241,0.455754,-0.5544605,-1.977448,2.2232182
195818713104895,0.463780,-1.4794703,-1.750143,2.853238
195818721087934,0.471763,-2.4878001,-1.4089842,2.533481
195818729082241,0.479757,-2.979765,-1.0285139,2.3456945
195818737063011,0.487738,-3.3334565,-0.8739667,2.140797
195818745045280,0.495720,-3.6198401,-0.8829346,1.6323317
195818753032318,0.503707,-3.233304,-0.22698736,0.22320211
195818761033510,0.511708,-2.2335153,-0.46931505,0.20608133
195818769009703,0.519685,-1.1669769,-0.72766924,0.5772342
195818777011087,0.527686,0.014819622,-0.6939316,0.7813234
195818785031933,0.535707,0.7154627,-0.7048564,0.6461868
195818793038780,0.543714,1.2510452,-0.93156004,0.2943797
195818801022126,0.551697,1.4879837,-1.1875706,0.022588074
195818809012741,0.559688,2.0752258,-1.1593313,-0.34774616
195818816994087,0.567669,2.6293917,-0.9576545,-0.5025409
195818824976049,0.575651,2.1373072,-0.4975686,0.13073799
195818832973087,0.583648,2.1946344,-0.48295355,0.1308586
195818840973549,0.591649,2.4443502,-0.4903369,-0.0642928
195818848948049,0.599623,2.838501,-0.38057327,-0.15146533
195818856948702,0.607624,3.3719893,-0.16356659,-0.057717368
195818864974933,0.615650,3.752777,0.07465029,0.2048259
195818872987702,0.623663,3.6689005,0.16654062,0.57738584
195818880969972,0.631645,3.5879698,0.20307827,0.9799896
195818888962548,0.639638,3.8559484,0.42033863,1.1540965
195818896943625,0.647619,3.8705454,0.5336056,1.1372366
195818904925048,0.655600,3.730956,0.5859518,0.6974589
195818912913048,0.663588,3.6317596,0.657207,0.2405111
195818920914664,0.671590,3.2122917,0.6086769,-0.06620908
195818928897971,0.679573,2.684001,0.41927576,-0.052031875
195818936898317,0.687573,2.0566502,0.0805459,0.07274923
195818944880087,0.695555,1.2751808,-0.10762501,0.27077836
195818952883317,0.703558,0.6593714,-0.21492672,0.45543557
195818960863356,0.711538,0.17631054,-0.17280483,0.49170735
195818968852356,0.719527,-0.0029935837,-0.055210114,0.23756498
195818976834587,0.727510,0.22916412,0.070557594,0.04187873
195818984817471,0.735492,0.5051441,0.13298082,0.03557077
195818992815279,0.743490,0.769927,0.10563135,0.442642
195819000814894,0.751490,0.7775049,-0.10602093,1.5056627
195819008817779,0.759493,0.75594425,-0.15110445,1.6029463
195819016817779,0.767493,0.6494608,-0.20743656,1.7614511
195819024813740,0.775489,0.70996475,-0.50123596,1.8189828
195819032838586,0.783514,0.89004326,-0.5975776,1.6709225
195819040819009,0.791494,0.8787689,-0.6957922,1.4479356
195819048810432,0.799485,0.6560011,-0.5995126,0.7673136
195819056790971,0.807466,0.34201336,-0.60144997,0.13155586
195819064772779,0.815448,0.062156677,-0.55194616,-0.39700228
195819072782586,0.823458,-0.23212814,-0.38438463,-0.7214537
195819080787778,0.831463,-0.41951895,-0.033376694,-1.0090954
195819088786932,0.839462,-0.38508272,0.25652075,-1.1344459
195819096787625,0.847463,-0.31068802,0.14515734,-0.83544564
195819104787971,0.855463,-0.27234554,-0.25627184,-0.42559397
195819112805124,0.863480,-0.28973436,-0.6572375,-0.0026661754
195819120785201,0.871460,-0.38620996,-0.8096347,0.091463804
195819128773355,0.879448,-0.48028183,-0.78049326,0.022948325
195819136755086,0.887430,-0.50303984,-0.67626,-0.1084345
195819144738163,0.895413,-0.27467585,-0.65761423,-0.069489
195819152749470,0.903424,0.23492908,-0.63213587,0.19161162
195819160749778,0.911425,0.9329233,-0.67000103,0.27800423
195819168770240,0.919445,0.890255,-0.671597,0.39648134
195819176770624,0.927446,0.6366291,-0.7427325,0.4958679
195819184775163,0.935450,0.7153435,-0.8204684,0.30311412
195819192803316,0.943478,0.49193192,-0.8044472,0.11238867
195819200783855,0.951459,0.2540207,-0.7241497,-0.12867555
195819208817547,0.959493,0.18209171,-0.58508444,-0.29661918
195819216797624,0.967473,0.16159582,-0.48153782,-0.4124591
195819224778163,0.975453,0.18309927,-0.35829353,-0.5826804
195819232788701,0.983464,0.38831663,-0.30319166,-0.6412025
195819240789624,0.991465,0.49810266,-0.32458258,-0.55138516
195819248764701,0.999440,0.6426015,-0.40426254,-0.46395326
195819256765662,1.007441,0.892858,-0.49791622,-0.13693209
195819264783778,1.015459,1.0454607,-0.5993128,0.11325754
195819272810855,1.023486,0.81975603,-0.6070056,0.20599759
195819280813547,1.031489,0.37693834,-0.59605026,0.22967035
195819288804508,1.039479,-0.18217039,-0.50617456,0.040537544
195819296787008,1.047462,-0.5416775,-0.41090345,-0.2201851
195819304770162,1.055445,-0.6527972,-0.36609077,-0.367086
195819312770893,1.063446,-0.6114392,-0.3071699,-0.38450903
195819320771778,1.071447,-0.54457283,-0.2917199,-0.24172363
195819328747508,1.079422,-0.3978305,-0.26641893,-0.044647828
195819336748508,1.087423,-0.3640418,-0.24942923,0.14213921
195819344778431,1.095453,-0.4270587,-0.24286556,0.3258819
195819352803777,1.103479,-0.4217372,-0.16045284,0.4332895
195819360787816,1.111463,-0.46263742,-0.08639622,0.5189644
195819368780662,1.119456,-0.38963604,-0.06579065,0.5813929
195819376763893,1.127439,-0.0979681,-0.081272125,0.785102
195819384746508,1.135421,0.006406307,-0.100476265,0.96651113
195819392759239,1.143434,-0.044680595,-0.16018534,1.0558132
195819400760008,1.151435,-0.097694874,-0.21781206,1.0297313
195819408735200,1.159410,-0.31048393,-0.1791892,0.8232498
195819416734777,1.167410,-0.6067605,-0.11936426,0.6307852
195819424722508,1.175397,-0.7638345,-0.081419945,0.4221894
195819432747469,1.183422,-0.78338814,-0.07550621,0.28809112
195819440729585,1.191405,-0.58615303,-0.07049084,0.29391378
195819448719508,1.199394,-0.36755705,-0.033668518,0.4372806
195819456701239,1.207376,-0.18827057,-0.03422928,0.55737203
195819464683969,1.215359,-0.10191679,-0.07101107,0.7122217
195819472688508,1.223363,-0.13449812,-0.13977289,0.800597
195819480689046,1.231364,-0.2841897,-0.17796612,0.84686506
195819488665546,1.239341,-0.5293236,-0.14973497,0.93136525
195819496667777,1.247343,-0.6689949,-0.15062094,0.9341799
195819504665623,1.255341,-0.5085335,-0.15485668,0.96992904
195819512693854,1.263369,-0.12061119,-0.11812401,0.8686471
195819520675931,1.271351,0.65114355,-0.08402872,0.8215279
195819528669161,1.279344,1.031209,-0.05738306,0.7218998
195819536649969,1.287325,1.1125298,-0.0670104,0.60419786
195819544632392,1.295307,0.9383893,-0.1353116,0.51053506
195819552641277,1.303316,0.5835428,-0.21733046,0.43276006
195819560641469,1.311316,0.16890621,-0.2901039,0.3435291
195819568614815,1.319290,-0.062449932,-0.28051043,0.33341694
195819576615161,1.327290,-0.24379587,-0.22987127,0.35426897
195819584622084,1.335297,-0.17207766,-0.118404865,0.45282626
195819592650046,1.343325,-0.032898426,-0.02601242,0.6208373
195819600629430,1.351304,0.09323406,0.010218143,0.7833799
195819608619353,1.359294,0.190063,-0.005709648,0.9208057
195819616599738,1.367275,0.100391865,-0.0200181,0.90923786
195819624582007,1.375257,-0.08213091,-0.049545288,0.7642139
195819632592776,1.383268,-0.3004918,-0.06280947,0.57021165
195819640594661,1.391270,-0.33029127,-0.06137514,0.3932125
195819648571892,1.399247,-0.07225609,-0.07505798,0.23374212
195819656573699,1.407249,0.19304371,-0.10068512,0.20702606
195819664587776,1.415263,0.40432692,-0.1584158,0.21456558
195819672618930,1.423294,0.50507164,-0.20847225,0.22453141
195819680602776,1.431278,0.50125647,-0.20195103,0.20619595
195819688600161,1.439275,0.47674417,-0.15809584,0.26497984
195819696583661,1.447259,0.417346,-0.09131718,0.40944874
195819704567045,1.455242,0.2752862,-0.056725025,0.48827803
195819712578122,1.463253,0.20096016,-0.035052776,0.4894036
195819720580122,1.471255,0.2076168,-0.03733778,0.40029585
195819728558391,1.479233,0.34753227,-0.06771946,0.2986046
195819736562507,1.487237,0.51764965,-0.116374016,0.26016617
195819744582853,1.495258,0.6038375,-0.11933231,0.23106313
195819752617237,1.503292,0.65935755,-0.12755394,0.23536777
195819760600391,1.511275,0.5511198,-0.09428358,0.29716682
195819768592660,1.519268,0.33487797,-0.08982754,0.3404125
195819776576353,1.527251,0.057403564,-0.045828342,0.38380623
195819784562007,1.535237,-0.17857409,-3.6907196E-4,0.43706405
195819792575468,1.543250,-0.19226694,-5.354881E-4,0.37145066
195819800576276,1.551251,0.12805605,-0.021413326,0.29898965
195819808551506,1.559226,0.4685154,-0.11491585,0.31027138
195819816552506,1.567227,0.61749744,-0.17721415,0.2656567
195819824582429,1.575257,0.062194824,-0.21776056,0.23746657
195819832612276,1.583287,-1.4414773,-0.049104214,-0.22605985
195819840595199,1.591270,-1.3301654,0.19009066,-0.7315743
195819848591468,1.599266,-1.3640981,0.29987907,-0.7464061
195819856572814,1.607248,-1.2453246,0.18403578,-0.18470639
195819864554891,1.615230,-0.7324171,0.040267944,0.055395126
195819872561699,1.623237,-0.06550503,-0.11594963,0.20096219
195819880562391,1.631237,0.40886927,-0.11858463,0.2522905
195819888553506,1.639228,0.6828456,-0.05553913,0.24411166
195819896553198,1.647228,0.7173543,-9.5415115E-4,0.24384129
195819904541045,1.655216,0.44556713,-0.09854269,0.19548965
195819912559314,1.663234,-0.08950186,-0.08955765,-0.1310507
195819920542006,1.671217,-0.4217162,-0.025715828,-0.33390355
195819928532852,1.679208,-0.4941001,0.09232378,-0.42457306
195819936513621,1.687189,-0.37563324,0.19806099,-0.32817727
195819944495544,1.695171,-0.16699696,0.30928802,-0.21336192
195819952501621,1.703177,0.0563426,0.36163473,-0.08014828
195819960499621,1.711175,0.08686113,0.34660196,-0.026471138
195819968500237,1.719175,-0.11080551,0.28953457,-0.050195217
195819976497275,1.727172,-0.34106016,0.22902012,-0.04015708
195819984489313,1.735164,-0.6086931,0.16967535,-0.09567487
195819992514775,1.743190,-0.75426817,0.10054016,-0.10805923
195820000495583,1.751171,-0.8123245,0.0036678314,-0.04583192
195820008489390,1.759164,-0.71003723,0.002767086,-0.018157363
195820016472429,1.767147,-0.5220237,-0.030957699,-0.10152656
195820024456352,1.775131,-0.3029666,-0.011467934,-0.21819204
195820032466890,1.783142,-0.33405352,0.01951313,-0.30917424
195820040467429,1.791142,-0.5163379,-0.013043404,-0.39444184
195820048477775,1.799153,-0.8023391,-0.111138344,-0.40370953
195820056553505,1.807228,-1.0919356,-0.11132574,-0.5120488
195820064555505,1.815230,-1.2050171,-0.77010775,0.2885133
195820072583698,1.823259,-1.027473,-0.77686024,0.4049071
195820080564852,1.831240,-0.78584814,-0.48450327,0.34226775
195820088553698,1.839229,-0.35749912,-0.21635437,0.40423846
195820096534005,1.847209,0.13679981,-0.019612312,0.6223213
195820104514736,1.855190,0.78396845,0.24097204,0.6465329
195820112502582,1.863178,1.3345051,0.40259075,0.611765
195820120500813,1.871176,1.771287,0.3902502,0.55722654
195820128509774,1.879185,2.0365286,0.34270573,0.5356226
195820136509505,1.887184,1.9576797,0.12713528,0.5183584
195820144522505,1.895197,1.5603819,-0.14466476,0.38266802
195820152538005,1.903213,0.89285946,-0.3047557,0.09325832
195820160517736,1.911193,0.23504734,-0.34821796,-0.31389472
195820168511005,1.919186,-0.47377157,-0.33911848,-0.7054054
195820176491620,1.927167,-0.8495803,-0.3083973,-0.91151214
195820184473005,1.935148,-0.9759879,-0.1440897,-1.0699615
195820192468890,1.943144,-0.87909555,0.04100561,-0.9611644
195820200466466,1.951141,-0.53476334,0.15322542,-0.5370895
195820208438236,1.959113,-0.029511452,0.107331276,0.036931515
195820216442697,1.967118,0.28927994,0.08372688,0.47801507
195820224461966,1.975137,0.5198326,0.007967949,0.7946732
195820232488236,1.983163,0.7234249,-0.010133266,0.80787754
195820240469082,1.991144,0.90243244,-0.014137268,0.8173549
195820248459159,1.999134,0.9640112,-0.034247875,0.7544534
195820256439351,2.007114,0.771183,-0.052800655,0.48873818
195820264439389,2.015114,0.36648464,-0.0693512,0.14237994
195820272447851,2.023123,0.04615116,-0.16466093,-0.050139844
195820280445812,2.031121,-0.20030975,-0.27273655,-0.22422385
195820288419389,2.039094,-0.4927678,-0.35737467,-0.32707077
195820296418428,2.047093,-0.47713804,-0.40110683,-0.27358902
195820304400735,2.055076,-0.32168102,-0.27969503,-0.35177502
195820312428043,2.063103,-0.14106941,-0.095574856,-0.41174963
195820320408966,2.071084,0.13170052,0.042002678,-0.3632874
195820328401928,2.079077,0.19373894,0.09236956,-0.34577
195820336383735,2.087059,0.5363941,0.16955996,-0.31191376
195820344364235,2.095039,1.1548738,0.20353603,-0.14511007
195820352374235,2.103049,1.5184059,0.27181053,-0.08857638
195820360373158,2.111048,1.181325,0.21051455,-0.1563865
195820368346966,2.119022,0.57355976,-0.034754276,-0.4250183
195820376344850,2.127020,-0.15455818,-0.24385595,-0.5579584
195820384335889,2.135011,-0.8634219,-0.40107346,-0.46311152
195820392340812,2.143016,-1.372477,-0.52944374,-0.29680443
195820400321043,2.150996,-1.9709029,-0.5649953,-0.08218938
195820408309158,2.158984,-2.578878,-0.5731783,-0.021692395
195820416288658,2.166964,-2.9310775,-0.47666788,-0.11300543
195820424270081,2.174945,-2.9767404,-0.13633299,-0.063874036
195820432255466,2.182930,-2.2451386,0.32904673,-0.24730566
195820440254427,2.190929,-1.2396259,0.7565646,-0.092951
195820448229158,2.198904,-0.24675655,0.9038067,-0.24787256
195820456228042,2.206903,1.1825619,0.95410275,-0.68004704
195820464224158,2.214899,1.8756666,0.884943,-1.0153314
195820472235119,2.222910,2.054103,0.52488995,-0.9888557
195820480214081,2.230889,2.2151184,-0.09301472,-1.0796992
195820488206312,2.238881,2.424118,-0.5566683,-0.99629426
195820496185081,2.246860,2.97824,-0.835459,-1.0332774
195820504165081,2.254840,3.3222084,-0.86480474,-1.0136006
195820512150888,2.262826,3.2650404,-0.8441305,-0.7535491
195820520148619,2.270824,2.9730082,-0.8025203,-0.40841433
195820528120850,2.278796,2.530099,-0.8041911,-0.19466205
195820536118734,2.286794,1.8056402,-0.834007,0.14098945
195820544113696,2.294789,1.9101954,-0.30649853,0.23997112
195820552129773,2.302805,2.3883047,0.30095935,0.25812238
195820560109157,2.310784,2.7642155,0.97654605,0.444354
195820568098042,2.318773,3.4699163,1.7119334,0.2651157
195820576078927,2.326754,3.3064613,1.8512189,0.62426865
195820584058119,2.334733,2.6996584,1.6366143,0.9974508
195820592043311,2.342718,1.9603453,0.9610872,0.98384047
195820600041734,2.350717,1.3015709,-0.3034041,1.1810712
195820608015196,2.358690,0.7117634,-1.5396148,1.0771226
195820616035234,2.366710,0.44962597,-2.1131594,0.8293356
195820624047888,2.374723,1.3315592,-1.1144797,1.4198
195820632062465,2.382737,1.4471245,-0.69728875,0.64604765
195820640044003,2.390719,1.0857372,-0.092253685,0.3677842
195820648038080,2.398713,0.6226721,0.2952714,-0.08165452
195820656018426,2.406693,0.016497612,0.5041623,0.05919464
195820663997811,2.414673,-0.59162235,0.49305248,0.62656075
195820671995657,2.422671,-0.8342953,0.20251966,0.57177615
195820679999349,2.430674,-0.6893921,0.022465229,0.5060198
195820687973157,2.438648,-0.6283579,-0.2534063,0.010591596
195820695972388,2.446647,-0.7581663,-0.7009547,-0.18195552
195820703993465,2.454668,-1.0523443,-1.026959,-0.32744965
195820712009657,2.462685,-1.6579914,-1.1345687,-0.4204932
195820719989926,2.470665,-1.6805625,-0.84769845,-0.5041846
195820727977464,2.478652,-0.9845514,-0.45451808,-0.4893189
195820735956388,2.486631,-0.2948408,-0.1834054,-0.45583618
195820743935887,2.494611,-0.08223629,-0.03358364,-0.38522682
195820751930734,2.502606,-0.19504166,-0.07164717,-0.6457115
195820759930387,2.510605,-0.2476759,-0.20916176,-0.78565425
195820767902387,2.518577,-0.32353497,-0.2768898,-0.8293297
195820775900118,2.526575,-0.35386276,-0.15134859,-0.7794678
195820783922195,2.534597,-0.16192627,-0.022448063,-0.46001762
195820791949349,2.542624,0.25587273,0.054446697,-0.08430201
195820799928426,2.550603,0.53537273,-0.17651892,0.5547503
195820807921772,2.558597,1.2628107,-0.67523575,0.8012731
195820815899426,2.566574,1.9382858,-0.70659494,0.72531503
195820823880195,2.574555,1.7173576,-0.7845297,0.9952035
195820831888849,2.582564,0.95109653,-0.8811641,1.0915917
195820839888810,2.590564,-0.08170414,-0.5644741,0.80104303
195820847873541,2.598549,-0.73615503,-0.18576336,0.08322656
195820855871695,2.606547,-1.0684867,0.2115531,-0.68452454
195820863861387,2.614536,-0.9970679,0.13631725,-0.89102083
195820871876195,2.622551,-0.669889,-0.19487953,-0.7917793
195820879856964,2.630532,-0.5411563,-0.42064476,-0.43990207
195820887847118,2.638522,-0.7240119,-0.5146222,0.06888533
195820895826041,2.646501,-0.86460495,-0.3639536,0.3529207
195820903806656,2.654482,-1.0885835,-0.05207157,-0.0601995
195820911804079,2.662479,-1.2577376,0.118630886,-1.1474525
195820919802233,2.670477,-1.2273703,-0.08186388,-1.8701084
195820927798079,2.678473,-0.80001926,-0.39366674,-1.8168582
195820935796464,2.686471,-0.49317074,-0.6876812,-1.329151
195820943787194,2.694462,-0.30883312,-0.7512102,-0.60708463
195820951804156,2.702479,-0.6283593,-0.6176405,0.21096665
195820959783656,2.710459,-1.2428994,-0.52432966,0.6437874
195820967775810,2.718451,-1.5437827,-0.18658686,0.37073404
195820975755964,2.726431,-1.475965,0.09924555,-0.12562764
195820983735271,2.734410,-0.894619,0.27470446,-0.3336046
195820991732310,2.742407,-0.20186234,0.47609854,-0.5322291
195820999731002,2.750406,0.6090646,0.37622118,0.09807068
195821007731771,2.758407,1.0326734,0.15943289,0.8406188
195821015730925,2.766406,0.64867306,-0.1588974,1.409061
195821023736886,2.774412,0.051297188,-0.2953744,1.5579988
195821031763079,2.782438,-0.6373,-0.0063638687,0.8359692
195821039742309,2.790417,-1.0412693,0.38765717,-0.006937623
195821047730848,2.798406,-1.0303144,0.5419183,-0.5545507
195821055709579,2.806385,-0.6559024,0.4774723,-0.6818224
195821063689271,2.814364,0.020312786,0.30149412,-0.57522434
195821071694040,2.822369,0.41647625,0.17672682,-0.085921645
195821079691348,2.830366,0.6319647,0.1707058,0.1692707
195821087709078,2.838384,0.6259942,0.24754953,0.1362012
195821095708002,2.846383,0.3833766,0.28356504,-0.0257712
195821103726463,2.854401,0.18399477,0.25022316,-0.19579789
195821111753078,2.862428,0.35749865,0.12193966,-0.19568464
195821119731886,2.870407,0.223135,0.07184839,0.19386202
195821127724732,2.878400,-0.066233635,0.23675919,0.53055537
195821135704001,2.886379,-0.4665575,0.43821287,0.8160824
195821143684117,2.894359,-0.9762325,0.5212827,0.87659526
195821151681501,2.902356,-1.2012649,0.35537624,0.81710345
195821159678771,2.910354,-1.297718,0.2569313,0.66722065
195821167655886,2.918331,-1.3166003,0.26127195,0.37966877
195821175654732,2.926330,-1.3774056,0.24938059,-0.15555686
195821183677809,2.934353,-0.9622035,0.1781106,-0.5954696
195821191694117,2.942369,-0.39718008,-0.038116932,-0.74188936
195821199674193,2.950349,-0.08952999,-0.25271893,-0.63134307
195821207662463,2.958337,0.2755561,-0.29216385,-0.6994521
195821215641886,2.966317,0.5177412,-0.3185854,-0.70138216
195821223623078,2.974298,0.63574934,-0.30909586,-0.70302695
195821231620847,2.982296,1.0226965,-0.26670933,-0.74620056
195821239620732,2.990296,1.499311,-0.26353407,-0.5680802
195821247594809,2.998270,1.4554482,-0.23975801,-0.34225973
195821255681193,3.006356,1.346467,-0.14329338,-0.25497288
195821263663039,3.014338,0.7382202,-0.07843876,-0.068351746
195821271691116,3.022366,0.17164898,-0.025912285,0.09362024
195821279671347,3.030346,0.8174777,0.090875626,0.3036946
195821287664462,3.038339,0.96768236,0.17481184,0.43788964
195821295643385,3.046318,1.1141152,0.20473719,0.3915797
195821303622462,3.054297,0.8529496,0.14557838,0.5194446
195821311629539,3.062305,0.51322746,0.05540943,0.5170897
195821319630501,3.070305,0.01479578,0.13982487,0.32696426
195821327605078,3.078280,-0.5082154,0.3634286,-0.08188474
195821335604731,3.086280,-0.58145,0.44922256,-0.36432606
195821343595039,3.094270,-0.25836277,0.43198776,-0.449287
195821351624616,3.102300,0.07324648,0.2640772,-0.5061637
195821359603885,3.110279,0.15863514,0.25085878,-0.5779793
195821367592347,3.118267,0.05854416,-0.13078165,0.08537954
195821375573000,3.126248,0.050364494,-0.29990578,0.6239706
195821383555347,3.134230,-0.19920158,-0.1776166,0.73778844
195821391560616,3.142236,-0.5354457,0.027861595,0.66637194
195821399559308,3.150234,-0.47494555,0.23934841,0.6129998
195821407533693,3.158209,-0.045354843,0.46144962,0.5266135
195821415531846,3.166207,0.3775425,0.4649558,0.40025687
195821423533923,3.174209,0.77506065,0.27366543,0.45218372
195821431556346,3.182231,0.87539625,0.0821681,0.39716315
195821439534846,3.190210,0.6773977,-0.14957237,0.17506444
195821447527885,3.198203,0.30862904,-0.19533253,-0.036631703
195821455507346,3.206182,-0.124032974,-0.089576244,0.005759597
195821463487654,3.214163,-0.43017244,0.049162388,0.019982457
195821471494885,3.222170,-0.33492994,0.17431307,0.06387746
195821479490692,3.230166,-0.15166426,0.17370605,-0.0506649
195821487462038,3.238137,0.189785,0.13565302,-0.1591121
195821495460577,3.246136,0.4727087,0.06321144,-0.31867534
195821503468500,3.254143,0.5017834,-0.021160603,-0.36663872
195821511495923,3.262171,0.12292433,0.0241189,-0.34136492
195821519473423,3.270148,-0.2662387,0.1318922,-0.39782643
195821527460769,3.278136,-0.26085472,0.19222307,-0.4177528
195821535440000,3.286115,-0.1403141,0.16637659,-0.28487158
195821543421884,3.294097,0.08132124,0.12138462,-0.19984287
195821551430000,3.302105,0.29241657,0.08019543,-0.06673384
195821559427654,3.310103,0.43239927,0.040762424,0.106289506
195821567399692,3.318075,0.5502205,0.13351488,0.24560416
195821575396807,3.326072,0.42710066,0.20604515,0.25287974
195821583415692,3.334091,0.25114584,0.22600842,0.17091262
195821591441615,3.342117,0.05552578,0.14107466,0.20828319
195821599420653,3.350096,-0.054436207,0.12831306,0.112018466
195821607413230,3.358088,-0.23536253,0.117191315,0.0053863525
195821615392730,3.366068,-0.5357661,0.07029486,-0.11533308
195821623374653,3.374050,-0.63313675,0.045898438,-0.18104213
195821631378461,3.382053,-0.6120715,0.07807636,-0.120604515
195821639376999,3.390052,-0.5908365,0.14387894,0.0013591051
195821647349499,3.398024,-0.30626822,0.16670227,0.116517186
195821655347653,3.406023,-0.13474989,0.13487482,0.16863894
195821663370307,3.414045,-0.04076433,0.022250652,0.22126436
195821671392769,3.422068,0.09525633,-0.0946517,0.17289805
195821679373999,3.430049,0.3570528,-0.12973833,0.09794283
195821687362422,3.438037,0.56631374,0.021081448,0.048770547
195821695341268,3.446016,0.61169004,0.12745142,-0.057964563
195821703319345,3.453994,0.563077,0.055155754,-0.1573683
195821711327115,3.462002,0.3661089,-0.062182426,-0.14353621
195821719322461,3.469997,0.2592268,-0.08259916,-0.024086118
195821727293884,3.477969,0.08875513,-0.07762241,0.094307065
195821735290345,3.485965,-0.18118095,-0.033032894,0.10215616
195821743292576,3.493968,-0.25652552,0.02287674,0.04986298
195821751318384,3.501993,-0.26753426,0.117614746,-0.015553117
195821759296768,3.509972,-0.25787544,0.12747765,-0.07371855
195821767286807,3.517962,-0.29495382,-0.031029224,-0.15283096
195821775266807,3.525942,-0.37490273,-0.14658546,-0.073640585
195821783247345,3.533922,-0.25530386,-0.22971535,5.155802E-4
195821791256383,3.541931,-0.12798214,-0.2538743,0.058238506
195821799254807,3.549930,0.2343893,-0.099328995,0.04036975
195821807251999,3.557927,0.55999136,0.019918442,0.033946037
195821815256768,3.565932,0.7518754,-0.0025615692,0.08562863
195821823243691,3.573919,0.72014093,-0.10081625,0.13755274
195821831270922,3.581946,0.6374097,-0.16726732,0.14840305
195821839250960,3.589926,0.46907473,-0.14820957,0.11793065
195821847239537,3.597915,0.15013266,-0.13425684,-0.0016553402
195821855218806,3.605894,-0.056551933,-0.093801975,-0.11185968
195821863198499,3.613873,-0.11808443,-0.018838406,-0.08195007
195821871206999,3.621882,-0.05112648,0.018840313,0.029796839
195821879205575,3.629881,0.041399002,0.05778265,0.16758466
195821887213729,3.637889,0.054258823,0.04998207,0.27632535
195821895213691,3.645889,0.008575916,0.04119587,0.34995437
195821903217729,3.653893,-0.14211369,0.08456564,0.2857865
195821911245268,3.661920,-0.30038977,0.03943205,0.11126959
195821919227306,3.669902,-0.3063097,-0.019401073,0.02454555
195821927220998,3.677896,-0.29023886,-0.02144289,0.023666501
195821935201998,3.685877,-0.36627102,-0.032124996,-0.004399419
195821943183460,3.693858,-0.47675323,-0.03972292,-0.01629436
195821951191229,3.701866,-0.5356178,-0.029755116,0.012048006
195821959190267,3.709865,-0.4703412,-1.9693375E-4,0.013710499
195821967162729,3.717838,-0.42416382,0.043982983,0.046957374
195821975159114,3.725834,-0.4275303,0.07607365,0.028171659
195821983169960,3.733845,-0.36110735,0.09854174,-0.0070763826
195821991197229,3.741872,0.13976526,0.05788994,0.114703536
195821999175806,3.749851,0.36661148,-0.010108948,0.25656986
195822007163613,3.757839,0.49531126,-0.013374329,0.19428623
195822015143767,3.765819,0.393075,-0.003950596,0.14349687
195822023122998,3.773798,0.16529083,0.022704601,0.055134773
195822031126459,3.781801,-0.06426954,0.024328709,-0.05445957
195822039123844,3.789799,-0.22935867,0.045129776,-0.11276412
195822047096421,3.797771,-0.18929052,0.10518026,-0.15288275
195822055093459,3.805768,-0.03762579,0.1209569,-0.19444907
195822063106882,3.813782,0.15135622,0.13819265,-0.17157179
195822071134190,3.821809,0.36147213,0.15126562,-0.080411196
195822079113575,3.829789,0.47121525,0.17144918,-0.009159088
195822087102344,3.837777,0.42624092,0.118830204,-0.021569729
195822095079459,3.845754,0.32466555,0.11542368,-0.07611883
195822103056959,3.853732,0.17550373,0.15925407,-0.13577777
195822111063151,3.861738,0.0572443,0.1863308,-0.12935704
195822119060998,3.869736,0.0843997,0.22824192,-0.08336854
195822127034421,3.877709,0.15081453,0.25730228,0.005830765
195822135030844,3.885706,0.41008997,0.29004478,0.06300318
195822143056651,3.893732,0.80041075,0.28048992,0.18409503
195822151081882,3.901757,0.99494696,0.2895503,0.1302197
195822159059305,3.909734,1.0661902,0.2328558,0.06568813
195822167046574,3.917722,0.8876686,0.10271406,0.10099733
195822175026228,3.925701,0.5303855,0.05279064,0.060714364
195822183005536,3.933681,0.16797781,0.07464361,0.007618904
195822191012151,3.941687,-0.17140818,0.116116524,-0.18203783
195822199010420,3.949685,-0.37689447,0.13606787,-0.2389124
195822206983459,3.957658,-0.3894477,0.11635828,-0.15910697
195822214980997,3.965656,-0.34188604,0.094133854,-0.12717754
195822222962536,3.973638,-0.18781757,0.022861958,-0.109077275
195822230984959,3.981660,-0.08211374,-0.014492989,-0.12611407
195822238964613,3.989640,-0.07457352,-0.0017428398,-0.16591275
195822246956189,3.997631,-0.10034561,0.034618855,-0.2886932
195822254934497,4.005609,-0.21953344,-7.7962875E-4,-0.3468973
195822262922728,4.013598,-0.35095167,-0.069345,-0.35046333
195822270929497,4.021604,-0.28935528,-0.11529064,-0.27804446
195822278932420,4.029607,0.074786186,-0.06128645,-0.2307325
195822286904728,4.037580,0.32199144,-0.08376455,-0.22197747
195822294903382,4.045578,0.49651432,-0.1746788,-0.27360892
195822302895843,4.053571,0.52689886,-0.31795692,-0.26388186
195822310921843,4.061597,0.4946971,-0.37975836,-0.2688458
195822318902035,4.069577,0.40500355,-0.32931948,-0.34567338
195822326889112,4.077564,0.34949875,-0.2678852,-0.38697636
195822334868574,4.085544,0.26153517,-0.18111086,-0.28542668
195822342848035,4.093523,0.20615053,-0.095460415,-0.15096605
195822350856035,4.101531,0.12097168,-0.08956671,-0.0788185
195822358855727,4.109531,-0.018240929,-0.14657307,-0.02673322
195822366827727,4.117503,-0.16124964,-0.18054676,-0.026035309
195822374825497,4.125500,-0.31817675,-0.18638945,-0.1513449
195822382826766,4.133502,-0.2982931,-0.13210106,-0.18967515
195822390853881,4.141529,-0.27234697,-0.047846317,-0.103780866
195822398833304,4.149508,-0.25175667,-0.008388042,-0.08074772
195822406827266,4.157502,-0.27953243,0.01019907,-0.0038064718
195822414806496,4.165481,-0.27664185,0.034151554,0.08689362
195822422786035,4.173461,-0.18283558,0.062943935,0.20645815
195822430795266,4.181470,0.025979996,0.12748766,0.24512893
195822438793766,4.189469,0.113512516,0.17680168,0.18074667
195822446766343,4.197441,0.07024956,0.18227339,0.08377844
195822454762727,4.205438,-0.01507616,0.16530037,0.076314926
195822462772727,4.213448,-0.13068485,0.13554955,0.10889119
195822470798842,4.221474,-0.13565636,0.12907839,0.089696705
195822478777419,4.229452,-0.18782806,0.1623807,0.076678574
195822486766227,4.237441,-0.25597382,0.26428986,-0.070494294
195822494744535,4.245420,-0.31185722,0.25348616,-0.12273848
195822502722458,4.253397,-0.2674141,0.22651052,-0.05756843
195822510730996,4.261406,-0.1925168,0.16219568,0.08974302
195822518728073,4.269403,-0.1781373,0.1058898,0.116607785
195822526699458,4.277374,-0.20542955,0.09847021,0.1342209
195822534694534,4.285370,-0.16419792,0.060760498,0.14800298
195822542707919,4.293383,0.04068184,0.11792278,0.14613163
195822550732842,4.301408,0.19094276,0.13870764,0.1859814
195822558712304,4.309387,0.2037549,0.07182264,0.2219584
195822566704611,4.317380,0.13250303,0.0049967766,0.19962096
195822574683573,4.325359,0.09933901,4.8065186E-4,0.16649461
195822582662457,4.333337,0.1206584,0.027567863,0.09846163
195822590671842,4.341347,0.119886875,0.052681446,0.050691605
195822598670957,4.349346,0.32664204,0.01634121,0.005598426
195822606644842,4.357320,0.44688463,-4.4202805E-4,0.07514799
195822614643265,4.365318,0.47451496,-0.0010209084,0.08558893
195822622662726,4.373338,0.46204805,-0.004536152,0.0068005323
195822630689457,4.381364,0.35208702,-0.044656277,0.023633718
195822638669803,4.389345,0.25761604,-0.05019188,0.06514013
195822646658073,4.397333,0.1733656,-0.042194366,0.06442106
195822654640342,4.405315,0.02761221,0.034413338,0.003921747
195822662620496,4.413295,-0.05074978,-0.03538227,0.053388834
195822670628034,4.421303,0.01677847,-0.042771816,0.093369484
195822678625342,4.429300,0.010028839,-0.009269714,0.13733387
195822686617342,4.437292,-0.08008909,0.004743576,0.2427175
195822694614495,4.445289,-0.27031994,0.023133755,0.23752213
195822702598342,4.453273,-0.43886852,0.0150260925,0.09835911
195822710623649,4.461299,-0.48600817,0.041125298,-0.05469966
195822718602611,4.469278,-0.32654572,0.016353607,-0.05422461
195822726621303,4.477296,-0.056998253,0.0062537193,0.046688557
195822734599957,4.485275,0.13707733,0.040656567,0.051696897
195822742579649,4.493255,0.38560867,0.066119194,0.033109426
195822750586380,4.501261,0.46475363,0.045299053,0.10162687
195822758585111,4.509260,0.43059683,0.015409946,0.10141528
195822766585226,4.517260,0.36264753,0.007203102,0.06722295
195822774585072,4.525260,0.30110598,-0.009883881,-0.113583624
195822782581918,4.533257,0.2720294,-0.018753529,-0.1371246
195822790608034,4.541283,0.2061801,-0.024297714,-0.12141436
195822798588264,4.549263,0.16280842,0.029158115,-0.09238231
195822806576187,4.557251,0.09873915,0.09379959,-0.023563147
195822814554033,4.565229,0.11410332,0.15335703,0.072978735
195822822533649,4.573209,0.14149332,0.18427658,0.09922302
195822830541187,4.581216,0.029972076,0.19375515,0.18027341
195822838539533,4.589215,-0.079348564,0.14352179,0.19716883
195822846513187,4.597188,-0.11729622,0.1629653,0.1485691
195822854510341,4.605185,-0.0986228,0.18293953,0.12867069
195822862514533,4.613190,-0.17374659,0.18896627,0.14258158
195822870540879,4.621216,-0.22055721,0.2002511,0.046305776
195822878519033,4.629194,-0.23023081,0.17211199,-0.016389728
195822886511725,4.637187,-0.0399971,0.14997911,0.0053476095
195822894488379,4.645163,0.2135868,0.11233139,-0.010169148
195822902467456,4.653142,0.31584644,0.10387564,-0.0419755
195822910474418,4.661149,0.2799387,0.073102474,-0.10009813
195822918470341,4.669145,0.18531752,0.06260109,-0.105428696
195822926487995,4.677163,-0.03202629,0.09082651,-0.13461375
195822934484648,4.685160,-0.15285158,0.12538719,-0.13255405
195822942490341,4.693165,-0.18999863,0.1554718,-0.12197685
195822950522379,4.701197,-0.012494564,0.14596272,-0.05985427
195822958499687,4.709175,0.25477743,0.094774246,0.011387587
195822966500610,4.717176,0.46674109,0.08705139,0.005429983
195822974501071,4.725176,0.5645485,0.085683346,-0.06526327
195822982531071,4.733206,0.55338,0.037572384,-0.09057808
195822990536302,4.741211,0.44832134,0.020918846,-0.09917474
195822998532187,4.749207,0.50957346,0.07238293,-0.08328807
195823006503340,4.757178,0.34244156,0.0815959,-0.091623664
195823014541110,4.765216,0.1757636,0.0975399,-0.15523791
195823022554340,4.773229,0.10991955,0.084499836,-0.13527083
195823030579571,4.781255,0.04369545,0.05736208,-0.085667014
195823038558417,4.789233,-0.061012268,0.008842468,-0.062179446
195823046551456,4.797226,-0.21367979,0.0417881,-0.021769643
195823054531263,4.805206,-0.29989958,0.08955574,-0.004197836
195823062511917,4.813187,-0.39172173,0.11171579,0.009508729
195823070520379,4.821195,-0.40088272,0.108695984,-0.031396866
195823078517263,4.829192,-0.32590485,0.0671792,-0.0027118921
195823086492686,4.837168,-0.20437622,0.029466152,0.054931045
195823094491148,4.845166,0.009478092,-1.0967255E-5,0.079524636
195823102514417,4.853189,0.16539907,-2.9230118E-4,0.10441041
195823110541455,4.861216,0.13950443,0.02083397,0.117231846
195823118520032,4.869195,0.06421709,0.0026741028,0.08466005
195823126509994,4.877185,0.15416431,-0.034772873,0.033474565
195823134487994,4.885163,0.16546202,-0.08210945,-0.03011167
195823142468763,4.893144,0.15820265,-0.11801958,-0.101486444
195823150476994,4.901152,0.08914709,-0.1568408,-0.12484205
195823158479609,4.909155,-0.07277489,-0.17954636,-0.17162263
195823166452109,4.917127,-0.22713518,-0.17863035,-0.20934403
195823174448609,4.925124,-0.32442093,-0.14368439,-0.19251704
195823182435109,4.933110,-0.32183838,-0.18213892,-0.2024144
195823190462340,4.941137,-0.20353174,-0.15182209,-0.19556832
195823198440955,4.949116,-0.074564934,-0.14630747,-0.21326101
195823206432147,4.957107,0.115035534,-0.14611244,-0.19319189
195823214409109,4.965084,0.3064561,-0.13075066,-0.013658404
195823222388724,4.973064,0.5000205,-0.11739731,0.1293956
195823230396955,4.981072,0.59363127,-0.107082844,0.20777869
195823238395109,4.989070,0.55437374,-0.047810555,0.18802488
195823246367686,4.997043,0.427783,-0.023379803,0.15843141
195823254366147,5.005041,0.25243092,0.013755798,0.1551559
195823262361570,5.013037,0.087666035,-5.903244E-4,0.14284146
195823270387339,5.021062,-0.12685013,0.017690182,5.7053566E-4
195823278388878,5.029064,-0.28435278,0.06496382,-0.0877645
195823286375532,5.037051,-0.35200214,0.08233309,-0.14488792
195823294353878,5.045029,-0.27125978,0.10945368,-0.13193572
195823302334608,5.053010,-0.079669,0.15040064,0.0150613785
195823310341801,5.061017,0.08911562,0.164083,0.14969397
195823318338647,5.069014,0.30056524,0.17373419,0.22537899
195823326311762,5.076987,0.44775724,0.144835,0.28577256
195823334309647,5.084985,0.43334532,0.13393688,0.3165244
195823342309762,5.092985,0.36800575,0.13311672,0.29681945
195823350337647,5.101013,0.28957272,0.15468788,0.25154996
195823358315762,5.108991,0.2311163,0.15833092,0.16697466
195823366309454,5.116984,0.2569213,0.16365623,0.1121974
195823374289954,5.124965,0.3262,0.14698601,0.06476128
195823382269993,5.132945,0.35316896,0.15113354,0.023715973
195823390278954,5.140954,0.25451374,0.15655231,0.04576516
195823398277531,5.148953,0.14296627,0.1940937,0.04020214
195823406251993,5.156927,0.044663906,0.26156473,0.105314374
195823414253070,5.164928,-0.14412165,0.28308153,0.10537958
195823422264377,5.172939,-0.26124525,0.2497673,0.110002875
195823430292416,5.180967,-0.2529893,0.23953152,0.06993294
195823438272262,5.188947,-0.18140554,0.26878548,0.07202625
195823446261300,5.196936,-0.07299566,0.24193144,0.025355458
195823454241569,5.204917,0.041190624,0.20671034,0.0954144
195823462220877,5.212896,0.11663675,0.17660093,0.11363995
195823470227262,5.220902,0.17298508,0.2373228,0.06529081
195823478223723,5.228899,0.155509,0.24973536,1.2552738E-4
195823486196300,5.236871,0.12887001,0.21870708,-0.0057866573
195823494193492,5.244868,0.122098446,0.15592957,0.006589651
195823502212339,5.252887,0.26659155,0.123850346,-0.014816999
195823510236146,5.260911,0.30874205,0.10798597,-0.02013576
195823518213723,5.268889,0.24711227,0.109847546,-0.031844616
195823526203492,5.276878,0.078903675,0.08179426,0.044565797
195823534180454,5.284855,-0.15314436,0.11258221,0.069027305
195823542159146,5.292834,-0.22738314,0.13145924,0.056125283
195823550165261,5.300840,-0.2070818,0.14197254,0.096654296
195823558161300,5.308836,-0.15945768,0.08685064,0.094851255
195823566133146,5.316808,0.003540039,0.011889458,-0.0052599907
195823574131184,5.324806,0.13929749,-0.071956635,-0.15402281
195823582159107,5.332834,0.21812773,-0.14934444,-0.2732888
195823590182607,5.340858,0.29790163,-0.14141989,-0.35266578
195823605088107,5.355763,-0.011047363,-0.10625219,-0.29782337
195823613067069,5.363742,-0.12224436,-0.14341259,-0.21395886
195823621045569,5.371721,-0.19070101,-0.20173883,-0.17314315
195823629055761,5.379731,-0.23115826,-0.23309755,-0.17210913
195823637067107,5.387742,-0.17908955,-0.20864677,-0.17725408
195823645078953,5.395754,-0.14193535,-0.14298773,-0.19866264
195823653075492,5.403750,-0.11714649,-0.105515,-0.18716705
195823661063569,5.411739,-0.12643862,-0.06722832,-0.11212611
195823669088761,5.419764,-0.062295437,-0.095000744,-0.030564666
195823677067530,5.427743,0.0056524277,-0.14330196,0.11353576
195823685058684,5.435734,0.19996262,-0.17924309,0.13416362
195823693037261,5.443712,0.2528472,-0.13848019,0.045169353
195823701017107,5.451692,0.19852352,-0.06697798,-0.047250867
195823709022953,5.459698,0.15655613,-0.093934536,-0.056539536
195823717020607,5.467696,0.12921524,-0.111542225,-0.030218601
195823724992607,5.475668,0.06870937,-0.14155388,-0.03475976
195823732989338,5.483664,-0.08959055,-0.10497475,-0.060611486
195823740982261,5.491657,-0.15933657,-0.03970337,-0.08128846
195823749008453,5.499683,-0.28481197,0.014154434,-0.048395157
195823756984838,5.507660,-0.3369074,0.052115917,-0.043923736
195823764972837,5.515648,-0.25619555,0.0698781,0.0325855
195823772952107,5.523627,-0.17432833,0.08188534,0.09437859
195823780930953,5.531606,-0.121510506,0.06559992,0.10785389
195823788938645,5.539614,0.019704342,0.087818146,0.17172837
195823796935337,5.547610,0.11795902,0.10748911,0.14944696
195823804941107,5.555616,0.19001102,0.10068226,0.1559174
195823812937991,5.563613,0.14794779,0.09776974,0.22949088
195823820970337,5.571645,0.12803078,0.11084938,0.30842483
195823829006414,5.579681,0.01040411,0.11848116,0.28047776
195823837006722,5.587682,-0.01618433,0.10645962,0.096823335
195823845042876,5.595718,-0.04539013,0.06324816,0.003437996
195823853020414,5.603695,-8.8214874E-4,0.05389166,-0.06238377
195823860999529,5.611675,0.09112978,-5.173683E-4,0.010624886
195823869005914,5.619681,0.16421556,-0.05522585,0.14617813
195823877009068,5.627684,0.3279333,-0.013066292,0.081159234
195823885026683,5.635702,0.2608695,0.06793976,-0.027872562
195823893024568,5.643700,-0.03468561,0.17449856,-0.009020209
195823901032568,5.651708,-0.2073822,0.15878534,0.025353193
195823909059760,5.659735,-0.4278674,0.09757757,0.054446936
195823917039298,5.667714,-0.5717535,0.122754574,0.02272904
195823925027414,5.675702,-0.4132471,0.13321114,-0.15367508
195823933006145,5.683681,-0.13740206,0.1516943,-0.278502
195823940984991,5.691660,0.31499434,0.22932386,-0.06997657
195823948990875,5.699666,0.7203636,0.16604471,0.12227261
195823956988683,5.707664,0.9860201,0.017616749,0.23278296
195823964959375,5.715634,0.9990883,-0.05080223,0.17145073
195823972955567,5.723631,0.91816473,-0.08041096,0.035532594
195823980973298,5.731648,0.7746906,-0.04508066,0.015688062
195823989047798,5.739723,0.57506275,0.015109062,0.07574308
195823997056875,5.747732,0.30251312,0.09048796,0.0838058
195824005046721,5.755722,0.18070316,0.21809912,0.16271627
195824013024875,5.763700,0.28935814,0.330647,0.35181034
195824021004221,5.771679,0.32098246,0.324183,0.35777342
195824029012452,5.779687,0.37656212,0.10909605,0.28405595
195824037012067,5.787687,0.31736135,-0.116380215,0.20426619
195824044985452,5.795660,0.16173458,-0.16214752,-0.020816445
195824052982221,5.803657,0.07588434,-0.07020807,-0.21066546
195824061003875,5.811679,-0.011854649,0.042418003,-0.35820293
195824069030452,5.819705,-0.029818535,0.07806158,-0.32380855
195824077008875,5.827684,-0.05224228,0.029924393,-0.19086027
195824084996182,5.835671,-0.08872843,-0.032563686,-0.117225885
195824092974990,5.843650,-0.08920908,-0.008687973,-0.16235852
195824100952682,5.851628,-0.07988167,0.02717638,-0.22569847
195824108984144,5.859659,-0.10873318,0.017663956,-0.1922239
195824117002644,5.867678,-0.2450223,-0.0014247894,-0.083884
195824124975259,5.875650,-0.290236,0.017789364,0.09100127
195824132971836,5.883647,-0.31203747,0.083099365,0.24906111
195824140952413,5.891627,-0.23905039,0.10870457,0.25917113
195824148976336,5.899651,-0.06641865,0.09932804,0.15718722
195824156953644,5.907629,-0.02853012,0.018815517,0.012350798
195824164943490,5.915618,-0.053438663,-0.0659523,-0.10574937
195824172921528,5.923597,-0.045153618,-0.11948252,-0.20579004
195824180902144,5.931577,-0.063489914,-0.06518698,-0.22322893
195824188910720,5.939586,-0.07738352,-0.025000095,-0.19452405
195824196907220,5.947582,-0.053341866,0.0011897087,-0.09376454
195824204879374,5.955554,-0.03654194,-0.010795116,-0.055624843
195824212877143,5.963552,-0.050760746,-0.008383751,-0.08768737
195824220869490,5.971544,-0.019314766,-0.017933846,-0.07772374
195824228894182,5.979569,0.029202461,-0.037240505,-0.08537316
195824236928143,5.987603,-0.070400715,-0.08792257,-0.10312486
195824244995259,5.995670,-0.13168001,-0.07395649,-0.07549739
195824253050682,6.003726,-0.10956478,0.026594162,-0.09788239
195824261107682,6.011783,-0.004383564,0.07765436,-0.05073297
195824269143759,6.019819,0.16682386,0.04606533,0.060869098
195824277138989,6.027814,0.3108616,-0.006058693,0.16720498
195824285151951,6.035827,0.41184902,-0.032075405,0.14759266
195824293153259,6.043828,0.4370842,-0.009006977,0.031089544
195824301154297,6.051829,0.45800447,0.039817333,-0.04441631
195824309181335,6.059856,0.3910966,0.09510946,-0.029549241
195824317166605,6.067842,0.25590515,0.09430885,-0.008727431
195824325183028,6.075858,0.04959488,0.09516573,-0.08626747
195824333160451,6.083835,0.037255764,0.11033726,-0.10152173
195824341138797,6.091814,0.06274605,0.17156601,-0.061906815
195824349144912,6.099820,0.14776468,0.1876831,-0.027160168
195824357143489,6.107818,0.16588259,0.13909721,-0.06230116
195824365114297,6.115789,0.16752815,0.15487385,-0.028162718
195824373168104,6.123843,0.11201191,0.1895132,0.12550592
195824381183066,6.131858,0.13389587,0.23997259,0.25085056
195824389210874,6.139886,0.041382313,0.29931068,0.26190925
195824397189335,6.147864,-0.05774641,0.31496096,0.13398218
195824405177258,6.155852,-0.06340647,0.29942322,0.12798333
195824413156450,6.163831,-0.05958414,0.24313879,0.1179688
195824421135758,6.171811,-0.020013332,0.22990131,0.049262166
195824429141989,6.179817,-0.019114971,0.24795198,-0.099663496
195824437138950,6.187814,0.0055570602,0.23974991,-0.15230227
195824445165950,6.195841,0.008523464,0.21744442,-0.119179726
195824453196566,6.203872,-5.1498413E-4,0.23835707,-0.024221897
195824461217412,6.211892,4.3582916E-4,0.2565751,0.10353744
195824469243181,6.219918,-0.06268072,0.22406054,0.23763669
195824477223873,6.227899,-0.058276653,0.24390268,0.32045937
195824485213566,6.235889,0.16865253,0.2687335,0.35517347
195824493192642,6.243868,0.28743553,0.25087404,0.2991159
195824501171989,6.251847,0.32723618,0.17070961,0.21449077
195824509180104,6.259855,0.3625927,0.07313633,0.15759456
195824517177335,6.267852,0.45365286,0.03417778,0.12260699
195824525149412,6.275824,0.41346216,0.03999901,0.12240064
195824533180027,6.283855,0.17309237,0.006453514,4.2247772E-4
195824541207988,6.291883,-0.18883514,-0.051653862,-0.035128593
195824549238565,6.299914,-0.43611288,-0.14074516,-0.09617174
195824557221719,6.307897,-0.4219737,-0.12504911,-0.19663143
195824565208911,6.315884,-0.31166744,-0.119155884,-0.26849568
195824573186334,6.323861,-0.20307112,-0.12812853,-0.2904235
195824581165950,6.331841,-0.045574665,-0.18345737,-0.23599994
195824589172181,6.339847,0.051686764,-0.1904521,-0.23686504
195824597169565,6.347845,0.02726984,-0.22653866,-0.25016308
195824605166988,6.355842,-0.091664314,-0.2303009,-0.28810096
195824613186911,6.363862,-0.12362337,-0.25883722,-0.2949252
195824621174796,6.371850,-0.16460848,-0.19442034,-0.2978052
195824629199988,6.379875,-0.19339705,-0.21136999,-0.24463451
195824637177142,6.387852,-0.28203344,-0.24240208,-0.20252728
195824645167719,6.395843,-0.3829074,-0.26829958,-0.2564919
195824653146142,6.403821,-0.45331287,-0.2792759,-0.25705397
195824661125411,6.411800,-0.40734673,-0.23901749,-0.22146332
195824669132680,6.419808,-0.24827194,-0.19910765,-0.16494215
195824677129988,6.427805,0.014800549,-0.18873453,-0.090047
195824685136372,6.435811,0.14303493,-0.17246962,0.033644795
195824693133988,6.443809,0.20216751,-0.19687462,0.12669337
195824701131680,6.451807,0.19246483,-0.19553566,0.1716801
195824709159680,6.459835,0.11458206,-0.18369055,0.18622148
195824717138372,6.467813,-0.029510975,-0.15126276,0.076690555
195824725126565,6.475802,-0.19466782,-0.12657881,0.024867177
195824733105988,6.483781,-0.33846378,-0.09928274,0.07111156
195824741085218,6.491760,-0.37088346,-0.07310152,0.18896496
195824749091949,6.499767,-0.35683584,-0.045363426,0.22042298
195824757094334,6.507769,-0.22498369,-0.034961224,0.18837655
195824765105449,6.515780,-0.11594534,-0.047509193,0.16297448
195824773103372,6.523778,-0.05761528,-0.045528412,0.13430417
195824781107218,6.531782,-0.1833539,-0.03945017,-0.0145071745
195824789132987,6.539808,-0.3327961,-0.029024601,-0.14320755
195824797110834,6.547786,-0.52041245,-0.028393269,-0.19488227
195824805102218,6.555777,-0.47373438,0.003689289,-0.16250563
195824813081257,6.563756,-0.41801023,0.036429405,-0.17356968
195824821061103,6.571736,-0.30645323,0.05191326,-0.24265897
195824829068564,6.579744,0.0067954063,0.038242817,-0.13203299
195824837067103,6.587742,0.18685627,0.016748905,-0.064860344
195824845089641,6.595765,0.2916975,-0.0061178207,-0.11681056
195824853089603,6.603765,0.31563044,0.008618832,-0.22996211
195824861101333,6.611776,0.3232813,0.07290125,-0.3969254
195824869129564,6.619805,0.29352808,0.13642073,-0.42598486
195824877108179,6.627783,0.33360434,0.17347097,-0.35584837
195824885095718,6.635771,0.39084816,0.19612026,-0.28044355
195824893073833,6.643749,0.29808283,0.20380783,-0.17060268
195824901052141,6.651727,0.33037853,0.23996782,-0.09359813
195824909060372,6.659735,0.4278679,0.3068304,0.0017235279
195824917059218,6.667734,0.43511105,0.38508463,0.11269534
195824925033025,6.675708,0.3642826,0.4504733,0.22297597
195824933031141,6.683706,0.24211454,0.45196247,0.35079312
195824941052025,6.691727,0.11363983,0.51691055,0.48678386
195824949081025,6.699756,0.07015133,0.5565314,0.6253803
195824957060833,6.707736,0.02346611,0.5919657,0.66337633
195824965052833,6.715728,-0.011852741,0.5344844,0.65303266
195824973033102,6.723708,-0.05695963,0.4409895,0.55179954
195824981014641,6.731690,-0.1291194,0.35280943,0.46479535
195824989022564,6.739698,-0.3526988,0.31053734,0.36311972
195824997022102,6.747697,-0.43609524,0.33870077,0.18922424
195825004996410,6.755671,-0.42135334,0.38370705,0.0558573
195825013002333,6.763677,-0.3809514,0.350626,0.09419358
195825021033063,6.771708,-0.24224186,0.22187662,0.087263584
195825029057294,6.779732,-0.10343075,0.114562035,0.07456124
195825037037794,6.787713,0.24449348,0.047012806,0.076683044
195825045027410,6.795702,0.4687991,0.007197857,0.07208264
195825053007256,6.803682,0.4881134,-0.019310474,0.083492875
195825060987563,6.811663,0.40397215,-0.03124237,0.115850925
195825068996602,6.819672,0.3099947,0.0022029877,0.09520364
195825076995717,6.827671,0.34716415,0.016820908,-0.010152698
195825084969871,6.835645,0.31181335,-0.0013251305,-0.08405757
195825092967217,6.843642,0.3433652,-0.038327694,-0.23030078
195825100949832,6.851625,0.4557891,-0.110486984,-0.3076682
195825108978525,6.859654,0.52280617,-0.13932228,-0.3505153
195825116960332,6.867635,0.50155354,-0.15390873,-0.37525696
195825124951525,6.875627,0.39270353,-0.047250748,-0.30783212
195825132932025,6.883607,0.23770809,0.055655003,-0.17407751
195825140912217,6.891587,0.18384361,0.0601058,-0.15221906
195825148920255,6.899595,0.19222736,-0.009360313,-0.12701273
195825156918409,6.907593,0.34554625,-0.10845518,-0.14106405
195825164892024,6.915567,0.4762025,-0.15107346,-0.14120662
195825172890755,6.923566,0.44838667,-0.19560528,-0.16251576
195825180884063,6.931559,0.27696085,-0.2139759,-0.2165761
195825188912332,6.939587,0.051140785,-0.20202637,-0.21056461
195825196891486,6.947566,-0.16424465,-0.14529085,-0.16521907
195825204978947,6.955654,-0.3456273,-0.040528774,-0.087316275
195825212958140,6.963633,-0.1609807,0.10854149,0.18521512
195825220974793,6.971650,0.21625185,0.16636181,0.45302308
195825228983640,6.979659,0.40876627,0.121852875,0.66277385
195825236981678,6.987657,0.58011246,0.045497417,0.7471739
195825244954370,6.995629,0.5155034,-0.008651733,0.7525228
195825252951832,7.003627,0.40753603,-0.09203625,0.8649528
195825260950447,7.011625,0.13117218,-0.19231653,0.97812533
195825268980639,7.019656,-0.4759884,-0.2164979,0.698858
195825276959870,7.027635,-0.8309331,-0.043657303,0.2998824
195825284949639,7.035625,-1.2640948,0.056771755,0.13162374
195825292928716,7.043604,-1.5071049,-0.02529192,0.15163589
195825300908678,7.051584,-1.288064,-0.17203856,0.25076723
195825308911178,7.059586,-0.8807912,0.0072574615,0.055782676
195825316908716,7.067584,-0.36699247,-0.087228775,0.51638246
195825324882293,7.075557,0.18406391,0.008776188,1.618499
195825332879216,7.083554,0.4728222,0.18599987,1.5943073
195825340884716,7.091560,0.0066308975,0.1516242,1.2764246
195825348907447,7.099582,-0.7365284,-0.16523409,1.2056421
195825356886639,7.107562,-1.7947178,-0.5658908,1.0004879
195825364873485,7.115548,-2.5574055,-0.9174981,0.92746127
195825372855101,7.123530,-2.804226,-1.1500735,0.5802609
195825380834062,7.131509,-2.9445133,-1.359056,0.013274431
195825388817754,7.139493,-2.8977013,-1.3423367,-0.26556838
195825396814331,7.147489,-2.2004642,-0.8139205,-0.60114443
195825404786408,7.155461,-1.3042307,-0.23607397,-1.0034895
195825412784370,7.163459,-0.54173994,0.1162014,-1.229202
195825420797562,7.171473,0.5266261,0.09752369,-1.2611091
195825428800831,7.179476,1.4277158,-0.22746181,-0.8663242
195825436778677,7.187454,1.8586154,-0.5164838,-0.31274825
195825444783177,7.195458,1.7403178,-0.7142172,0.34287474
195825452775793,7.203451,0.9933572,-1.1299696,1.1279157
195825460755562,7.211431,0.35263538,-1.1684947,1.4912424
195825468750754,7.219426,-0.9270129,-1.0131221,1.2074912
195825476755985,7.227431,-1.9537587,-0.9705963,-0.35488465
195825484729639,7.235405,-3.257329,-0.7893472,-2.5164847
195825492727139,7.243402,-4.033931,-0.5578027,-3.476982
195825500753715,7.251429,-3.827045,-0.26895905,-3.3556025
195825508757600,7.259433,-2.7449884,0.012170792,-2.1376662
195825516736985,7.267412,-1.8752036,0.044335365,-0.77616185
195825524724792,7.275400,-0.97003746,-0.17547894,0.19438858
195825532703792,7.283379,0.025559902,-0.20529938,0.34749377
195825540683715,7.291359,0.86324024,-0.12479019,0.097695544
195825548668677,7.299344,1.4334621,-0.16553974,-0.28874052
195825556665561,7.307341,1.8577423,-0.42609262,-0.19948804
195825564644561,7.315320,1.9971361,-0.84664917,0.22267617
195825572643446,7.323318,1.7976751,-0.9083724,0.18017778
195825580628561,7.331304,1.2959547,-0.8460212,-0.122543044
195825588641023,7.339316,1.1821651,-0.5555687,-0.7513671
195825596620369,7.347295,1.4004097,-0.12116051,-1.3524791
195825604613292,7.355288,1.3453741,0.2302866,-1.6856599
195825612592946,7.363268,1.1990585,0.38624716,-1.7306083
195825620574830,7.371250,1.5161371,0.21556139,-1.3565193
195825628579869,7.379255,1.9874716,-0.12504578,-0.44152278
195825636578792,7.387254,2.2916117,-0.1040988,-0.03868988
195825644559253,7.395234,2.1014977,-0.009843349,0.14857888
195825652557792,7.403233,1.6734848,-0.14457655,0.3629226
195825660545753,7.411221,0.8702593,-0.15119314,0.27290827
195825668571292,7.419246,-0.89028454,0.2673335,0.14458686
195825676552292,7.427227,-2.1911545,0.17250681,0.07319534
195825684542407,7.435217,-2.0374546,0.13510323,-0.7067728
195825692521599,7.443197,-1.7174997,0.40263748,-1.2525091
195825700501869,7.451177,-1.2120214,0.66849995,-1.1651833
195825708496445,7.459171,-0.36910343,0.8264055,-1.1077254
195825716493561,7.467169,0.55679893,0.7579689,-1.0932647
195825724475868,7.475151,0.96982956,0.32368326,-0.61224085
195825732473176,7.483148,1.3540764,0.022245884,0.13639045
195825740475253,7.491150,1.5782413,0.21710205,0.23207664
195825748488830,7.499164,1.5168209,0.48596907,0.10206759
195825756466253,7.507141,0.80473614,0.2165165,-0.31746566
195825764458099,7.515133,-0.6162014,-0.13601017,-0.6831383
195825772436176,7.523111,-0.43299437,-0.03736925,-0.45956415
195825780416061,7.531091,-0.3576746,0.20562363,-0.07428014
195825788413907,7.539089,-0.030407906,0.41863394,0.18176782
195825796411214,7.547086,0.21465683,0.034081936,0.3581432
195825804429907,7.555105,0.18256187,-0.3723483,0.35739625
195825812428330,7.563103,-0.32406425,-0.56760645,0.16156578
195825820438791,7.571114,-0.4455738,-0.35663652,-0.15919507
195825828463868,7.579139,0.064852715,-0.12873793,-0.48340762
195825836441983,7.587117,0.2172823,-0.14471292,-0.50303066
195825844428060,7.595103,0.3922634,-0.1681304,-0.057403803
195825852405099,7.603080,0.45989132,-0.22540903,0.18451107
195825860447368,7.611122,0.29515743,-0.25579882,0.4961686
195825868465291,7.619140,0.06314278,-0.1467371,0.6314479
195825876460329,7.627135,0.050210953,0.12703466,0.313195
195825884443291,7.635118,0.06435871,0.14825821,-0.059519768
195825892513291,7.643188,-0.2916317,-0.12549973,-0.46585953
195825900607252,7.651282,-0.6319194,-0.33610964,-0.6864997
195825908684291,7.659359,-0.7606325,-0.2802968,-0.43676543
195825916661945,7.667337,-1.009665,-0.054736137,0.52017283
195825924666022,7.675341,-1.7812386,0.12471819,0.9129149
195825932643291,7.683318,-2.4222975,0.14428902,0.92477834
195825940622483,7.691297,-2.4041471,0.103084564,0.39854562
195825948618829,7.699294,-1.3059497,0.04228401,0.23214781
195825956615291,7.707290,0.10680485,-0.015822887,0.44707644
195825964626983,7.715302,1.5198298,-0.32889938,0.45674837
195825972624944,7.723300,2.6269236,-0.69171524,0.2374456
195825980604406,7.731279,3.1148014,-0.30688858,-1.209051
195825988606444,7.739281,2.612444,-0.13325405,-1.365171
195825996583483,7.747258,1.0038977,-0.3296404,-1.7065994
195826004570521,7.755246,-0.7096138,-0.4881482,-1.523659
195826012548444,7.763223,-1.8829341,-0.7117882,-0.75910217
195826020526675,7.771202,-1.9748116,-0.8644848,-0.4592834
195826028511790,7.779187,-0.5490422,-0.34545708,-0.37813354
195826036509560,7.787185,1.0871677,0.12560844,-0.80079967
195826044483521,7.795159,1.8488989,0.12748718,-0.82780427
195826052482560,7.803158,1.8023615,-0.014327526,-0.35209
195826060476560,7.811152,1.2312145,-0.1364603,0.03196311
195826068491367,7.819166,0.52729416,-0.18712711,-0.095489144
195826076471598,7.827147,0.44060993,-0.20253038,-0.35771477
195826084463598,7.835139,0.834157,-0.17100954,-0.4644091
195826092442406,7.843117,2.1126518,-0.053795338,0.108453035
195826100421444,7.851096,3.0216694,0.22022009,0.4649229
195826108406982,7.859082,2.0591326,0.4420066,0.456082
195826116405367,7.867080,-1.127078,0.7844434,2.1801133
195826124379021,7.875054,-2.1531663,1.2316608,3.5821548
195826132376098,7.883051,0.8054733,1.2515144,2.2169971
195826140375559,7.891051,2.606738,1.657196,1.5911537
195826148383944,7.899059,2.5567951,1.8241601,1.8862381
195826156363521,7.907039,2.8902645,1.5324244,2.1247663
195826164351521,7.915027,3.4903412,1.4323626,1.9422233
195826172331290,7.923006,3.5800056,1.3460221,1.0090954
195826180311828,7.930987,3.510952,0.9817858,-0.06444085
195826188297867,7.938973,3.294033,0.6735835,-0.5470574
195826196295021,7.946970,2.9399939,0.31565905,-0.902655
195826204266944,7.954942,2.397416,-0.02133751,-1.2337449
195826212264444,7.962939,1.9050465,-0.13150883,-2.0406718
195826220269713,7.970945,1.1034269,-0.122795105,-2.5582502
195826228273790,7.978949,0.22891617,-0.2267518,-2.6639795
195826236252367,7.986927,-0.37854004,-0.3757639,-2.1710439
195826244243828,7.994919,-0.72719526,-0.45378828,-1.9554718
195826252223674,8.002899,-1.0866861,-0.47007513,-1.424072
195826260204597,8.010880,-1.3234739,-0.42806768,-1.0147538
195826268200443,8.018875,-1.4069185,-0.3800373,-0.6756615
195826276200020,8.026875,-1.2496262,-0.3692608,-0.6994689
195826284173828,8.034849,-0.85538244,-0.39694834,-0.52091944
195826292173174,8.042848,-0.5583377,-0.35877466,-0.10716283
195826300189289,8.050864,-0.36181545,-0.24861956,0.040517688
195826308213135,8.058888,-0.12953758,-0.22715902,0.11144304
195826316192251,8.066867,0.26738358,-0.42418528,0.33307981
195826324179674,8.074855,0.622447,-0.49114132,0.5286182
195826332158443,8.082833,0.72845745,-0.30854416,0.38899517
195826340137789,8.090813,0.62414265,-0.15714836,0.3373754
195826348144981,8.098820,0.38550758,-0.007619858,-0.023927093
195826356148635,8.106824,0.08393574,0.097640514,-0.35109353
195826364121328,8.114796,0.10635853,0.17580652,-0.6934765
195826372120251,8.122795,0.25333118,0.14557219,0.1409527
195826380146289,8.130821,0.29964828,0.08372831,0.649276
195826388171597,8.138847,0.5273571,0.09181881,0.56199086
195826396151943,8.146827,0.8867836,0.08765316,0.39485443
195826404143827,8.154819,1.1208849,0.1000123,0.64859235
195826412124674,8.162800,0.91529083,0.10493708,0.7368424
195826420104520,8.170780,0.3865614,0.020030499,0.55003214
195826428113058,8.178788,-0.1983881,0.06369877,0.019238114
195826436111173,8.186786,-0.6001291,0.100075245,-0.55012333
195826444083750,8.194759,-0.5877471,0.099971294,-0.80026877
195826452081943,8.202757,-0.19251251,0.11977291,-0.68669343
195826460062289,8.210737,0.108397484,0.20166159,-0.7423709
195826468089866,8.218765,-0.035173416,0.06253815,-0.13477921
195826476069789,8.226745,-0.09005833,-0.12086201,0.2891897
195826484059943,8.234735,0.25104618,-0.15598679,0.37904763
195826492039904,8.242715,0.63665485,-0.024063587,0.040001273
195826500020173,8.250695,0.58545494,0.050384045,-0.061853766
195826508030712,8.258706,0.20856667,0.24153519,-0.4590224
195826516030942,8.266706,0.03700161,0.18904734,0.394336
195826524031096,8.274706,0.31497765,0.2328639,0.27950466
195826532030058,8.282705,0.46102238,0.3398981,-0.23198903
195826540017635,8.290693,0.120526314,0.44577074,-0.9389593
195826548043635,8.298719,-0.32752514,0.5931306,-0.28724694
195826556023481,8.306698,-0.37274075,0.5792575,0.10079789
195826564017173,8.314692,-0.30257416,0.65219975,-0.0584116
195826571996750,8.322672,-0.30937767,0.78671503,-0.7262705
195826579977596,8.330653,-0.20644093,0.87297726,-1.6232495
195826587985557,8.338661,0.036948204,0.94243145,-1.7806399
195826595985057,8.346660,0.18676758,0.800097,-0.8464897
195826603988711,8.354664,0.056451797,0.6462741,0.06478989
195826611992442,8.362667,-0.04906559,0.67361784,0.5819094
195826619992211,8.370667,0.11522484,0.7638922,0.5309888
195826628014865,8.378690,-0.113277435,0.5188756,-0.06467712
195826635995057,8.386670,-0.656867,0.39794016,-1.305373
195826643983250,8.394658,-1.0392809,0.3971796,-1.739465
195826651963211,8.402638,-0.8621707,0.7548156,-2.2465577
195826659944326,8.410619,-1.0450611,0.25322628,-0.978458
195826667953096,8.418628,-0.3263812,0.07338905,-0.5077487
195826675953057,8.426628,-0.0037021637,0.10947752,-0.14389718
195826683963980,8.434639,0.1328497,0.24472094,-0.6767229
195826691963749,8.442639,-0.06253052,0.4159026,-1.0126493
195826699968249,8.450643,-0.2996359,0.43352175,-0.9981397
195826707990788,8.458666,-0.4397812,0.44146013,-0.8513686
195826715971134,8.466646,-0.35087824,0.53955173,-0.020207047
195826723961788,8.474637,-0.15659618,0.7463627,0.47746813
195826731940865,8.482616,-0.09405136,0.70226765,0.55993164
195826739918865,8.490594,-0.14987087,0.64400244,0.24578094
195826747921057,8.498596,-0.25421906,0.7789016,0.31262863
195826755917249,8.506592,-0.29897213,0.8251958,0.48908257
195826763937672,8.514613,-0.152565,0.80090666,0.5175644
195826771951057,8.522626,0.15231228,0.7344465,0.43486166
195826779971557,8.530647,0.19974422,0.6484432,0.3732072
195826787997326,8.538672,0.2251463,0.6445527,0.3324939
195826795986980,8.546662,0.2943697,0.5757947,0.11340606
195826803974826,8.554650,0.39300823,0.472785,-0.32261252
195826811952441,8.562627,0.035500526,0.37768555,-0.7115908
195826819932941,8.570608,0.035467148,0.3462181,-1.2353983
195826827939710,8.578615,0.5341625,0.16126919,-1.4218012
195826835936249,8.586611,0.47929478,-0.07170105,-0.7394925
195826843907480,8.594582,0.15733147,-0.22801113,-0.06933856
195826851903749,8.602579,-0.29379654,0.053126812,0.5561688
195826859929749,8.610605,-0.38168383,0.35802984,-0.084881306
195826867961710,8.618637,-0.3557291,0.3315506,-1.0453098
195826875940287,8.626615,-0.55674744,0.2557764,-1.0688758
195826883930326,8.634605,-0.5231714,0.30249405,-0.99308026
195826891918441,8.642593,-0.1578474,0.28429985,-0.26513958
195826899916056,8.650591,0.26757145,0.34804773,0.2990235
195826907922095,8.658597,0.13779259,0.44540834,0.15744948
195826915918518,8.666594,-0.23914719,0.5656667,-0.025513887
195826923889979,8.674565,-0.34978104,0.57971287,-0.17251658
195826931885287,8.682560,-0.14076805,0.54037,-0.4572538
195826939913441,8.690588,0.016346931,0.44501972,-0.6365538
195826947934979,8.698610,0.1253004,0.50549746,-0.2136532
195826955912518,8.706588,0.31534863,0.5644617,-0.09845781
195826963898748,8.714574,0.4640808,0.4614482,-0.20495772
195826971879441,8.722554,0.40499973,0.4220662,-0.2910387
195826979859787,8.730535,0.14248753,0.49456692,-0.18698919
195826987868441,8.738543,-0.08506489,0.47934294,-0.42609155
195826995866479,8.746541,-0.26435947,0.29796314,-0.7280422
195827003839364,8.754514,-0.34088755,0.26404095,-0.90904534
195827011836633,8.762512,-0.4700799,0.32733202,-1.0421546
195827019825940,8.770501,-0.36039782,0.21398592,-0.89279515
195827027850633,8.778526,-0.12997818,0.11038113,-0.5888014
195827035829556,8.786505,-0.1868782,0.32689238,-1.5062237
195827043820748,8.794496,-0.6953831,0.12383509,-0.65761054
195827051800671,8.802476,-0.87458897,-0.04519987,-0.16852939
195827059781286,8.810456,-0.7969456,0.27850866,-0.2803316
195827067784363,8.818459,-0.44589233,0.29355764,-0.44385445
195827075788979,8.826464,-0.08294201,0.17359304,-0.39776653
195827083761902,8.834437,0.55378246,0.18521643,-0.3567295
195827091758786,8.842434,0.96469784,0.23105621,-1.0222256
195827099760056,8.850435,0.74359703,-0.16075945,-1.3878961
195827107784286,8.858459,0.2357769,0.14028978,-0.7617829
195827115762055,8.866437,-0.09521961,0.29958057,-0.04849595
195827123750017,8.874425,0.4848194,0.56671524,0.46425295
195827131728709,8.882404,0.46860886,0.9736428,1.0889657
195827139707671,8.890383,0.73355484,0.96416616,0.41335428
195827147714171,8.898389,0.8521223,0.88311005,-0.13276911
195827155710940,8.906386,0.607214,0.67453,-0.46575814
195827163683517,8.914359,0.24795628,0.7340727,-0.8376066
195827171681478,8.922356,-0.030641556,0.6526942,-0.96886003
195827179690248,8.930365,-0.19362354,0.37964535,-0.8730242
195827187718786,8.938394,-0.22995949,0.29418898,-0.87172866
195827195698940,8.946374,-0.50612545,0.34106922,-1.1001108
195827203691863,8.954367,-0.6571274,0.33528566,-1.2035733
195827211672786,8.962348,-0.56918764,0.19032145,-1.1190081
195827219654517,8.970330,-0.24209881,0.123476505,-0.8147901
195827227658786,8.978334,-0.09487629,0.09193277,-0.79805875
195827235658863,8.986334,0.20503426,-0.15029716,-0.7385973
195827243633440,8.994308,0.67029953,-0.40054893,-0.68899745
195827251631286,9.002306,0.6591358,-0.3776517,-0.7203696
195827259644516,9.010320,0.43339252,-0.33427525,-0.78858805
195827267671286,9.018346,0.4691,-0.37261772,-0.7590428
195827275671901,9.026347,0.8419428,-0.41482067,-0.5910275
195827283662170,9.034337,1.0677156,-0.3998003,-0.34952232
195827291642055,9.042317,1.0035963,-0.21779394,-0.19452961
195827299623516,9.050299,1.1405897,-0.12054682,0.19703689
195827307631939,9.058307,1.268239,-0.06755161,0.6377946
195827315630132,9.066305,0.75974274,0.041053295,0.6746321
195827323605555,9.074281,0.0849762,0.06790495,0.63164735
195827331605093,9.082280,-0.2601719,0.13325405,0.86464274
195827339629824,9.090305,-0.65450525,0.24946928,1.0367167
195827347645516,9.098321,-1.1924028,0.46855402,1.030662
195827355627208,9.106302,-1.4702935,0.6195698,1.109091
195827363621247,9.114296,-1.2332773,0.5847964,1.4290357
195827371602055,9.122277,-1.0579286,0.56450033,1.3695055
195827379583208,9.130258,-1.2422953,0.6428795,1.1684135
195827387584478,9.138259,-1.5325003,0.71223545,1.0391301
195827395581477,9.146256,-1.568284,0.66176224,0.8661776
195827403572901,9.154248,-1.5232863,0.6558118,0.53096807
195827411571054,9.162246,-1.4562888,0.75292015,0.2579009
195827419558131,9.170233,-1.0225801,0.77868986,0.041610748
195827427581670,9.178257,-0.40707397,0.6337538,0.014872134
195827435561285,9.186236,-0.113108635,0.35362577,-0.5858622
195827443549323,9.194224,-0.24637747,0.67980385,-0.017726183
195827451527400,9.202202,-0.065917015,0.74599886,0.1967268
195827459506131,9.210181,0.5202246,0.62416506,0.04930985
195827467502823,9.218178,0.44743156,0.32651186,-0.5286242
195827475500323,9.226175,0.3536024,0.27236986,-0.90136456
195827483499977,9.234175,0.53929615,-0.014382362,-1.054053
195827491497593,9.242173,0.67242336,-0.16133738,-1.0846186
195827499490477,9.250165,0.536706,-0.051080227,-1.1478359
195827507515131,9.258190,0.312953,0.091976166,-0.9007826
195827515495939,9.266171,0.4521103,0.076581,-0.37006992
195827523488362,9.274163,0.75215435,-0.007408142,0.14862481
195827531467400,9.282142,0.65040207,0.16907549,0.30823112
195827539447092,9.290122,0.30583477,0.36266422,0.2825209
195827547454554,9.298130,0.34681892,0.40771294,0.45991862
195827555452285,9.306127,0.4210434,0.46026564,0.5167389
195827563540400,9.314215,0.14452267,0.64021254,0.49332044
195827571539015,9.322214,0.060990334,0.79405403,0.57480943
195827579538092,9.330213,0.21223831,0.7346959,0.5947733
195827587560938,9.338236,0.20354652,0.64352226,0.5187546
195827595540784,9.346216,-0.15797329,0.664938,0.26174375
195827603530515,9.354206,-0.43201447,0.6581135,0.18644062
195827611510823,9.362186,-0.40472364,0.50819635,0.18489468
195827619491361,9.370166,-0.29665375,0.38541937,0.1091291
195827627498284,9.378173,-0.38914156,0.479743,0.06385088
195827635496515,9.386172,-0.35238934,0.44742537,0.17153332
195827643468900,9.394144,-0.0041208267,0.31536818,0.32641435
195827651465130,9.402140,0.21556091,0.14023829,0.16225949
195827659469553,9.410145,0.1375494,0.021286964,-0.12967913
195827667492823,9.418168,0.07984638,-0.07430267,-0.16254441
195827675470823,9.426146,0.37877083,-0.22120047,0.021763355
195827683460592,9.434136,0.69027424,-0.2910819,0.4336151
195827691437207,9.442112,0.2002697,-0.20833683,0.576252
195827699416092,9.450091,-0.18372822,-0.023675442,0.42539486
195827707423784,9.458099,0.44517136,-0.65292263,-2.577094
195827715420399,9.466095,-1.0555692,-0.6777482,-1.9649613
195827723392322,9.474067,-1.6667705,-0.35192347,-0.96553576
195827731437784,9.482113,-1.3320932,0.03600979,-0.2523119
195827739451553,9.490127,-1.6345901,0.55758286,0.7266927
195827747474784,9.498150,-1.599793,0.8680968,1.3110927
195827755464553,9.506140,-1.1237354,0.8174453,1.7006168
195827763452668,9.514128,-0.41209984,0.6385975,1.6636026
195827771432015,9.522107,0.47730827,0.36908674,0.95944494
195827779411245,9.530086,1.0146484,-0.07281828,0.2313656
195827787406553,9.538082,1.8846254,-0.3600526,0.1087122
195827795404514,9.546080,3.2545853,-0.7936692,-0.7421209
195827803417207,9.554092,3.6001072,-0.23138762,-0.04863763
195827811416245,9.562091,3.7607613,0.2215643,0.21867552
195827819436745,9.570112,2.8781319,0.51886797,0.26162922
195827827439899,9.578115,2.3217525,0.8604326,0.4905475
195827835416976,9.586092,1.9611034,0.9654741,0.45028728
195827843406283,9.594081,1.6865597,0.97174263,0.4717418
195827851385630,9.602061,1.0649967,0.8948412,0.6312343
195827859365668,9.610041,0.37475395,1.1543102,0.9284656
195827867359860,9.618035,0.11609173,1.0145893,0.5543798
195827875357245,9.626032,0.25616264,0.6098242,0.22523864
195827883330899,9.634006,0.118112564,0.23570776,-0.45280167
195827891330245,9.642005,0.3131256,0.042091846,-0.9082104
195827899314322,9.649989,0.3160467,-0.19130993,-1.2736692
195827907341783,9.658017,-0.07499695,-0.49811602,-1.3733467
195827915320399,9.665995,-0.41266727,-0.64548683,-1.1670985
195827923308399,9.673983,-0.5162773,-0.758317,-0.939214
195827931286360,9.681961,-0.35227823,-0.5481615,-0.53354967
195827939265860,9.689941,-0.5194826,-0.31040192,-0.10747224
195827947273398,9.697948,-0.55078983,-0.09572935,0.12350649
195827955272014,9.705947,-0.09770393,0.097402096,0.41253656
195827963242745,9.713918,0.12258434,0.18368721,0.92544055
195827971267821,9.721943,0.14046669,0.330657,1.5185928
195827979307014,9.729982,-0.0058755875,0.482193,1.6321692
195827987320283,9.737995,-0.18324089,0.5605273,1.1835723
195827995298014,9.745973,-0.721632,0.41908026,0.84465533
195828003288629,9.753964,-1.2805448,0.3915906,0.42597538
195828011266475,9.761941,-1.6034822,0.47715473,0.47652727
195828019244591,9.769920,-1.9504175,0.57272434,0.6710433
195828027240975,9.777916,-2.3030171,0.53319216,0.5481518
195828035238590,9.785914,-2.2483559,0.43428135,0.44359916
195828043210975,9.793886,-1.8260608,0.3880601,0.4344654
195828051209052,9.801884,-1.5958204,0.26939917,0.45389813
195828059209706,9.809885,-1.6135597,0.24583006,0.08627921
195828067233167,9.817908,-1.8043633,0.42175865,-0.3128972
195828075211052,9.825886,-1.9678788,0.5615654,-0.7182183
195828083197629,9.833873,-2.4138608,0.67738056,-1.0809388
195828091174975,9.841850,-2.4237685,0.6510296,-1.3779261
195828099151552,9.849827,-1.7780504,0.6317096,-1.1691326
195828107157359,9.857832,-1.0481954,0.5000386,-0.9120168
195828115153744,9.865829,-0.33094358,0.2698431,-0.7364002
195828123126321,9.873801,-0.066664696,0.19366693,-0.6815067
195828131122744,9.881798,-0.10181713,0.24625874,-0.7748547
195828139127282,9.889802,-0.32041597,0.38416958,-0.97623086
195828147141859,9.897817,-0.03631115,0.42694902,-1.1950747
195828155119359,9.905794,0.70400524,0.514925,-1.204816
195828163112205,9.913787,1.5092764,0.6076641,-0.9914415
195828171090321,9.921765,2.508626,0.7532315,-0.38207826
195828179070128,9.929745,3.0350313,0.90931416,0.062144615
195828187054744,9.937730,2.9372396,0.9434228,0.16374683
195828195052590,9.945728,2.6145706,1.0727549,0.022657022
195828203024859,9.953700,2.511716,0.9763875,-0.063620016
195828211030859,9.961706,2.2428493,0.7386551,-0.5444556
195828219050744,9.969726,2.1436377,0.55270004,-0.8789777
195828227053320,9.977728,2.2731895,0.33584023,-0.83722293
195828235031051,9.985706,2.1457663,0.034897804,-0.76156837
195828243016705,9.993692,1.6293039,-0.2647605,-0.9054917
195828250995013,10.001670,1.0483952,-0.37462807,-0.98328364
195828258974590,10.009650,-0.035606384,-0.4470315,-1.1090186
195828266959243,10.017634,-0.81431484,-0.55951357,-1.0978404
195828274955897,10.025631,-0.6632447,-0.34375906,-0.75967973
195828282927974,10.033603,-0.57431984,-0.12909412,-0.2574808
195828290926243,10.041601,-0.8974066,0.016552448,0.10617611
195828298905936,10.049581,-0.5601549,0.024135113,-0.16639607
195828306920012,10.057595,-0.5237217,0.16099072,0.5929358
195828314898166,10.065573,-0.72129965,0.72780514,1.7969762
195828322888320,10.073563,-0.59566545,0.8709111,1.5837526
195828330871935,10.081547,-0.77921295,0.6458473,1.4207093
195828338852243,10.089527,-0.8212409,0.59993696,0.96720004
195828346847205,10.097522,-0.78434896,0.69773006,0.22655982
195828354845243,10.105520,-0.88632536,0.4411254,-0.37877932
195828362818897,10.113494,-0.6462631,0.11800432,-0.69944334
195828370817166,10.121492,-0.117284775,-3.671646E-4,-1.1843143
195828378802205,10.129477,-0.14539242,-0.100773335,-1.4601622
195828386815781,10.137491,-0.25546265,-0.24948597,-1.4102302
195828394793974,10.145469,-0.111058235,-0.2291584,-1.3287847
195828402782743,10.153458,-0.21512318,-0.28383446,-1.5275141
195828410763204,10.161438,-0.3572669,-0.26159048,-1.8142356
195828418744089,10.169419,-0.33234024,-0.24564743,-1.7179754
195828426747550,10.177423,0.083771706,-0.29439116,-1.2749097
195828434746474,10.185421,0.37386608,-0.3431039,-0.9942954
195828442752320,10.193427,0.08979988,-0.32536316,-0.8058817
195828450749166,10.201424,-0.27277327,-0.34899616,-0.73250854
195828458744897,10.209420,-0.32684803,-0.34807348,-0.3623871
195828466774858,10.217450,-0.31081057,-0.31575727,-0.31342468
195828474754666,10.225430,-0.6831126,-0.33292866,-0.48078132
195828482745935,10.233421,-0.628428,-0.28541517,-0.272027
195828490723973,10.241399,0.21653938,-0.18445873,0.25571957
195828498704089,10.249379,0.8417387,-0.11895132,0.96357274
195828506710973,10.257386,1.3071747,0.14191961,1.2471781
195828514707935,10.265383,1.7044649,0.329041,1.1904016
195828522713204,10.273388,1.7543344,0.26638317,0.8800093
195828530708781,10.281384,1.2571373,0.35878134,0.22039595
195828538710550,10.289386,0.36796665,0.5147586,-0.27278468
195828546743781,10.297419,-0.42045927,0.4202876,-0.48971617
195828554739012,10.305414,-0.7432966,0.26541996,-0.44457453
195828562725935,10.313401,-0.75488806,0.123687744,-0.4021526
195828570706627,10.321382,-0.3390584,-0.10858488,-0.32627195
195828578687050,10.329362,0.18677998,-0.42090988,-0.5438328
195828586689396,10.337364,0.4826975,-0.7318487,-0.8089287
195828594687011,10.345362,0.3607931,-0.8397269,-0.9860074
195828602699204,10.353374,-0.022119522,-0.82290554,-1.1449394
195828610720165,10.361395,-0.25549555,-0.7358446,-0.94962466
195828618736857,10.369412,-0.26134014,-0.7687216,-0.3587618
195828626753973,10.377429,-0.21247864,-0.65516186,0.27756828
195828634734627,10.385410,-0.09408283,-0.30006218,0.9411582
195828642727780,10.393403,-0.15884066,-0.018630028,1.2751925
195828650708127,10.401383,-0.18007326,0.18318367,1.2796032
195828658689973,10.409365,-0.058249474,0.45293903,1.2747129
195828666695857,10.417371,-0.22439098,0.744514,1.2566581
195828674701203,10.425376,-0.24250746,1.2045083,1.4560103
195828682716896,10.433392,0.036128998,1.4844084,1.7533891
195828690715203,10.441390,0.56858444,1.6486521,2.1176326
195828698736857,10.449412,0.8883648,1.9004045,1.8482912
195828706768703,10.457444,1.3856754,1.95755,1.1048198
195828714747088,10.465422,2.0063066,1.6728134,0.5448834
195828722735088,10.473410,2.7231512,1.165432,-0.20459118
195828730713280,10.481388,3.0734177,0.80574894,-1.1728814
195828738692049,10.489367,2.8090954,0.34056234,-2.1691134
195828746676357,10.497351,2.5962973,-0.35643673,-2.9653597
195828754673703,10.505349,2.3594904,-0.9743376,-3.757927
195828762683780,10.513359,1.9026451,-1.3654046,-4.181405
195828770681857,10.521357,1.6569586,-1.6647799,-4.1118383
195828778703472,10.529378,1.7480516,-2.0061655,-3.4905417
195828786716895,10.537392,1.2857895,-2.1721008,-2.7751994
195828794696780,10.545372,0.43999577,-1.8996768,-1.9958324
195828802688164,10.553363,-0.24832344,-1.553308,-1.1228077
195828810666318,10.561341,-0.8188329,-1.2274876,0.034238815
195828818646741,10.569322,-1.26795,-0.87961483,1.190188
195828826642395,10.577317,-1.4303403,-0.4956689,2.0695071
195828834641818,10.585317,-1.1908698,-0.11433315,2.9120915
195828842615780,10.593291,-0.6523018,0.041524887,3.4326954
195828850615664,10.601291,-0.24233723,0.102357864,3.3312755
195828858643703,10.609319,-0.49490166,0.12694502,2.7144365
195828866658741,10.617334,-0.98756886,0.12774754,1.8359935
195828874638626,10.625314,-1.1396713,0.04164076,1.2947049
195828882627780,10.633303,-1.2388978,-0.08537245,0.98670125
195828890608279,10.641283,-1.4167447,-0.10764885,0.6779868
195828898588587,10.649264,-1.7259889,-0.17827368,0.5480549
195828906596203,10.657271,-1.6960611,-0.22846317,0.4406625
195828914595356,10.665270,-1.4330206,-0.24986124,0.35489473
195828922568933,10.673244,-1.3514223,-0.2347455,0.2884748
195828930571972,10.681247,-1.314043,-0.16267776,0.05200258
195828938577202,10.689252,-0.9240842,-0.2528987,-0.028223366
195828946605356,10.697280,-0.37858486,-0.35833263,0.025556266
195828954584395,10.705259,-0.041989326,-0.34541702,-0.013689995
195828962575510,10.713250,0.15255165,-0.40031004,-0.018515408
195828970553856,10.721229,0.57168293,-0.52387094,0.16994181
195828978534164,10.729209,0.9208536,-0.7278991,0.114218116
195828986532471,10.737207,0.73899364,-0.79600525,-0.27161938
195828994530164,10.745205,0.4175768,-0.6223159,-0.68376106
195829002504548,10.753180,0.43432426,-0.5072837,-0.82936853
195829010503933,10.761179,0.81198406,-0.5459037,-0.69993466
195829018507164,10.769182,1.0128164,-0.36831808,-0.5096416
195829026531433,10.777206,1.0653276,-0.11694813,-0.3514154
195829034511894,10.785187,1.2105265,0.059363365,-0.10057968
195829042501087,10.793176,1.6042013,0.20118713,0.13173568
195829050481933,10.801157,1.3565731,0.39829302,0.03570026
195829058461663,10.809137,0.9286547,0.67024136,-0.251262
195829066469087,10.817144,0.56402016,0.8602085,-0.4281758
195829074467202,10.825142,0.40053177,0.94002724,-0.4348517
195829082439971,10.833115,0.14787197,1.0710125,-0.42739266
195829090436894,10.841112,-0.14286995,1.1608281,-0.37288457
195829098438586,10.849114,-0.18918037,1.276546,-0.1227023
195829106452702,10.857128,0.07936764,1.3412795,0.17177337
195829114432202,10.865107,0.2773819,1.4246192,0.30909756
195829122420471,10.873095,0.17261696,1.4524803,0.22547922
195829130397894,10.881073,0.11733341,1.4268742,0.06774706
195829138376355,10.889051,0.6432915,1.3393288,0.092811465
195829146383548,10.897059,1.3201799,1.070816,0.21144986
195829154378971,10.905054,2.2418776,0.80582047,-0.11152351
195829162351240,10.913026,3.0774517,0.36415243,-0.3788702
195829170348317,10.921023,3.3560553,-0.1282177,-0.8433768
195829178358855,10.929034,3.2836552,-0.57141924,-1.2808601
195829186361663,10.937037,2.9183102,-0.8782983,-1.7488327
195829194339432,10.945014,2.4572487,-1.1105986,-1.7589631
195829202326317,10.953001,2.1839104,-1.3375275,-1.6834507
195829210304240,10.960979,1.7063475,-1.4598849,-1.6993585
195829218282971,10.968958,0.91364765,-1.4017975,-1.7288163
195829226268240,10.976943,0.27180195,-1.1781559,-1.4398429
195829234264317,10.984939,0.019054413,-1.033299,-0.82392967
195829242236509,10.992911,-0.14805984,-0.9468136,0.01950568
195829250233701,11.000909,-0.58239794,-0.7637,0.55322623
195829258254547,11.008930,-0.97997236,-0.65623236,0.83622384
195829266267317,11.016942,-1.1138749,-0.5590849,1.0744364
195829274247586,11.024923,-0.94803,-0.54457617,1.2355852
195829282239009,11.032914,-0.8198137,-0.46472216,1.1922269
195829290218316,11.040893,-0.902761,-0.4437709,1.0569589
195829298196624,11.048872,-0.9237776,-0.4963398,0.94484794
195829306201393,11.056876,-0.7201457,-0.47867966,0.7455312
195829314199970,11.064875,-0.7102485,-0.5402441,0.57984114
195829322193355,11.072868,-0.90027,-0.57261515,0.255239
195829330191585,11.080867,-0.9888644,-0.5631957,-0.0710721
195829338179624,11.088855,-1.1447887,-0.5916815,-0.05358708
195829346212470,11.096887,-1.3712921,-0.5166888,0.020479977
195829354189778,11.104865,-1.408237,-0.29616165,0.14016703
195829362177508,11.112852,-1.2162018,-0.1890955,0.49999166
195829370157085,11.120832,-1.1187553,-0.13021374,0.7778514
195829378137393,11.128812,-1.0647335,-0.049033165,0.7832391
195829386146393,11.136821,-1.0446491,-0.034052372,0.6958018
195829394144316,11.144819,-1.2072563,-0.19259167,0.45111915
195829402148701,11.152824,-1.1985521,-0.41646147,0.2902996
195829410147278,11.160822,-1.0771437,-0.62737894,0.31629187
195829418139931,11.168815,-0.9573207,-0.7880187,0.3596667
195829426162931,11.176838,-0.65467167,-0.83384705,0.31136826
195829434141662,11.184817,-0.35885715,-0.7904377,0.21334888
195829442132970,11.192808,0.04604721,-0.7741966,0.17871495
195829450112124,11.200787,0.47409058,-0.60112476,0.393019
195829458090931,11.208766,0.73935413,-0.45919275,0.74693763
195829466096585,11.216772,0.8278341,-0.38485765,0.94692034
195829474093546,11.224769,0.6273279,-0.25171757,1.0074117
195829482105431,11.232780,0.29396725,-0.13714457,0.94148743
195829490103162,11.240778,0.21454239,-0.080255985,0.94191635
195829498111393,11.248786,0.32861233,-0.025215149,0.97407204
195829506139893,11.256815,0.45390415,0.031033516,0.84819555
195829514119008,11.264794,0.5000601,0.16419888,0.6954271
195829522106854,11.272782,0.49977875,0.25804186,0.6838441
195829530085546,11.280761,0.46327686,0.36433887,0.72597945
195829538066008,11.288741,0.34954166,0.48837614,0.64081746
195829546072392,11.296747,0.2126522,0.54550934,0.7282758
195829554069854,11.304745,0.32486725,0.6541681,0.7825079
195829562087738,11.312763,0.74867725,0.7196808,0.73334014
195829570085854,11.320761,1.5000029,0.8165159,0.77857506
195829578094200,11.328769,2.452074,0.7173166,0.7838075
195829586096585,11.336772,2.9892588,0.60099983,0.57403785
195829594074161,11.344749,3.676426,0.3298235,0.10262969
195829602065315,11.352740,4.150444,-0.071383,-0.42486426
195829610042700,11.360718,4.161089,-0.41263628,-0.9136221
195829618021623,11.368697,4.0856285,-0.76441956,-1.3628563
195829626005238,11.376680,3.4839973,-0.98660946,-1.7072967
195829634001546,11.384677,2.5326805,-1.0992398,-1.8650968
195829642010123,11.392685,1.6789627,-1.0661926,-1.8024657
195829650006777,11.400682,0.43311787,-0.844347,-1.6962903
195829658029161,11.408704,-0.8703308,-0.6312232,-1.6467979
195829666032892,11.416708,-1.5858297,-0.6079216,-1.4027015
195829674009584,11.424685,-1.8016677,-0.5612445,-1.259415
195829681998315,11.432673,-1.6677012,-0.6508312,-1.0727473
195829689977123,11.440652,-1.2645626,-0.75105,-0.75161755
195829697957584,11.448633,-0.8742833,-0.8485584,-0.22543481
195829705952815,11.456628,-0.561203,-0.8158283,0.21952245
195829713950661,11.464626,-0.55383205,-0.6812229,0.6059247
195829721923430,11.472598,-1.0327058,-0.51159096,0.80989337
195829729921046,11.480596,-1.4407086,-0.32726622,0.8278314
195829737900238,11.488575,-1.5828404,-0.09731722,0.94675636
195829745916930,11.496592,-1.2886915,0.07145119,1.2662277
195829753895853,11.504571,-0.92208815,0.14046049,1.4769388
195829761887507,11.512562,-0.57088184,0.22851181,1.3444004
195829769865853,11.520541,-0.53326845,0.031932354,1.1238263
195829777844738,11.528520,-0.5484123,-0.31493902,0.73145866
195829785876007,11.536551,-0.49191236,-0.5459018,0.39022768
195829793874238,11.544549,-0.54529095,-0.6377435,-0.042793453
195829801846968,11.552522,-0.4500785,-0.70290995,-0.49269658
195829809850584,11.560526,-0.37209368,-0.7530117,-0.71409523
195829817837161,11.568512,-0.038546562,-0.7568302,-0.52555144
195829825864699,11.576540,0.3228655,-0.6112056,-0.23680651
195829833844122,11.584519,0.67640305,-0.49458694,-0.08227295
195829841833122,11.592508,1.0678272,-0.5384097,0.053305745
195829849812622,11.600488,1.3992682,-0.62576246,-0.028853059
195829857791814,11.608467,1.441577,-0.67147875,-0.35489702
195829865798007,11.616473,1.3636007,-0.6170111,-0.76539135
195829873796507,11.624471,1.3069153,-0.5622778,-0.7912297
195829881771506,11.632446,1.3404942,-0.35860634,-0.33193117
195829889770083,11.640445,1.4561043,-0.11439562,0.4410423
195829897762929,11.648438,1.2588806,0.2613759,1.089257
195829905788353,11.656463,1.1482849,0.7058716,1.7829492
195829913768583,11.664444,1.114089,1.1249247,2.3650775
195829921770699,11.672446,1.2320709,1.4056735,2.8281226
195829929748545,11.680424,1.3800478,1.5912046,2.946061
195829937728314,11.688403,1.670579,1.6407194,2.6800199
195829945713275,11.696388,1.8067732,1.3533792,1.9042573
195829953711199,11.704386,1.5793152,0.9920039,0.7651755
195829961684891,11.712360,0.8504658,0.60210466,-0.6348499
195829969683122,11.720358,0.12939072,0.24880838,-1.6972563
195829977686583,11.728362,0.08472538,-0.017185211,-2.4966047
195829985698929,11.736374,0.471035,-0.33548832,-2.8961658
195829993677891,11.744353,1.3422222,-0.6790786,-3.1452448
195830001666814,11.752342,1.8809776,-0.8064275,-3.2875154
195830009645198,11.760320,1.963131,-0.89310217,-3.3232374
195830017624006,11.768299,1.6939583,-0.8979111,-3.2004228
195830025619121,11.776294,1.3773832,-0.9138403,-2.8423545
195830033617737,11.784293,0.92030144,-0.89091015,-2.498354
195830041590275,11.792265,0.3816042,-0.7284241,-2.185977
195830049587737,11.800263,-0.16557026,-0.440763,-1.5004797
195830057600006,11.808275,-0.06221962,-0.13224459,-0.45630455
195830065619160,11.816294,0.49706173,0.02598381,0.8447795
195830073598621,11.824274,0.83062077,0.19319677,1.654031
195830081590467,11.832265,0.8037596,0.32586384,2.267532
195830089568275,11.840243,0.71597004,0.28242588,2.3370814
195830097546313,11.848221,0.3619604,-0.04091978,2.0880132
195830105539583,11.856215,-0.5389843,-0.3586135,1.30214
195830113536506,11.864211,-1.6020885,-0.6983862,0.37109593
195830121509390,11.872184,-2.1323824,-0.89934874,-0.3613394
195830129506775,11.880182,-2.0236855,-0.93040895,-0.48415524
195830137522390,11.888197,-1.3653994,-0.8407459,-0.0710628
195830145533582,11.896209,-0.55369806,-0.56391144,0.5842051
195830153513159,11.904188,0.34631824,-0.2801118,1.1433617
195830161501813,11.912177,1.0641136,-0.06345749,1.5656245
195830169482775,11.920158,1.570344,0.04712391,1.7357328
195830177462390,11.928137,1.823081,0.083367825,1.4874716
195830185458582,11.936134,1.7472925,-0.02422285,0.9107206
195830193456736,11.944132,1.4652691,-0.28349972,0.06405732
195830201466505,11.952141,1.2065439,-0.69666386,-0.73357475
195830209462890,11.960138,0.8211298,-1.1051736,-1.4961934
195830217563890,11.968239,0.18168736,-1.4029009,-2.0936618
195830225474159,11.976149,-0.5751405,-1.5830166,-2.7294083
195830233454890,11.984130,-0.99146986,-1.8000708,-2.9992073
195830241446505,11.992121,-1.0575066,-1.846209,-2.882664
195830249426620,12.000102,-1.1189189,-1.7246442,-2.558158
195830257407505,12.008082,-1.1250596,-1.4547594,-1.952938
195830265402505,12.016077,-1.1410022,-1.0188661,-1.0837787
195830273405967,12.024081,-0.8667941,-0.5409479,-0.09510434
195830281389851,12.032065,-0.33168125,-0.029856682,1.1948464
195830289387736,12.040063,0.014238358,0.4328246,2.3010411
195830297381274,12.048056,0.3454237,0.90005064,3.0043268
195830305386197,12.056061,0.7940912,1.0739336,3.1737733
195830313366313,12.064041,1.4897051,0.94932175,2.8927095
195830321355659,12.072031,2.1774454,0.6843891,2.3533645
195830329335197,12.080010,2.0243177,0.32061195,1.4519744
195830337314889,12.087990,1.6838503,-0.124081135,0.19000643
195830345309889,12.095985,1.0616245,-0.5904908,-0.91905034
195830353309120,12.103984,0.46358776,-0.93892336,-1.8415077
195830361298851,12.111974,-0.08863735,-1.1838155,-2.3480558
195830369296966,12.119972,-0.7480459,-1.3169417,-2.6762803
195830377293812,12.127969,-1.2729158,-1.3022013,-2.6610627
195830385309543,12.135985,-1.5110812,-1.1761107,-2.1670914
195830393289620,12.143965,-1.2341261,-0.86702967,-1.6387825
195830401282620,12.151958,-0.5751972,-0.6840415,-0.90093327
195830409262581,12.159938,0.17206001,-0.5220547,-0.33698153
195830417242351,12.167917,0.69353104,-0.50862026,0.0071716458
195830425230004,12.175905,1.1243849,-0.49702072,0.20536445
195830433230120,12.183905,1.0686674,-0.47034502,0.21940863
195830441236158,12.191911,1.1016836,-0.4414854,0.26259807
195830449237158,12.199912,1.4199371,-0.58543205,0.4815281
195830457245812,12.207921,1.676754,-0.72097397,0.818143
195830465262620,12.215938,1.9711714,-0.83997965,1.1538146
195830473243043,12.223918,1.6799936,-0.9595418,1.1970611
195830481232812,12.231908,0.86002827,-1.0044351,0.83343387
195830489213658,12.239889,0.21095753,-1.0340729,0.4499084
195830497195581,12.247871,-0.048007965,-1.1171021,0.2507789
195830505181081,12.255856,-0.1473856,-1.022582,0.14525734
195830513181119,12.263856,-0.11237049,-0.80254364,0.032897055
195830521198235,12.271873,0.28999996,-0.6543169,0.27292058
195830529202889,12.279878,1.0424995,-0.54981613,0.5044006
195830537219081,12.287894,1.4235172,-0.651875,0.49075013
195830545246158,12.295921,1.4750061,-0.74247074,0.07100494
195830553226812,12.303902,1.058094,-0.76420593,-0.5325864
195830561220196,12.311895,0.4576521,-0.72183895,-0.9352917
195830569199850,12.319875,-0.034186363,-0.6904197,-0.9345039
195830577179850,12.327855,-0.6115098,-0.58106995,-0.8542354
195830585188388,12.335863,-1.1796203,-0.3749094,-0.8796787
195830593187119,12.343862,-1.5979114,-0.14910555,-0.8648689
195830601202773,12.351878,-1.8729768,0.2166791,-0.54969525
195830609201350,12.359876,-1.8244867,0.5861559,0.18351969
195830617223888,12.367899,-1.2141385,1.0830917,1.1265706
195830625239081,12.375914,-0.5231261,1.3658414,2.085708
195830633218927,12.383894,0.66931915,1.5175486,2.6586356
195830641207965,12.391883,1.4545536,1.1410618,2.1655169
195830649188427,12.399863,1.3042583,0.6788602,1.1114506
195830657169080,12.407844,0.88093853,0.14326143,-0.56163716
195830665165427,12.415840,0.761487,-0.4197588,-2.1783204
195830673165811,12.423841,0.68133736,-0.9541888,-3.1792526
195830681140657,12.431816,0.46263695,-1.245887,-3.6099389
195830689139311,12.439814,0.066880226,-1.3519614,-3.4731562
195830697167619,12.447843,-0.09234619,-1.2426105,-2.6986868
195830705183080,12.455858,0.2411356,-0.8161373,-1.2966702
195830713164773,12.463840,0.35297108,-0.35162735,-0.11294533
195830721158080,12.471833,0.2726736,0.1685791,0.8208704
195830729138311,12.479813,0.3851776,0.32635736,1.6263784
195830737120926,12.487796,0.42476273,0.32509136,1.8587203
195830745116734,12.495792,0.26846027,0.15305185,1.7115166
195830753115695,12.503791,-0.03311634,-0.09435463,1.0575867
195830761090003,12.511765,-0.26519203,-0.5212836,0.48319095
195830769089042,12.519764,-0.13469791,-0.764122,0.036850363
195830777075849,12.527751,-0.19921398,-1.0389109,-0.13850509
195830785103426,12.535778,-0.54441404,-1.2148786,-0.35799834
195830793086618,12.543762,-0.79894495,-1.2013502,-0.38365644
195830801078695,12.551754,-0.9446058,-1.1404328,-0.17216076
195830809061118,12.559736,-1.0582204,-0.9670601,0.0791699
195830817045464,12.567720,-0.9941201,-0.7597141,0.40063915
195830825055811,12.575731,-0.75202656,-0.44563103,0.6011288
195830833055464,12.583730,-0.17073154,-0.08349228,1.0069668
195830841030541,12.591706,0.56090164,0.14685392,1.3714628
195830849030080,12.599705,1.2791414,0.2433033,1.638668
195830857028310,12.607703,1.4140015,0.19763231,1.5326515
195830865032080,12.615707,0.99862957,0.011209965,0.78133047
195830873011580,12.623687,0.4458046,-0.30096245,-0.16565993
195830881004849,12.631680,-0.12390709,-0.50658894,-0.8313817
195830888985503,12.639660,-0.68166876,-0.6609497,-1.2190341
195830896964733,12.647640,-1.1613331,-0.58068085,-1.3817365
195830904960887,12.655636,-1.4152122,-0.381855,-1.172523
195830912960118,12.663635,-1.4732833,-0.10308313,-0.70739365
195830920935233,12.671610,-1.3598828,0.16050196,-0.006148588
195830928936195,12.679611,-1.5225935,0.58583164,0.7658726
195830936943541,12.687619,-1.7540183,0.9110584,1.2462815
195830944966502,12.695641,-1.846674,1.1949615,1.4073278
195830952947349,12.703622,-1.1723232,1.2604346,1.4298931
195830960936964,12.711612,-0.2617998,1.0985842,1.2829221
195830968917656,12.719593,0.3089924,0.84504175,0.75178194
195830976898772,12.727574,1.2633514,0.30334234,0.02286606
195830984894810,12.735570,1.8805294,-0.16403008,-0.5737343
195830992899348,12.743574,1.7574682,-0.64133644,-1.1099105
195831000873118,12.751548,1.3633881,-0.8338618,-1.5764523
195831008870925,12.759546,1.0729933,-1.0727012,-1.7317435
195831016886848,12.767562,0.968215,-1.304214,-1.7217597
195831024902656,12.775578,0.85779667,-1.4259756,-1.6597898
195831032882925,12.783558,0.35581684,-1.4274681,-1.6840227
195831040874656,12.791550,0.0460968,-1.2481966,-1.3587874
195831048853425,12.799528,0.17152023,-1.0392425,-0.5397256
195831056834271,12.807509,0.5713339,-0.8886545,0.3150396
195831064841502,12.815516,0.8583679,-0.6348896,1.2323862
195831072840233,12.823515,0.4980116,-0.12533379,1.6996851
195831080813425,12.831488,0.16271496,0.17387438,2.114213
195831088808502,12.839483,0.12679672,0.36064196,2.407476
195831096827502,12.847502,0.15991497,0.31138372,2.4664536
195831104838809,12.855514,-0.14425564,0.23795557,1.9707909
195831112817117,12.863492,-0.6208744,0.082995415,1.3212706
195831120803771,12.871479,-1.1944575,-0.12167311,0.61165524
195831128781886,12.879457,-1.461843,-0.31136847,0.113200724
195831136760694,12.887436,-1.462955,-0.25547647,-0.21874094
195831144769271,12.895444,-1.2957182,-0.059575558,-0.32495293
195831152766232,12.903441,-0.58483505,0.13405609,-0.1705496
195831160739194,12.911414,0.57603264,0.415123,0.20268735
195831168737848,12.919413,1.5308065,0.50341463,0.31533512
195831176721963,12.927397,2.0998316,0.458889,0.11283335
195831184725578,12.935401,2.3896341,0.26628494,-0.23902625
195831192703001,12.943378,1.6804771,0.061810017,-0.9720035
195831200692694,12.951368,0.6496525,-0.030365944,-1.542788
195831208682924,12.959358,-0.5458536,0.06665039,-1.7619227
195831216741578,12.967417,-0.8640189,0.21579218,-1.3698683
195831224754386,12.975429,-0.31907177,0.5772338,-0.5505088
195831232785886,12.983461,0.339509,0.8210659,0.5305861
195831240808001,12.991483,0.459157,1.2493992,1.3878331
195831248806847,12.999482,0.25627804,1.5450625,1.8276348
195831256795809,13.007471,0.009937286,1.5619755,1.8888855
195831264807847,13.015483,-0.1832056,1.6201138,1.5862721
195831272808347,13.023483,0.183568,1.5918722,1.459405
195831280795501,13.031470,1.2361431,1.6563306,1.7033199
195831288785809,13.039461,2.559988,1.4792991,2.1339722
195831296764463,13.047439,4.261489,1.3529344,1.7726852
195831304749116,13.055424,5.170273,0.89317703,1.3362207
195831312745001,13.063420,4.634405,0.4010682,0.45416394
195831320732616,13.071408,3.6799889,-0.15567684,-0.7011351
195831328730001,13.079405,2.1167297,-0.70081735,-2.0341756
195831336726116,13.087401,0.78230953,-1.1432948,-3.0065355
195831344754193,13.095429,0.13561058,-1.1863608,-3.352953
195831352730655,13.103406,-0.132308,-1.3340766,-2.8206072
195831360740655,13.111416,0.2515154,-1.2926838,-2.1666143
195831368798116,13.119473,0.97363853,-1.1428857,-1.5811789
195831376856693,13.127532,1.0830622,-0.8571999,-1.1157808
195831384881347,13.135556,0.5212393,-0.46167517,-1.0444428
195831392877424,13.143552,-0.1425991,-0.25123024,-0.8460547
195831400873078,13.151548,-0.17948723,0.08113766,-0.3511358
195831408875616,13.159551,-0.04519844,0.17267561,0.40028554
195831416904693,13.167580,0.022222519,0.30527878,1.2969422
195831424998231,13.175673,-0.10828781,0.4056015,1.8415548
195831432987577,13.183663,-0.6322732,0.43887234,1.8274418
195831440973654,13.191649,-0.9337239,0.40884733,1.5061975
195831448950924,13.199626,-1.5958672,0.11432409,1.2548399
195831456929231,13.207604,-2.1371632,-0.057446957,1.0046945
195831464913885,13.215589,-2.5552692,-0.20497942,0.97127444
195831472911270,13.223586,-2.6017423,-0.15234613,0.81006056
195831480907539,13.231583,-2.4211264,-0.11354542,0.8913307
195831488906116,13.239581,-1.9999695,0.0398283,1.1780082
195831496920808,13.247596,-1.7338009,0.024068356,1.2532009
195831504959154,13.255634,-1.4709024,0.057899475,1.025351
195831512937346,13.263612,-1.6314025,0.03366375,0.5341934
195831520928577,13.271604,-1.8035073,0.14761925,0.42463762
195831528905577,13.279581,-1.7730322,0.25342178,0.6330086
195831536896116,13.287571,-1.6124191,0.38104677,0.8492582
195831544903231,13.295578,-1.0562396,0.77065945,1.2179172
195831552899539,13.303575,-0.60274124,1.2072716,1.6366003
195831560871192,13.311546,-0.33166122,1.4412217,2.2160907
195831568867192,13.319542,0.314929,1.5824819,2.8170335
195831576888308,13.327563,0.4818554,1.471673,2.825496
195831584946308,13.335621,0.5079174,1.1094327,2.1921077
195831592933961,13.343609,0.5878763,0.62340975,1.3139226
195831600921846,13.351597,0.49475193,-0.1311965,0.01694113
195831608900231,13.359575,0.38236713,-0.69133854,-1.2419858
195831616880000,13.367555,0.21452141,-1.0043864,-1.993562
195831624873500,13.375548,0.5266895,-1.0739946,-2.2585454
195831632870731,13.383546,1.0501738,-1.038055,-1.8826599
195831640891038,13.391566,1.0581417,-0.71151114,-1.4229466
195831648886769,13.399562,1.3058147,-0.3441682,-0.68459576
195831656878538,13.407554,1.5987158,0.050599575,0.04259187
195831664976807,13.415652,1.8086281,0.09298611,0.33931255
195831672957384,13.423632,2.0103807,0.121481895,0.35555255
195831680948346,13.431623,1.8344631,0.09892368,0.25134408
195831688943923,13.439619,1.4337826,0.2192316,-0.043233395
195831696923000,13.447598,1.202507,0.32332325,0.23723549
195831704926000,13.455601,0.91977215,0.485878,0.6706484
195831712923192,13.463598,0.57761097,0.5104408,1.0612384
195831720895538,13.471571,0.104047775,0.35970402,1.0110962
195831728891769,13.479567,-0.19744873,0.10740948,0.71675843
195831736879576,13.487555,-0.2508459,-0.17854118,0.47645313
195831744904269,13.495579,-0.34078693,-0.22595692,0.034677863
195831752881576,13.503557,-0.33298397,-0.28714514,-0.13998228
195831760868499,13.511543,-0.6603861,-0.16688776,0.015019119
195831768847038,13.519522,-0.7507391,0.24761057,0.20470673
195831776826038,13.527501,-0.4749565,0.7180147,0.6355704
195831784831845,13.535507,0.36262703,1.0197706,1.3026547
195831792828576,13.543504,1.2866764,1.2613926,1.7128849
195831800800268,13.551475,2.37296,1.2352424,1.675328
195831808796999,13.559472,2.714429,0.8931327,1.2077334
195831816796691,13.567472,1.6235199,0.39700794,0.41307008
195831824810614,13.575486,0.22408295,0.26335382,-0.27001524
195831832787999,13.583463,-1.0741673,0.2350545,-0.5205219
195831840779422,13.591454,-1.615211,0.45571518,-0.42249167
195831848756114,13.599431,-1.7436752,0.7246423,-0.10098624
195831856733960,13.607409,-1.614171,1.1216869,0.49458003
195831864727307,13.615402,-0.9562354,1.4680104,1.2175137
195831872729999,13.623405,0.09522724,1.5046349,1.8513782
195831880702845,13.631378,1.2306862,1.2147202,1.8567939
195831888700922,13.639376,1.9458046,0.70386696,1.1099206
195831896709960,13.647385,2.041442,0.21935034,0.0010843873
195831904723268,13.655398,1.8742466,-0.17678452,-0.9269001
195831912703153,13.663378,1.5011616,-0.5394311,-1.5336751
195831920691883,13.671367,0.9508848,-0.7685342,-1.977123
195831928671691,13.679347,0.75213623,-0.7326827,-2.2062955
195831936651845,13.687327,0.7073765,-0.6593976,-1.9780556
195831944647729,13.695323,0.5552521,-0.55306053,-1.5186943
195831952646729,13.703322,0.3654585,-0.20321608,-1.0669813
195831960620614,13.711296,0.28866863,0.14785528,-0.48612607
195831968619652,13.719295,0.22335911,0.42847204,-0.17155981
195831976628152,13.727303,0.5097456,0.6243801,0.12855935
195831984656229,13.735331,0.7004156,0.64933157,0.2636186
195831992634537,13.743310,0.9429722,0.727695,-0.024954498
195832000628345,13.751303,0.77358246,0.44515562,-0.072126865
195832008607460,13.759282,0.2519226,0.22956228,-0.17337209
195832016587575,13.767263,-0.55151653,0.24157715,-0.38461924
195832024597537,13.775273,-1.2169113,0.3076973,-0.5573629
195832032595883,13.783271,-1.6018376,0.39682817,-0.45068496
195832040569421,13.791244,-1.5936513,0.45307732,-0.01042074
195832048567037,13.799242,-1.312685,0.50722885,0.43787017
195832056581690,13.807257,-0.9170203,0.45484352,0.68808
195832064596383,13.815271,-0.7743292,0.38236094,0.54664004
195832072576152,13.823251,-0.52035284,0.10974741,0.16819853
195832080565767,13.831241,0.13189793,0.058762074,0.03393334
195832088544037,13.839219,0.7211046,0.11932945,0.21447134
195832096522613,13.847198,0.57686806,0.48377562,0.21393764
195832104530883,13.855206,0.30123043,0.82940054,0.5022061
195832112526113,13.863201,0.39812088,1.1391797,0.92020595
195832120513113,13.871188,0.57702637,1.3159747,1.4444878
195832128512690,13.879188,0.29473877,1.4521852,1.4477634
195832136490113,13.887165,-0.12995195,1.4182944,1.1853393
195832144510344,13.895185,-0.49215364,1.0867839,1.1540167
195832152489229,13.903164,-0.84560585,0.8835225,1.1613731
195832160481498,13.911156,-1.3609285,0.69014215,0.7877506
195832168460844,13.919136,-1.4232368,0.45163107,0.33634305
195832176441036,13.927116,-1.0503073,-0.09170103,-0.15920126
195832184448921,13.935124,-0.71856403,-0.51840544,-1.1564467
195832192447228,13.943122,-0.24758339,-0.57836294,-2.1939564
195832200436421,13.951111,0.531847,-0.6580982,-2.462664
195832208433190,13.959108,1.5413084,-0.84064054,-1.912835
195832216424613,13.967100,2.26361,-0.7709718,-1.4151447
195832224428228,13.975103,2.56738,-0.69878817,-1.1093942
195832232407536,13.983083,2.106781,-0.5837889,-1.1052253
195832240395921,13.991071,1.4777241,-0.5657153,-1.2874758
195832248374459,13.999049,1.2775984,-0.7530656,-1.2311592
195832256353997,14.007029,1.0230703,-1.053093,-1.020597
195832264386344,14.015061,0.54355335,-1.2658849,-1.1371516
195832272383574,14.023059,0.38740253,-1.3075824,-1.1991997
195832280378882,14.031054,-0.10793257,-1.265387,-1.085129
195832288377536,14.039053,-1.0994573,-1.1274242,-0.6804689
195832296377843,14.047053,-1.7789273,-0.8191724,0.23987383
195832304382882,14.055058,-2.2850533,-0.33223248,1.257599
195832312362190,14.063037,-2.629118,0.11834812,1.9736955
195832320352651,14.071028,-2.9420733,0.57423544,2.585203
195832328329805,14.079005,-2.8560953,0.90223265,2.6955826
195832336307805,14.086983,-2.1443105,1.162672,2.6900613
195832344301459,14.094976,-1.296042,0.95197916,2.814207
195832352299343,14.102974,-0.3735547,0.69194937,2.4590633
195832360350266,14.111025,-0.063853264,0.35271645,1.5854927
195832368364766,14.119040,-0.22566795,-0.0092225075,0.7303936
195832376372420,14.127047,-0.23308897,-0.3871932,0.18631972
195832384384612,14.135060,-0.15877771,-0.7465019,-0.35209656
195832392363997,14.143039,-0.1173954,-0.9055319,-0.9586453
195832400352074,14.151027,-0.30728626,-0.9437814,-1.3089968
195832408329958,14.159005,-0.582016,-0.83069897,-1.4074638
195832416308304,14.166983,-0.91835403,-0.6706681,-1.2265763
195832424303112,14.174978,-1.1492105,-0.35763025,-0.8880664
195832432301958,14.182977,-1.3262014,0.08632803,-0.41749927
195832440319227,14.190994,-1.1174808,0.5548115,0.45083576
195832448317227,14.198992,-0.44783974,0.9300475,1.3810372
195832456333689,14.207009,0.15214634,1.0441203,1.7565206
195832464337458,14.215012,0.8332262,1.142931,1.4624538
195832472315997,14.222991,1.7893052,1.0039358,1.161901
195832480305881,14.230981,2.627462,0.44571447,0.83588415
195832488284420,14.238959,2.7845788,0.036869526,0.23295842
195832496262150,14.246937,2.3730202,-0.47721004,-0.6643983
195832504254227,14.254929,1.4048805,-0.966342,-1.7554703
195832512250727,14.262926,0.6315975,-1.2903371,-2.5541964
195832520256612,14.270932,0.47062206,-1.4209538,-2.6434464
195832528255150,14.278930,0.22820473,-1.3914342,-2.321734
195832536281535,14.286957,0.20839882,-0.85926294,-1.430322
195832544294612,14.294970,0.6658802,-0.4733963,-0.29649097
195832552272919,14.302948,1.1823502,0.03827572,0.77688456
195832560260496,14.310935,1.3496904,0.30049324,1.2217112
195832568237458,14.318912,1.1026077,0.28688526,0.9125224
195832576217381,14.326892,0.74531746,0.028173923,0.31358695
195832584213188,14.334888,0.09581947,-0.2769904,-0.4899655
195832592216650,14.342892,-0.6132374,-0.5120554,-0.99134976
195832600189111,14.350864,-1.0266566,-0.5454283,-1.0594364
195832608211073,14.358886,-1.363369,-0.43782902,-0.8847568
195832616198342,14.366873,-1.5472493,-0.24102116,-0.43156698
195832624212381,14.374887,-1.222743,0.101854324,0.22153175
195832632190381,14.382865,-0.72179604,0.30807447,1.0150192
195832640181996,14.390857,-0.33532524,0.5051751,1.7528464
195832648160188,14.398835,-0.14624834,0.28729105,1.5142902
195832656140573,14.406816,-0.25004673,-0.07780361,0.3621968
195832664146804,14.414822,-0.4759183,-0.32073927,-0.6898799
195832672143265,14.422818,-0.6367707,-0.2816124,-1.4900392
195832680128573,14.430804,-0.55368567,-0.15117502,-1.2520148
195832688124380,14.438799,-0.14551067,0.21451712,-0.41085005
195832696142765,14.446818,0.41296244,0.8369999,0.90541416
195832704166457,14.454841,0.828681,1.6090045,2.020831
195832712187265,14.462862,1.249495,1.8825841,2.9119208
195832720174265,14.470849,1.378622,1.7773843,3.2017272
195832728151765,14.478827,1.0728459,1.254489,2.5618577
195832736130265,14.486805,0.0935998,0.6239548,0.91553754
195832744115226,14.494790,-0.77961016,-0.05776739,-0.79426616
195832752112765,14.502788,-1.2594008,-0.6701989,-1.8858182
195832760085419,14.510760,-1.2828622,-1.2372746,-2.4503613
195832768083226,14.518758,-0.54311514,-1.3253198,-2.615024
195832776082534,14.526758,0.09979963,-1.209815,-2.483328
195832784096649,14.534772,1.032587,-1.0073676,-2.0602648
195832792075957,14.542751,1.5299158,-0.8555279,-1.35117
195832800066649,14.550742,1.3354006,-0.5778632,-1.0998888
195832808049880,14.558725,0.92516804,-0.50773335,-1.1917228
195832816033572,14.566709,0.54306316,-0.6986995,-1.3695154
195832824025303,14.574700,0.209795,-0.9628191,-1.4629925
195832832085534,14.582761,-0.024441719,-1.106051,-1.6096884
195832840082995,14.590758,-0.20024157,-1.16926,-1.5118665
195832848079264,14.598754,-0.22453737,-1.2501779,-1.1305095
195832856122034,14.606797,-0.2548275,-1.083785,-0.49767846
195832864146072,14.614821,-0.49677134,-0.80448246,0.28299832
195832872123649,14.622799,-0.7543917,-0.25613785,0.9553115
195832880150341,14.630825,-0.8115306,0.24765778,1.9464154
195832888128649,14.638804,-0.70021963,0.7177472,2.7603583
195832896163418,14.646838,-0.31256437,0.97528744,3.3135836
195832904226995,14.654902,0.12270737,1.0737505,3.4573839
195832912303764,14.662979,0.8689585,1.0897789,3.4312701
195832920286533,14.670962,1.5574884,0.8246913,3.171272
195832928281418,14.678956,1.88486,0.41317844,2.6897857
195832936365072,14.687040,1.3941164,-0.10794592,1.6276877
195832944457726,14.695133,0.61656,-0.54685783,0.35671854
195832952439072,14.703114,0.40568638,-1.0814381,-0.6364479
195832960426764,14.711102,0.16744232,-1.4911852,-1.336354
195832968403264,14.719078,-0.30916357,-1.699141,-2.0300674
195832976380879,14.727056,-0.60257864,-1.6936054,-2.0130398
195832984435995,14.735111,-0.41695833,-1.5473232,-1.1425847
195832992432687,14.743108,-0.30607176,-1.2111673,-0.4431307
195833000404071,14.751079,-0.54966164,-0.8363881,0.07212737
195833008400879,14.759076,-0.9852624,-0.5158763,0.1340186
195833016468379,14.767143,-1.2905703,-0.3967948,0.03235855
195833024482225,14.775157,-1.3093491,-0.2970152,-0.106139675
195833032479956,14.783155,-1.043253,-0.21043587,-0.32541224
195833040548071,14.791223,-0.7220073,0.01602745,-0.22965294
195833048573417,14.799248,-0.32166767,0.2674923,0.27319998
195833056550956,14.807226,0.3452654,0.6602411,0.49249274
195833064610687,14.815286,0.81563663,0.9888787,0.77797604
195833072689071,14.823364,0.7206173,1.2045689,0.78525156
195833080759840,14.831435,0.64888096,1.2191324,0.6266585
195833088835533,14.839511,0.33711243,1.015739,-0.052217394
195833096895263,14.847570,-0.16969156,0.67409897,-0.95087147
195833104914686,14.855590,-0.55619717,0.36757135,-1.7292826
195833112918725,14.863594,-0.17093945,0.046569347,-1.8669193
195833120987340,14.871662,0.45159245,-0.16824865,-1.6127232
195833128985071,14.879660,0.7233658,-0.30229425,-1.2981431
195833136999340,14.887674,0.8630724,-0.43327332,-1.1203336
195833144991840,14.895667,1.091094,-0.49179792,-1.138806
195833153053186,14.903728,1.3837662,-0.40902615,-1.0317454
195833161104071,14.911779,1.5111046,-0.37651348,-0.68896395
195833169179955,14.919855,1.5381584,-0.35664272,-0.106392205
195833177217571,14.927893,1.6623249,-0.3400445,0.67516315
195833185312417,14.935987,2.0536575,-0.35520458,1.42293
195833193294571,14.943970,2.3850374,-0.5167351,1.8531816
195833201344417,14.952019,2.7607117,-0.71066713,1.8857701
195833209401609,14.960077,2.6422672,-1.0932226,1.5460418
195833217410263,14.968085,2.6518621,-1.2562509,0.7155436
195833225448648,14.976124,2.2602005,-1.7219067,0.58682185
195833233525878,14.984201,1.0720205,-1.8885171,0.415496
195833241556148,14.992231,-0.3082714,-1.6611404,0.2694164
195833249603532,15.000279,-1.182559,-1.4075544,0.7358844
195833257683340,15.008358,-1.1328044,-0.94514036,1.6253593
195833265699840,15.016375,-0.85264015,-0.19086456,2.3371055
195833273678301,15.024353,-0.21643448,0.33169842,3.170951
195833281669263,15.032344,0.83686256,0.507514,3.7062662
195833289646109,15.040321,1.4339237,0.31266308,3.4937606
195833297647570,15.048323,1.674592,-0.09975672,2.3091106
195833305640955,15.056316,1.3974028,-0.5790262,1.0383186
195833313644570,15.064320,0.8253851,-0.9561696,0.037885353
195833321651570,15.072327,0.26237488,-1.1235824,-0.62830186
195833329650801,15.080326,-0.019945145,-1.3903437,-1.1114144
195833337656609,15.088332,-0.13953781,-1.5349026,-1.2788049
195833345702070,15.096377,-0.15789318,-1.5512629,-1.4488639
195833353679301,15.104354,-0.043302536,-1.4715719,-1.5279914
195833361664993,15.112340,-0.07828522,-1.4780464,-1.4385936
195833369642801,15.120318,-0.00819397,-1.4121857,-1.2108524
195833377622147,15.128297,0.077438354,-1.3320127,-0.82333004
195833385625724,15.136301,0.097447395,-1.1850903,-0.388685
195833393624493,15.144299,0.060956955,-0.95348024,-0.04127747
195833401645416,15.152320,-0.06099415,-0.7612109,0.31206936
195833409644108,15.160319,-0.13224506,-0.6316414,0.67846435
195833417660801,15.168336,-0.03114605,-0.56412697,1.0522091
195833425674993,15.176350,-0.09032917,-0.6140895,1.226046
195833433654108,15.184329,-0.30186844,-0.57936525,1.2331638
195833441647878,15.192323,-0.35738373,-0.5405803,1.4496429
195833449628147,15.200303,-0.4810276,-0.5299463,1.7812797
195833457610185,15.208285,-0.5588217,-0.40250158,2.104372
195833465620300,15.216295,-0.42900562,-0.26645184,2.2109706
195833473619570,15.224295,-0.10828686,-0.33183956,2.2141266
195833481592377,15.232267,0.34235382,-0.489676,1.734783
195833489589993,15.240265,0.74171257,-0.7843666,1.0679973
195833497617070,15.248292,0.83953476,-1.0288293,0.57662284
195833505632916,15.256308,0.9190588,-1.2005401,0.09046112
195833513612493,15.264287,0.96151257,-1.1901736,-0.026364788
195833521602685,15.272278,0.9340105,-1.0709293,0.21675263
195833529580377,15.280255,0.6783123,-0.61010885,0.6913941
195833537559954,15.288235,0.6490383,0.08752346,1.5819736
195833545569416,15.296244,0.7968464,0.7350764,2.6459992
195833553566992,15.304242,1.0634537,1.0516672,3.3965328
195833561538992,15.312214,1.3525801,1.2482433,3.7352765
195833569535262,15.320210,1.5003176,1.1632128,3.3983738
195833577533531,15.328209,1.5486717,0.78184175,2.507893
195833585558800,15.336234,1.7338848,0.45984077,1.664138
195833593537069,15.344212,1.8820648,0.08292484,0.6920513
195833601545723,15.352221,2.1855888,-0.15429354,-0.18845722
195833609549338,15.360224,2.618824,-0.3635931,-0.5214759
195833617527800,15.368203,3.1059885,-0.5011163,-0.7704241
195833625511531,15.376187,3.1190157,-0.63131046,-1.0869724
195833633508108,15.384183,2.5811234,-0.81852317,-1.7188276
195833641478723,15.392154,2.0655203,-0.8086307,-2.137694
195833649475107,15.400150,1.3798141,-0.97372985,-2.5086308
195833657466877,15.408142,0.6796732,-1.081862,-2.7814116
195833665468992,15.416144,0.09280205,-1.0219274,-2.8068361
195833673446146,15.424121,-0.092339516,-0.9424727,-2.51234
195833681433838,15.432109,0.013270378,-0.8653443,-1.8758703
195833689411377,15.440086,0.36164665,-0.7303233,-1.034153
195833697389646,15.448065,0.6613741,-0.67988205,-0.3572945
195833705396646,15.456072,0.7867193,-0.6323018,0.3169247
195833713393415,15.464068,0.49671268,-0.5724082,0.6249194
195833721398492,15.472073,0.22784519,-0.44656754,0.858304
195833729444338,15.480119,-0.06680012,-0.18284082,1.1957923
195833737448299,15.488123,-0.19319534,0.2545042,1.8234982
195833745463646,15.496139,-0.12433338,0.72752523,2.701231
195833753443492,15.504118,0.2770548,1.1019549,3.5207736
195833761435146,15.512110,0.89336205,1.2864141,3.992004
195833769414376,15.520089,1.3835278,1.0153971,3.9099052
195833777394415,15.528069,1.2495327,0.32186842,2.9204915
195833785389453,15.536064,0.63979816,-0.3846445,1.6891304
195833793387684,15.544063,0.11837959,-1.1001117,0.32415473
195833801359915,15.552035,-0.35653877,-1.7531338,-0.71226835
195833809358761,15.560034,-0.56325054,-2.2222161,-1.2248003
195833817370838,15.568046,-0.48968124,-2.3468122,-1.2338469
195833825386030,15.576061,-0.60429096,-2.3436828,-1.0102454
195833833366607,15.584042,-0.88478756,-2.1350152,-0.71079904
195833841357030,15.592032,-1.161624,-1.7677841,-0.31714484
195833849338299,15.600013,-1.4224114,-1.3151283,0.33902913
195833857317953,15.607993,-1.6604123,-0.92482233,0.82777274
195833865315337,15.615990,-1.6643333,-0.61304617,1.2493141
195833873313684,15.623989,-1.3333406,-0.37870073,1.6258676
195833881288030,15.631963,-0.42683315,-0.27176237,2.216944
195833889285183,15.639960,0.4528122,-0.15978718,2.7825768
195833897304722,15.647980,0.76200867,-0.0060186386,2.7793407
195833905310568,15.655986,0.6582918,0.15991068,2.4489915
195833913289606,15.663965,0.4962597,0.06940746,1.9723746
195833921280606,15.671956,0.3140545,-0.10963535,1.5522937
195833929259453,15.679934,0.063241005,-0.30205345,1.1782746
195833937239029,15.687914,-0.20352745,-0.58444786,0.73953116
195833945156760,15.695832,-0.2812233,-0.79730654,0.27841318
195833953154991,15.703830,-0.59834385,-0.897655,-0.11894502
195833961128260,15.711803,-1.0683975,-0.95543766,-0.4794673
195833969127606,15.719803,-1.4575853,-0.9213066,-0.6338152
195833977150991,15.727826,-1.5188098,-0.77511406,-0.43194523
195833985183145,15.735858,-1.1022129,-0.5799136,-0.0026486143
195833993163183,15.743838,-0.6097355,-0.2930808,0.41021955
195834001149914,15.751825,-0.05249691,0.011996269,0.7035801
195834009128452,15.759803,0.7336407,0.16011572,1.1434131
195834017106952,15.767782,1.4483624,0.1514988,1.3857335
195834025091414,15.775766,2.0832977,0.02482605,1.265211
195834033088798,15.783764,2.3414717,-0.32699394,0.99384815
195834041066068,15.791741,2.3983479,-0.6610284,0.6718661
195834049067067,15.799742,2.0760164,-0.9229028,0.20897637
195834057056837,15.807732,1.5073633,-1.0386856,-0.16035292
195834065069491,15.815744,1.0842571,-1.0237529,-0.19587535
195834073059490,15.823734,0.82989407,-0.9462216,0.1394507
195834081048990,15.831724,0.70961,-0.69386005,0.54949015
195834089026798,15.839702,0.6202488,-0.31177807,0.9422762
195834097005837,15.847681,0.45123863,0.064398766,1.2278432
195834105000644,15.855676,0.4490652,0.41335583,1.5309349
195834112996952,15.863672,0.6658144,0.70033264,1.7544332
195834120987375,15.871662,0.8762827,0.8867035,1.8504561
195834128983490,15.879658,1.0935478,0.80834866,1.7138697
195834136977375,15.887652,1.5392103,0.58243704,1.3842913
195834144990067,15.895665,1.9892817,0.28597736,0.8109956
195834152967606,15.903643,2.1956263,-0.015798569,0.18563253
195834160953952,15.911629,1.9801903,-0.14420319,-0.3892343
195834168971298,15.919646,1.6755638,-0.4055419,-0.79059863
195834177029182,15.927704,1.5585556,-0.6232834,-0.77296007
195834185071029,15.935746,1.5120678,-0.7020447,-0.76819515
195834193072144,15.943747,1.44979,-0.7779286,-0.80511904
195834201074721,15.951750,1.5536089,-0.88455105,-0.7954388
195834209072298,15.959747,1.6137791,-0.9618902,-0.719257
195834217079028,15.967754,1.4580173,-1.0485086,-0.6969165
195834225126875,15.975802,1.1546249,-1.0943637,-0.64715004
195834233105759,15.983781,0.7724762,-1.1122556,-0.5610671
195834241098067,15.991773,0.23171711,-1.1314869,-0.4530286
195834249078413,15.999753,-0.24966145,-1.1354027,-0.23361105
195834257058951,16.007734,-0.7567978,-1.0850873,0.21281244
195834265065413,16.015740,-0.81640387,-0.98359966,0.70950377
195834273066105,16.023741,-0.8382387,-0.9426811,1.0342829
195834281073182,16.031748,-0.9427862,-0.912771,1.1478108
195834289079067,16.039754,-1.1638956,-0.77835035,1.1798867
195834297170567,16.047846,-1.491806,-0.6452279,1.1639422
195834305264874,16.055940,-1.6922302,-0.61577797,1.1299398
195834313323874,16.063999,-1.84059,-0.54177094,1.1944298
195834321368759,16.072044,-2.0999045,-0.43246174,1.3115733
195834329379720,16.080055,-2.1147752,-0.30710936,1.6108307
195834337372489,16.088047,-1.6211767,-0.16040564,1.9469678
195834345367643,16.096043,-1.1712112,-0.11632919,2.2455251
195834353363682,16.104039,-0.94837093,-0.20529842,2.2709107
195834361334643,16.112010,-0.84819794,-0.4131918,1.811845
195834369330566,16.120006,-0.94915485,-0.7552161,0.9414841
195834377349143,16.128024,-1.1091776,-1.03637,0.1632072
195834385365182,16.136040,-1.3957796,-1.2987638,-0.53857255
195834393345066,16.144020,-1.3643994,-1.4021962,-0.8350539
195834401337258,16.152012,-0.9856725,-1.3483071,-0.630604
195834409328220,16.160003,-0.3575163,-1.2046695,-0.05631861
195834417314951,16.167990,0.21158504,-0.892967,0.6926326
195834425299451,16.175974,0.50889206,-0.40668917,1.3023691
195834433296258,16.183971,0.71989155,-0.042469025,1.782899
195834441268220,16.191943,1.3825874,0.32094574,2.384354
195834449271181,16.199946,1.83986,0.5278115,2.8311596
195834457252451,16.207927,2.2167711,0.6369877,3.2080913
195834465255874,16.215931,2.1416016,0.848649,3.4493241
195834473233874,16.223909,1.3963737,1.062387,3.3611147
195834481221104,16.231896,0.5041132,1.1130862,3.1818717
195834489197450,16.239872,-0.06626701,1.0346341,2.9581673
195834497175527,16.247851,-0.34029675,0.75603056,2.4866986
195834505216412,16.255891,-0.13330936,0.42442036,1.6894106
195834513288489,16.263963,0.2920437,0.017189026,0.6921642
195834521295604,16.271971,0.98344517,-0.36632156,-0.2147657
195834529318835,16.279994,1.7206669,-0.71113706,-1.2288518
195834537299796,16.287975,2.1554317,-0.9739256,-2.185697
195834545303450,16.295978,2.4457293,-1.1882341,-3.0687284
195834553317566,16.303993,2.8492994,-1.1808355,-3.4858348
195834561307796,16.311983,3.2458134,-1.1858835,-3.5242767
195834569296181,16.319971,3.490384,-1.2327452,-3.0279927
195834577355912,16.328031,3.9097672,-1.1016362,-2.3705232
195834585411258,16.336086,3.8238335,-0.78454304,-1.7943499
