time,seconds_elapsed,z,y,x
195818249325012,0.000000,-0.015271631,0.24251351,0.13561209
195818257301320,0.007976,-0.015271631,0.24251351,0.13561209
195818265280666,0.015956,-0.015271631,0.24251351,0.13561209
195818273288397,0.023963,-0.015271631,0.24251351,0.13561209
195818281338743,0.032014,-0.015271631,0.24251351,0.13561209
195818289366705,0.040042,-0.015271631,0.24251351,0.13561209
195818297351974,0.048027,-0.015271631,0.24251351,0.13561209
195818305355743,0.056031,-0.015271631,0.24251351,0.13561209
195818313377012,0.064052,-0.015271631,0.24251351,0.13561209
195818321684897,0.072360,-0.015271631,0.24251351,0.13561209
195818329396051,0.080071,-0.015271631,0.24251351,0.13561209
195818337396820,0.088072,-0.015271631,0.24251351,0.13561209
195818345378474,0.096053,-0.015271631,0.24251351,0.13561209
195818353387012,0.104062,-0.015271631,0.24251351,0.13561209
195818361464281,0.112139,-0.015271631,0.24251351,0.13561209
195818369367820,0.120043,-0.015271631,0.24251351,0.13561209
195818377367204,0.128042,0.017104227,-0.017715093,-0.12156218
195818385390589,0.136066,0.022602014,-0.02565634,-0.12339478
195818393419512,0.144095,0.02565634,-0.04642576,-0.12950343
195818401470550,0.152146,0.032986723,-0.062308256,-0.14172074
195818409394319,0.160069,0.04520403,-0.07513642,-0.1600467
195818417375127,0.168050,0.055588737,-0.077579886,-0.19792034
195818425355589,0.176031,0.055588737,-0.073303826,-0.22296582
195818433364666,0.184040,0.05131268,-0.080634214,-0.24678956
195818441481358,0.192156,0.047036625,-0.07696902,-0.26267207
195818449444396,0.200119,0.040317107,-0.065973446,-0.2724459
195818457443858,0.208119,0.03848451,-0.056199603,-0.2864958
195818465429319,0.216104,0.039095376,-0.040927973,-0.29626966
195818473457435,0.224132,0.040927973,-0.0421497,-0.30604348
195818481508511,0.232183,0.054367006,-0.049480084,-0.31031954
195818489426473,0.240101,0.06414085,-0.059864793,-0.30848694
195818497407473,0.248082,0.07696902,-0.081855945,-0.30665436
195818505386704,0.256062,0.095294975,-0.09101892,-0.30543262
195818513395588,0.264071,0.10995574,-0.08735373,-0.3145956
195818521464204,0.272139,0.119729586,-0.059253927,-0.34208453
195818529369165,0.280044,0.13561209,-0.020158553,-0.36957347
195818537369665,0.288045,0.16187929,0.037873644,-0.3933972
195818545361665,0.296037,0.1863139,0.1282817,-0.42760566
195818553389165,0.304064,0.19853121,0.1863139,-0.47219884
195818561440050,0.312115,0.20952678,0.23273966,-0.5320636
195818569362319,0.320037,0.22113322,0.29077184,-0.63591075
195818577345973,0.328021,0.23273966,0.3378085,-0.70005155
195818585329973,0.336005,0.24251351,0.38423425,-0.7507534
195818593341819,0.344017,0.29871312,0.37568212,-0.8051204
195818601413280,0.352088,0.32498032,0.3378085,-0.8374963
195818609319165,0.359994,0.32498032,0.28160888,-0.8790351
195818617324549,0.368000,0.2932153,0.115453534,-0.89369583
195818625327088,0.376002,0.29077184,0.027488936,-0.8881981
195818633351588,0.384027,0.2846632,-0.08368854,-0.88208944
195818641402819,0.392078,0.28893927,-0.18081611,-0.86498517
195818649323203,0.399998,0.29871312,-0.36163223,-0.820392
195818657304049,0.407979,0.3408628,-0.56505036,-0.7147123
195818665286703,0.415962,0.37934732,-0.62858033,-0.61575216
195818673286511,0.423961,0.38545597,-0.68416905,-0.5314528
195818681357626,0.432033,0.33536503,-0.73975784,-0.47647488
195818689262972,0.439938,0.28221974,-0.79779,-0.44409904
195818697262857,0.447938,0.23701571,-0.82344633,-0.4092797
195818705269511,0.455944,0.17165314,-0.7330383,-0.4007276
195818713295164,0.463970,0.043982297,-0.61819565,-0.45142943
195818721348703,0.472024,-0.111177474,-0.3848451,-0.63713247
195818729272703,0.479948,-0.17287487,-0.16432275,-0.8350528
195818737253280,0.487928,-0.21074851,0.051923547,-1.0519099
195818745235087,0.495910,-0.2565634,0.2443461,-1.387275
195818753222049,0.503897,-0.22602014,0.43860126,-1.6328428
195818761294664,0.511970,-0.092240654,0.61269784,-1.7880026
195818769200395,0.519875,-0.029932396,0.59864795,-1.9150625
195818777201395,0.527876,-0.061086524,0.5002986,-1.9975294
195818785222010,0.535897,-0.10751228,0.4813618,-2.0415115
195818793229664,0.543905,-0.1301143,0.6719518,-2.0158553
195818801282703,0.551958,-0.13439035,0.89552844,-1.971873
195818809202972,0.559878,-0.14660765,1.1007792,-1.917506
195818817184241,0.567859,-0.14966199,1.1068878,-1.8374827
195818825166241,0.575841,-0.15577064,1.073901,-1.7446312
195818833163318,0.583838,-0.21624629,1.2699889,-1.6530013
195818841234087,0.591909,-0.20708331,1.2382239,-1.5589281
195818849138087,0.599813,-0.16310102,1.0726794,-1.4446963
195818857138587,0.607814,-0.08735373,0.7648033,-1.2461652
195818865165241,0.615840,-0.044593163,0.57543504,-1.0635164
195818873178164,0.623853,-0.026267206,0.46670106,-0.8546005
195818881230356,0.631905,-0.058643065,0.3659083,-0.59437186
195818889152625,0.639828,-0.12095132,0.35063666,-0.3811799
195818897133895,0.647809,-0.2321288,0.37507126,-0.05375614
195818905115356,0.655790,-0.3115413,0.29810223,0.15699236
195818913103279,0.663778,-0.35979962,0.13072516,0.3304781
195818921175394,0.671850,-0.37201694,-0.07941248,0.52473325
195818929088279,0.679763,-0.3567453,-0.1337795,0.65118235
195818937088471,0.687763,-0.33169982,-0.13805555,0.7507534
195818945070010,0.695745,-0.2706133,-0.16432275,0.82772243
195818953073471,0.703748,-0.22540927,-0.17715092,0.84604836
195818961123664,0.711799,-0.18570304,-0.20280726,0.8240572
195818969042433,0.719717,-0.1386664,-0.23701571,0.7538077
195818977025087,0.727700,-0.09896017,-0.24740042,0.6945538
195818985007933,0.735683,-0.06658431,-0.24312437,0.6426302
195818993005625,0.743681,-0.045814894,-0.23335053,0.6065892
195819001075202,0.751750,-0.08552113,-0.2321288,0.58459806
195819009008279,0.759683,-0.21013765,-0.17959438,0.5552765
195819017008202,0.767683,-0.29138273,-0.12156218,0.5308419
195819025004009,0.775679,-0.35979962,-0.045814894,0.52290064
195819033028779,0.783704,-0.4538729,0.0,0.52412236
195819041079317,0.791754,-0.50579643,0.07574729,0.56077427
195819049000932,0.799676,-0.5369505,0.20463985,0.6206391
195819056981355,0.807656,-0.5137377,0.35369098,0.68416905
195819064963202,0.815638,-0.48624873,0.34391713,0.68600166
195819072972817,0.823648,-0.41905355,0.28099802,0.66523224
195819081048240,0.831723,-0.28588495,0.22968534,0.634689
195819088977163,0.839652,-0.15332718,0.20708331,0.6218608
195819096977855,0.847653,-0.0030543262,0.15821409,0.6151413
195819104978163,0.855653,0.05497787,0.06658431,0.6133087
195819112995740,0.863671,0.064751714,-0.04886922,0.6169739
195819121045548,0.871721,0.043982297,-0.1704314,0.61941737
195819128963817,0.879639,0.03848451,-0.22785273,0.6133087
195819136945432,0.887620,0.052534413,-0.2510656,0.59803706
195819144928240,0.895603,0.093462385,-0.26816985,0.5699373
195819152939663,0.903615,0.11056661,-0.28955013,0.56199604
195819161010317,0.911685,0.10323623,-0.31031954,0.6035349
195819168960355,0.919635,0.08674286,-0.2846632,0.6621779
195819176960009,0.927635,0.06169739,-0.18753563,0.6988298
195819184965124,0.935640,0.013439035,-0.15332718,0.73914695
195819192993586,0.943669,-0.009773844,-0.17531833,0.7825184
195819201044163,0.951719,-0.01282817,-0.24495697,0.81000733
195819209007739,0.959683,0.0067195175,-0.39950588,0.8246681
195819216987624,0.967663,0.018325957,-0.50946164,0.8344419
195819224968278,0.975643,0.025045475,-0.59681535,0.8405506
195819232978739,0.983654,0.03359759,-0.6780604,0.84238315
195819241049739,0.991725,0.047647487,-0.70738196,0.8509353
195819248955009,0.999630,0.070249505,-0.70371675,0.86498517
195819256955662,1.007631,0.106901415,-0.70554936,0.9053023
195819264974047,1.015649,0.12217305,-0.71959925,0.9425651
195819273023124,1.023698,0.1282817,-0.7067711,0.9950995
195819281074008,1.031749,0.122783914,-0.6737844,1.0079277
195819288995085,1.039670,0.116675265,-0.6151413,0.97433007
195819296977085,1.047652,0.13194689,-0.49968776,0.8790351
195819304960239,1.055635,0.16615535,-0.3903429,0.79534656
195819312961201,1.063636,0.21135938,-0.27366763,0.7147123
195819321032201,1.071707,0.27183503,-0.14844026,0.6224717
195819328937662,1.079613,0.30787608,-0.09101892,0.5717699
195819336938739,1.087614,0.32925636,-0.07147124,0.5369505
195819344968162,1.095643,0.33658674,-0.09162979,0.50579643
195819352994200,1.103669,0.3304781,-0.13316862,0.4831944
195819361048162,1.111723,0.31703907,-0.20586158,0.453262
195819368970931,1.119646,0.30787608,-0.25473082,0.42455134
195819376954200,1.127629,0.29810223,-0.3036,0.40622538
195819384936893,1.135612,0.27366763,-0.33475417,0.40500367
195819392949470,1.143624,0.25228736,-0.31031954,0.41050145
195819401020700,1.151696,0.226631,-0.27488935,0.41172317
195819408925662,1.159601,0.2003638,-0.23273966,0.39950588
195819416925200,1.167600,0.18570304,-0.20647246,0.37140608
195819424912739,1.175588,0.18081611,-0.1863139,0.321926
195819432937469,1.183612,0.18997909,-0.18142697,0.23823744
195819440989931,1.191665,0.20219639,-0.19303341,0.17898351
195819448909662,1.199585,0.21563543,-0.18692477,0.1142318
195819456891469,1.207566,0.21319197,-0.15760323,0.07819075
195819464874200,1.215549,0.20647246,-0.10629055,0.051923547
195819472878969,1.223554,0.18997909,-0.014660766,0.018325957
195819480949854,1.231625,0.18203785,0.065973446,-0.015271631
195819488856431,1.239531,0.17470746,0.14049901,-0.05497787
195819496857815,1.247533,0.15882497,0.204029,-0.124005646
195819504855546,1.255531,0.1423316,0.18509217,-0.17165314
195819512884354,1.263559,0.12339478,0.12034045,-0.20463985
195819520936315,1.271611,0.10140363,-0.010995574,-0.19242255
195819528859584,1.279535,0.08674286,-0.096516706,-0.14049901
195819536840238,1.287515,0.07880162,-0.112399206,-0.031154128
195819544822777,1.295498,0.08002335,-0.09101892,0.043982297
195819552831546,1.303507,0.09040806,-0.07452556,0.09407325
195819560901969,1.311577,0.11728613,-0.047647487,0.12156218
195819568805623,1.319481,0.14172074,-0.030543262,0.119729586
195819576805353,1.327480,0.16310102,-0.031154128,0.1020145
195819584812353,1.335487,0.1777618,-0.057421334,0.058643065
195819592840238,1.343515,0.1740966,-0.070249505,0.034208454
195819600890469,1.351565,0.15821409,-0.059864793,0.02321288
195819608809661,1.359485,0.116675265,-0.026267206,0.022602014
195819616790084,1.367465,0.07880162,0.0012217305,0.02321288
195819624772276,1.375447,0.035430185,0.032986723,0.01038471
195819632783122,1.383458,0.01282817,0.04886922,-0.016493361
195819640855584,1.391531,0.002443461,0.054367006,-0.05375614
195819648762199,1.399437,0.008552114,0.049480084,-0.09040806
195819656763853,1.407439,0.017104227,0.03176499,-0.09773844
195819664778045,1.415453,0.02443461,0.0067195175,-0.08674286
195819672809238,1.423484,0.029932396,-0.01038471,-0.05681047
195819680863468,1.431538,0.035430185,-0.015271631,-0.029932396
195819688790392,1.439465,0.040927973,-0.02565634,-0.009162978
195819696773815,1.447449,0.03848451,-0.040927973,0.0067195175
195819704757353,1.455432,0.02565634,-0.023823744,0.017104227
195819712768199,1.463443,0.0012217305,0.007941248,0.009773844
195819720840776,1.471516,-0.01282817,0.015271631,-0.002443461
195819728748891,1.479424,-0.019547688,0.013439035,-0.01160644
195819736752699,1.487428,-0.016493361,-0.004276057,-0.007330383
195819744773084,1.495448,-0.01282817,-0.017104227,0.008552114
195819752807507,1.503482,-0.009773844,-0.02076942,0.03848451
195819760860891,1.511536,-0.007941248,-0.0061086523,0.08124508
195819768783314,1.519458,-0.012217305,0.0036651916,0.09590584
195819776766853,1.527442,-0.022602014,0.018325957,0.09712757
195819784752353,1.535427,-0.03726278,0.07452556,0.08307768
195819792765891,1.543441,-0.043982297,0.11301007,0.062308256
195819800836853,1.551512,-0.055588737,0.09896017,0.044593163
195819808741660,1.559417,-0.062308256,0.07086037,0.0580322
195819816742968,1.567418,-0.06536258,0.065973446,0.0983493
195819824772237,1.575447,-0.06963864,0.10873401,0.17654006
195819832802545,1.583478,-0.06719518,0.25289822,0.19242255
195819840855852,1.591531,-0.03604105,0.21685717,0.12461651
195819848781506,1.599456,0.005497787,-0.087964594,-0.031154128
195819856763199,1.607438,0.008552114,-0.22724187,-0.1423316
195819864745122,1.615420,-0.002443461,-0.2144137,-0.2144137
195819872751891,1.623427,-0.02565634,-0.12461651,-0.25778514
195819880822929,1.631498,-0.0421497,-0.050701816,-0.27000242
195819888743737,1.639419,-0.050701816,0.07880162,-0.25045475
195819896742929,1.647418,-0.053145275,0.19608775,-0.22357668
195819904731621,1.655407,-0.059253927,0.30482176,-0.20463985
195819912749737,1.663425,-0.06169739,0.408058,-0.20158553
195819920802352,1.671477,-0.036651913,0.4202753,-0.22540927
195819928722775,1.679398,6.1086525E-4,0.34025195,-0.26328292
195819936703775,1.687379,0.0421497,0.15515977,-0.312763
195819944685698,1.695361,0.05375614,0.028710667,-0.33108896
195819952691429,1.703366,0.05375614,-0.062308256,-0.3268129
195819960759890,1.711435,0.040927973,-0.12705997,-0.30665436
195819968690390,1.719365,0.029321533,-0.13683382,-0.30176744
195819976687544,1.727363,0.02565634,-0.07391469,-0.3231477
195819984679390,1.735354,0.030543262,0.01160644,-0.36102137
195819992704813,1.743380,0.040317107,0.108123146,-0.41416663
195820000755852,1.751431,0.04886922,0.21868975,-0.49357912
195820008679583,1.759355,0.0421497,0.28099802,-0.5522222
195820016662852,1.767338,0.034208454,0.31398472,-0.59559363
195820024646583,1.775322,0.03359759,0.29932398,-0.625526
195820032657159,1.783332,0.03604105,0.2724459,-0.6389651
195820040727659,1.791403,0.042760566,0.26328292,-0.6542367
195820048668082,1.799343,0.062308256,0.26450464,-0.6939429
195820056743775,1.807419,0.07513642,0.26206118,-0.74220127
195820064746159,1.815421,0.03848451,0.24801129,-0.8332202
195820072774159,1.823449,-0.042760566,0.19547687,-0.9071349
195820080825505,1.831500,-0.07696902,0.13561209,-0.9767735
195820088743659,1.839419,-0.096516706,0.1001819,-1.0390818
195820096723813,1.847399,-0.11301007,0.09773844,-1.0586295
195820104705313,1.855380,-0.108123146,0.089186326,-1.0445796
195820112692813,1.863368,-0.076358154,0.10445796,-0.96577793
195820120761390,1.871436,-0.05009095,0.13927728,-0.87109387
195820128700274,1.879375,-0.03604105,0.1740966,-0.7519751
195820136699697,1.887375,-0.036651913,0.22418754,-0.57360244
195820144712890,1.895388,-0.059253927,0.2724459,-0.44837508
195820152728467,1.903403,-0.09773844,0.3109304,-0.32986724
195820160778082,1.911453,-0.10262536,0.3200934,-0.29138273
195820168701467,1.919376,-0.07880162,0.31520647,-0.29565877
195820176681890,1.927357,-0.007330383,0.24190263,-0.3549127
195820184663197,1.935338,0.06169739,0.15149458,-0.41905355
195820192658967,1.943334,0.13255776,0.06719518,-0.47708577
195820200726620,1.951402,0.20341812,-0.04337143,-0.5375614
195820208628582,1.959304,0.21624629,-0.12339478,-0.5546656
195820216633043,1.967308,0.19547687,-0.19486602,-0.548557
195820224652620,1.975328,0.122783914,-0.26083946,-0.5137377
195820232678428,1.983353,0.053145275,-0.28405234,-0.47525316
195820240729659,1.991405,-0.04642576,-0.2773328,-0.4184427
195820248649236,1.999324,-0.10995574,-0.27183503,-0.38056904
195820256629812,2.007305,-0.172264,-0.22540927,-0.34147367
195820264629505,2.015304,-0.20341812,-0.12889257,-0.3115413
195820272638428,2.023313,-0.20708331,-0.0012217305,-0.29932398
195820280705658,2.031381,-0.19547687,0.13561209,-0.2883284
195820288609389,2.039284,-0.1777618,0.2687807,-0.29443705
195820296608428,2.047283,-0.18142697,0.2968805,-0.32498032
195820304591005,2.055266,-0.19058995,0.24251351,-0.36774087
195820312618428,2.063293,-0.19853121,0.105068825,-0.42088616
195820320669620,2.071345,-0.20341812,-0.0018325958,-0.44043383
195820328591928,2.079267,-0.2125811,-0.11911872,-0.4550946
195820336574081,2.087249,-0.22174409,-0.17470746,-0.44837508
195820344554581,2.095230,-0.24495697,-0.22296582,-0.42455134
195820352564504,2.103239,-0.29626966,-0.31764993,-0.35246924
195820360633504,2.111308,-0.3481932,-0.30787608,-0.29016098
195820368537427,2.119212,-0.3915646,-0.20891592,-0.2321288
195820376535081,2.127210,-0.43493605,0.047647487,-0.18753563
195820384526235,2.135201,-0.45814893,0.2761111,-0.19181168
195820392530966,2.143206,-0.4642576,0.49602258,-0.25228736
195820400581504,2.151256,-0.4269948,0.6407976,-0.4343252
195820408499158,2.159174,-0.3726278,0.6017023,-0.66706485
195820416478850,2.167154,-0.31642818,0.37140608,-1.0934488
195820424459889,2.175135,-0.2883284,0.14172074,-1.4361442
195820432445696,2.183121,-0.2669481,-0.01282817,-1.7379116
195820440515119,2.191190,-0.26816985,-0.016493361,-2.0091357
195820448419389,2.199094,-0.28405234,0.12217305,-2.1239784
195820456418389,2.207093,-0.28710666,0.2919936,-2.158187
195820464414312,2.215089,-0.21319197,0.51251596,-2.0842721
195820472425158,2.223100,-0.12583824,0.6792821,-1.971873
195820480474965,2.231150,-0.017104227,0.81122905,-1.8338175
195820488396773,2.239072,0.11056661,0.8668178,-1.636508
195820496375504,2.247050,0.18325958,0.8167268,-1.4801265
195820504355158,2.255030,0.24495697,0.71593404,-1.3096951
195820512341004,2.263016,0.30298916,0.65057147,-1.0720685
195820520408888,2.271084,0.3286455,0.68477994,-0.89858276
195820528311042,2.278986,0.35308012,0.79534656,-0.6988298
195820536308773,2.286984,0.36468655,0.8881981,-0.5888741
195820544304042,2.294979,0.37384954,0.8961393,-0.50762904
195820552319850,2.302995,0.4343252,0.59864795,-0.36468655
195820560369427,2.311044,0.44532076,0.32498032,-0.2687807
195820568288234,2.318963,0.42149702,0.059253927,-0.14477506
195820576269004,2.326944,0.3481932,-0.18936823,0.07574729
195820584248657,2.334924,0.2443461,-0.20525073,0.25473082
195820592233503,2.342908,0.106901415,-0.051923547,0.41722095
195820600301926,2.350977,-0.070249505,0.18692477,0.58093286
195820608227350,2.358902,-0.17837265,0.25167647,0.66645396
195820616225696,2.366901,-0.24740042,0.19853121,0.73792523
195820624237926,2.374913,-0.28405234,-0.032375857,0.8313876
195820632252503,2.382927,-0.32253686,-0.3371976,1.0115929
195820640304657,2.390980,-0.3567453,-0.49541172,1.2290609
195820648228542,2.398904,-0.37568212,-0.7892379,1.3371841
195820656208388,2.406883,-0.39706242,-1.0873401,1.3921618
195820664188195,2.414863,-0.45448375,-1.3988814,1.3988814
195820672185580,2.422861,-0.51068336,-1.509448,1.4031575
195820680259388,2.430934,-0.56688297,-1.5167783,1.4019357
195820688163157,2.438838,-0.6072,-1.4306464,1.4062119
195820696162503,2.446837,-0.59315014,-1.2803736,1.3891076
195820704183465,2.454858,-0.5235115,-1.0354166,1.3353515
195820712199888,2.462875,-0.43493605,-0.80939645,1.2657127
195820720250695,2.470926,-0.32925636,-0.593761,1.1808025
195820728167464,2.478842,-0.18448131,-0.4465425,1.0763446
195820736146311,2.486821,-0.09285152,-0.42332962,1.033584
195820744126234,2.494801,-0.043982297,-0.4166101,1.0225884
195820752123041,2.502798,-0.013439035,-0.43004912,1.0103711
195820760190195,2.510865,0.01160644,-0.4465425,1.0012082
195820768092541,2.518768,0.052534413,-0.4728097,1.0024298
195820776090503,2.526765,0.13072516,-0.5131268,1.0219775
195820784112580,2.534788,0.18325958,-0.539394,1.0231993
195820792139503,2.542814,0.21563543,-0.5534439,1.0250319
195820800189195,2.550864,0.20647246,-0.4801401,1.0433578
195820808111656,2.558787,0.1563815,-0.31764993,1.102001
195820816089733,2.566765,0.13805555,-0.115453534,1.3249667
195820824070387,2.574745,0.13683382,-0.048258353,1.509448
195820832079503,2.582754,0.0842994,-0.055588737,1.641395
195820840149079,2.590824,-0.028099801,-0.103847094,1.7159204
195820848063656,2.598739,-0.09101892,-0.116675265,1.6804903
195820856062002,2.606737,-0.089186326,-0.11362094,1.5937474
195820864051579,2.614727,-0.009162978,-0.0421497,1.4526376
195820872066695,2.622742,0.0720821,0.032986723,1.3842206
195820880117695,2.630793,0.15210545,0.07941248,1.3500122
195820888037310,2.638712,0.18997909,0.12034045,1.3322971
195820896016195,2.646691,0.12767084,0.10934488,1.3023647
195820903996579,2.654672,-0.013439035,0.014049901,1.2064588
195820911994387,2.662669,-0.048258353,-0.08674286,1.0855075
195820920062541,2.670738,0.012217305,-0.118507855,0.95111716
195820927988079,2.678663,0.16554448,0.018325957,0.8155051
195820935987118,2.686662,0.267559,0.2180789,0.77518797
195820943977464,2.694652,0.33353242,0.40378192,0.7733554
195820951994194,2.702669,0.3817908,0.54000485,0.7678576
195820960043848,2.710719,0.34025195,0.59986967,0.7153232
195820967966040,2.718641,0.29810223,0.6450737,0.6273586
195820975945964,2.726621,0.30298916,0.7079928,0.50701815
195820983925310,2.734600,0.34269542,0.73853606,0.43676865
195820991922194,2.742597,0.39950588,0.6768387,0.39522982
195820999991425,2.750666,0.40561453,0.56016344,0.3885103
195821007922194,2.758597,0.35430184,0.42455134,0.41722095
195821015921194,2.766596,0.23823744,0.33964106,0.49480084
195821023927040,2.774602,0.11484267,0.3707952,0.5314528
195821031953348,2.782628,0.015882496,0.42088616,0.5174029
195821040003040,2.790678,-0.015271631,0.4343252,0.4288274
195821047920809,2.798596,0.0036651916,0.38606682,0.32436943
195821055899809,2.806575,0.05009095,0.321926,0.22785273
195821063879502,2.814554,0.112399206,0.24617869,0.17837265
195821071884079,2.822559,0.13439035,0.19242255,0.19853121
195821079951771,2.830627,0.119729586,0.08002335,0.25473082
195821087899232,2.838574,0.10751228,-0.009773844,0.3023783
195821095897886,2.846573,0.10567969,-0.069027774,0.34147367
195821103916425,2.854591,0.122783914,-0.09285152,0.37201694
195821111943117,2.862618,0.16126843,-0.070249505,0.3921755
195821119991886,2.870667,0.18509217,-0.047647487,0.4025602
195821127915117,2.878590,0.17531833,0.014660766,0.39645153
195821135894309,2.886569,0.124005646,0.06780604,0.36041048
195821143874501,2.894549,0.062308256,0.11178834,0.29932398
195821151871617,2.902547,-0.004276057,0.14782938,0.19181168
195821159939155,2.910614,-0.053145275,0.13805555,0.09773844
195821167846386,2.918521,-0.100792766,0.08735373,-0.004886922
195821175844963,2.926520,-0.1337795,0.07452556,-0.14660765
195821183867501,2.934542,-0.12950343,0.09101892,-0.24801129
195821191884540,2.942560,-0.08674286,0.095294975,-0.35308012
195821199934463,2.950609,-0.052534413,0.092240654,-0.3915646
195821207852655,2.958528,-0.020158553,0.10262536,-0.40439278
195821215832078,2.966507,0.03848451,0.11362094,-0.38789943
195821223813463,2.974488,0.07941248,0.12583824,-0.3652974
195821231811232,2.982486,0.12034045,0.1282817,-0.33169982
195821239881270,2.990556,0.16920967,0.049480084,-0.2565634
195821247785039,2.998460,0.18692477,-0.05375614,-0.18570304
195821255871155,3.006546,0.19242255,-0.226631,-0.08857546
195821263853039,3.014528,0.19486602,-0.3659083,-0.0421497
195821271881078,3.022556,0.18570304,-0.44409904,-0.035430185
195821279931924,3.030607,0.17531833,-0.5155703,-0.047647487
195821287854616,3.038530,0.16737708,-0.46120325,-0.026267206
195821295833385,3.046508,0.16065755,-0.30176744,0.023823744
195821303812462,3.054487,0.15088372,-0.0720821,0.105068825
195821311819693,3.062495,0.13805555,0.02687807,0.14660765
195821319891308,3.070566,0.1160644,0.03359759,0.17104226
195821327795731,3.078471,0.09590584,-0.08124508,0.14782938
195821335794770,3.086470,0.09773844,-0.22785273,0.10445796
195821343785462,3.094460,0.100792766,-0.41233405,0.059864793
195821351815001,3.102490,0.119729586,-0.6243043,0.03604105
195821359864577,3.110540,0.1863139,-0.7257079,0.0421497
195821367782654,3.118458,0.20463985,-0.71837753,0.058643065
195821375763077,3.126438,0.17715092,-0.66156703,0.06719518
195821383745847,3.134421,0.13988814,-0.5381723,0.07147124
195821391750962,3.142426,0.115453534,-0.32498032,0.045814894
195821399819539,3.150495,0.09285152,-0.20647246,-0.019547688
195821407723770,3.158399,0.062308256,-0.18448131,-0.09773844
195821415722077,3.166397,0.025045475,-0.1966986,-0.16982053
195821423724346,3.174399,-0.004886922,-0.16798794,-0.16920967
195821431746423,3.182421,-0.035430185,-0.10262536,-0.13805555
195821439795539,3.190471,-0.04642576,0.02687807,-0.08307768
195821447717885,3.198393,-0.02687807,0.13622294,-0.05131268
195821455697769,3.206373,-0.0018325958,0.25228736,-0.039095376
195821463678000,3.214353,0.0012217305,0.2724459,-0.05375614
195821471684808,3.222360,-0.0067195175,0.2144137,-0.07574729
195821479751269,3.230426,-0.018936822,0.09712757,-0.09162979
195821487652538,3.238328,-0.022602014,0.036651913,-0.077579886
195821495650846,3.246326,-0.02076942,0.02076942,-0.03481932
195821503658846,3.254334,-0.005497787,0.0580322,0.04520403
195821511686154,3.262361,-0.004276057,0.09285152,0.081855945
195821519734115,3.270409,0.0018325958,0.10567969,0.073303826
195821527651077,3.278326,0.021380283,0.076358154,0.019547688
195821535630577,3.286306,0.036651913,0.04642576,-0.020158553
195821543611884,3.294287,0.055588737,0.034208454,-0.03481932
195821551620154,3.302295,0.06414085,0.04520403,-0.013439035
195821559688615,3.310364,0.065973446,0.057421334,0.02443461
195821567589730,3.318265,0.048258353,0.04153884,0.0842994
195821575587000,3.326262,0.031154128,0.017104227,0.12034045
195821583605577,3.334281,0.026267206,0.008552114,0.15271631
195821591631923,3.342307,0.017715093,0.009162978,0.1863139
195821599681230,3.350356,0.012217305,-0.01038471,0.1966986
195821607603846,3.358279,0.01160644,-0.049480084,0.19608775
195821615583269,3.366258,0.018325957,-0.089186326,0.172264
195821623564846,3.374240,0.028099801,-0.0983493,0.13439035
195821631568538,3.382244,0.037873644,-0.10323623,0.07452556
195821639637269,3.390312,0.03176499,-0.09712757,0.021380283
195821647539576,3.398215,0.02076942,-0.07452556,-0.030543262
195821655537961,3.406213,0.01160644,-0.021991149,-0.077579886
195821663560346,3.414235,0.008552114,0.044593163,-0.095294975
195821671583345,3.422258,0.007941248,0.12339478,-0.099571034
195821679634653,3.430310,0.0018325958,0.19058995,-0.08368854
195821687552538,3.438228,-0.01038471,0.17959438,-0.062308256
195821695531345,3.446206,-0.022602014,0.12644911,-0.036651913
195821703509461,3.454184,-0.030543262,0.04642576,-0.002443461
195821711517538,3.462193,-0.028099801,0.010995574,0.02076942
195821719582538,3.470258,-0.019547688,0.002443461,0.051923547
195821727483845,3.478159,-0.015882496,0.0012217305,0.06780604
195821735480153,3.486155,-0.018936822,-0.007330383,0.0720821
195821743482538,3.494158,-0.029321533,-0.03970624,0.05681047
195821751508614,3.502184,-0.039095376,-0.09101892,0.030543262
195821759557037,3.510232,-0.044593163,-0.12889257,-6.1086525E-4
195821767477191,3.518152,-0.035430185,-0.1160644,-0.037873644
195821775456999,3.526132,-0.023823744,-0.06719518,-0.06169739
195821783437807,3.534113,-0.013439035,-0.007941248,-0.084910266
195821791446345,3.542121,-0.0067195175,0.058643065,-0.10873401
195821799515499,3.550190,-0.013439035,0.084910266,-0.11789699
195821807441999,3.558117,-0.019547688,0.09468412,-0.10262536
195821815447037,3.566122,-0.017715093,0.105068825,-0.056199603
195821823433999,3.574109,-0.018325957,0.10629055,-0.0036651916
195821831461345,3.582136,-0.021380283,0.0983493,0.065973446
195821839511422,3.590186,-0.02321288,0.086132,0.1142318
195821847429729,3.598105,-0.023823744,0.076358154,0.14538592
195821855409114,3.606084,-0.015271631,0.0580322,0.1563815
195821863388729,3.614064,-0.004886922,0.02565634,0.1441642
195821871397191,3.622072,0.0018325958,-0.014660766,0.12156218
195821879467191,3.630142,6.1086525E-4,-0.06169739,0.1001819
195821887404075,3.638079,-0.0061086523,-0.07086037,0.09773844
195821895404229,3.646079,-0.019547688,-0.058643065,0.09773844
195821903407960,3.654083,-0.035430185,-0.03848451,0.084910266
195821911435460,3.662110,-0.03176499,-0.01282817,0.06719518
195821919487806,3.670163,-0.018325957,0.03176499,0.034208454
195821927410806,3.678086,-0.007941248,0.06719518,0.015271631
195821935392152,3.686067,0.0036651916,0.10995574,-0.0012217305
195821943373537,3.694049,0.016493361,0.16065755,-0.022602014
195821951381691,3.702057,0.02687807,0.16737708,-0.037873644
195821959450921,3.710126,0.030543262,0.13988814,-0.05131268
195821967352921,3.718028,0.030543262,0.06963864,-0.06169739
195821975349421,3.726024,0.025045475,0.02443461,-0.06963864
195821983360537,3.734036,0.023823744,0.0030543262,-0.08307768
195821991387383,3.742062,0.026267206,-0.020158553,-0.087964594
195821999436037,3.750111,0.012217305,-0.049480084,-0.076358154
195822007353498,3.758028,-0.0061086523,-0.03726278,-0.042760566
195822015333921,3.766009,-0.017104227,0.004276057,-0.007941248
195822023313036,3.773988,-0.025045475,0.03970624,0.009162978
195822031316459,3.781991,-0.030543262,0.048258353,0.005497787
195822039384498,3.790059,-0.029932396,0.028099801,-0.013439035
195822047286536,3.797962,-0.029321533,0.0,-0.036651913
195822055283113,3.805958,-0.022602014,-0.04337143,-0.06047566
195822063296536,3.813972,-0.015271631,-0.057421334,-0.06719518
195822071324113,3.821999,-0.01160644,-0.06658431,-0.06291912
195822079373921,3.830049,-0.010995574,-0.06414085,-0.043982297
195822087292229,3.837967,-0.01038471,-0.049480084,-0.02443461
195822095269536,3.845945,-0.009162978,-0.014049901,-0.01282817
195822103246767,3.853922,-0.0018325958,0.016493361,-0.013439035
195822111253575,3.861929,0.0067195175,0.04642576,-0.021991149
195822119321575,3.869997,0.01282817,0.056199603,-0.048258353
195822127224382,3.877899,0.014049901,0.04520403,-0.07086037
195822135221113,3.885896,0.012217305,0.03359759,-0.081855945
195822143246998,3.893922,-6.1086525E-4,0.017715093,-0.06963864
195822151271651,3.901947,-0.01160644,-0.01282817,-0.04337143
195822159319459,3.909994,-0.014660766,-0.028099801,-0.005497787
195822167236690,3.917912,-0.022602014,-0.017104227,0.06291912
195822175216574,3.925892,-0.028099801,0.005497787,0.10323623
195822183195882,3.933871,-0.040317107,0.03176499,0.12644911
195822191202690,3.941878,-0.04153884,0.048258353,0.11484267
195822199270690,3.949946,-0.032375857,0.061086524,0.09101892
195822207173882,3.957849,-0.02321288,0.0720821,0.050701816
195822215170766,3.965846,-0.02443461,0.07880162,0.02687807
195822223152690,3.973828,-0.028710667,0.087964594,0.018936822
195822231175536,3.981851,-0.036651913,0.09896017,0.020158553
195822239224766,3.989900,-0.03970624,0.10323623,0.02321288
195822247146382,3.997821,-0.03970624,0.09285152,0.017715093
195822255125228,4.005800,-0.03726278,0.07391469,0.004886922
195822263113151,4.013788,-0.032986723,0.062308256,-0.015882496
195822271119536,4.021795,-0.028710667,0.043982297,-0.0421497
195822279193035,4.029868,-0.025045475,-0.0030543262,-0.07696902
195822287095112,4.037770,-0.028099801,-0.028710667,-0.08246681
195822295093651,4.045769,-0.022602014,-0.01282817,-0.06414085
195822303085766,4.053761,-0.014049901,0.012217305,-0.035430185
195822311112420,4.061787,-0.0030543262,0.04153884,-0.0036651916
195822319162805,4.069838,0.01038471,0.06658431,0.03481932
195822327079458,4.077754,0.023823744,0.06352998,0.059253927
195822335059266,4.085734,0.036651913,0.039095376,0.0720821
195822343038497,4.093713,0.03726278,-0.026267206,0.07391469
195822351046612,4.101722,0.03970624,-0.06169739,0.07269296
195822359116227,4.109791,0.03970624,-0.061086524,0.0720821
195822367018266,4.117693,0.039095376,-0.03604105,0.064751714
195822375015727,4.125691,0.047647487,-0.0067195175,0.04642576
195822383017112,4.133692,0.07147124,0.021380283,0.015882496
195822391043766,4.141719,0.07819075,0.02565634,-0.0036651916
195822399094073,4.149769,0.08307768,0.019547688,-0.02076942
195822407017920,4.157693,0.089186326,0.022602014,-0.034208454
195822414996920,4.165672,0.09040806,0.034208454,-0.035430185
195822422976304,4.173651,0.087964594,0.04520403,-0.032375857
195822430985612,4.181661,0.07513642,0.03359759,-0.018936822
195822439053919,4.189729,0.065973446,6.1086525E-4,-0.007941248
195822446956419,4.197631,0.058643065,-0.032986723,0.004886922
195822454952996,4.205628,0.06414085,-0.036651913,0.016493361
195822462962881,4.213638,0.06963864,-0.014049901,0.02565634
195822470988612,4.221664,0.069027774,0.01160644,0.036651913
195822479037535,4.229713,0.06169739,6.1086525E-4,0.039095376
195822486956458,4.237631,0.05681047,-0.026267206,0.028099801
195822494934650,4.245610,0.06352998,-0.064751714,0.007330383
195822502912996,4.253588,0.07086037,-0.0842994,-0.01160644
195822510921188,4.261596,0.07147124,-0.092240654,-0.02443461
195822518988381,4.269663,0.06536258,-0.08674286,-0.042760566
195822526889765,4.277565,0.06169739,-0.07147124,-0.056199603
195822534884573,4.285560,0.06047566,-0.04886922,-0.07452556
195822542898034,4.293573,0.05681047,-0.03176499,-0.09712757
195822550923111,4.301598,0.049480084,-0.020158553,-0.10323623
195822558973419,4.309648,0.03359759,-0.0061086523,-0.099571034
195822566895419,4.317570,0.02443461,0.0067195175,-0.099571034
195822574873650,4.325549,0.017104227,0.015882496,-0.105068825
195822582852380,4.333527,0.010995574,0.02687807,-0.111177474
195822590862034,4.341537,0.014049901,0.028710667,-0.11911872
195822598931419,4.349606,0.02321288,0.029932396,-0.12034045
195822606835034,4.357510,0.028710667,0.0061086523,-0.10934488
195822614833573,4.365509,0.025045475,-0.009162978,-0.09590584
195822622853073,4.373528,0.021991149,-0.014660766,-0.080634214
195822630879726,4.381555,0.029321533,0.005497787,-0.05375614
195822638930303,4.389605,0.02687807,0.018936822,-0.03848451
195822646847996,4.397523,0.026267206,0.017715093,-0.028710667
195822654830573,4.405506,0.02687807,0.015271631,-0.02443461
195822662810457,4.413485,0.028099801,0.018936822,-0.027488936
195822670818072,4.421493,0.02565634,0.004276057,-0.03176499
195822678885957,4.429561,0.022602014,-0.007941248,-0.02687807
195822686807419,4.437482,0.015882496,-0.015882496,-0.02443461
195822694804342,4.445479,0.0018325958,-0.02321288,-0.029932396
195822702788495,4.453463,-0.004886922,-0.023823744,-0.05131268
195822710813957,4.461489,6.1086525E-4,-0.016493361,-0.08674286
195822718862918,4.469538,0.014660766,-0.0067195175,-0.13072516
195822726812188,4.477487,0.017104227,-0.009773844,-0.15271631
195822734790188,4.485465,0.017104227,-0.008552114,-0.15577064
195822742769264,4.493444,0.015882496,0.0036651916,-0.13683382
195822750776726,4.501452,0.009773844,0.009773844,-0.1020145
195822758845226,4.509520,0.005497787,-0.0018325958,-0.061086524
195822766775649,4.517451,0.0018325958,-0.017715093,-0.03176499
195822774775380,4.525450,0.007330383,-0.028099801,-0.004886922
195822782771841,4.533447,0.02565634,-0.03970624,0.02565634
195822790798457,4.541473,0.035430185,-0.05131268,0.042760566
195822798848726,4.549524,0.0421497,-0.061086524,0.055588737
195822806766572,4.557442,0.045814894,-0.07513642,0.059864793
195822814744457,4.565419,0.042760566,-0.09040806,0.055588737
195822822723841,4.573399,0.03848451,-0.096516706,0.050701816
195822830731187,4.581406,0.03176499,-0.09285152,0.045814894
195822838799649,4.589475,0.025045475,-0.07086037,0.03970624
195822846703149,4.597378,0.015271631,-0.03848451,0.028099801
195822854700456,4.605375,0.014049901,-0.030543262,0.016493361
195822862704649,4.613380,0.004276057,-0.03848451,6.1086525E-4
195822870730341,4.621405,6.1086525E-4,-0.040927973,-0.029321533
195822878779725,4.629455,0.0067195175,-0.02565634,-0.050701816
195822886701187,4.637376,0.009162978,-0.008552114,-0.065973446
195822894678379,4.645353,0.01038471,-0.0018325958,-0.06658431
195822902657572,4.653333,0.014660766,6.1086525E-4,-0.04886922
195822910664302,4.661339,0.020158553,0.0067195175,-0.02443461
195822918730841,4.669406,0.02565634,0.010995574,0.009162978
195822926678418,4.677353,0.028099801,0.01160644,0.02076942
195822934674495,4.685349,0.03359759,-0.0061086523,0.01038471
195822942680456,4.693355,0.040317107,-0.02076942,-0.009162978
195822950712725,4.701388,0.04153884,-0.023823744,-0.027488936
195822958760110,4.709435,0.03726278,-0.03481932,-0.028710667
195822966690764,4.717366,0.029932396,-0.045814894,-0.012217305
195822974693187,4.725368,0.02687807,-0.05497787,0.014660766
195822982720610,4.733396,0.028710667,-0.059253927,0.05681047
195822990726648,4.741402,0.027488936,-0.056199603,0.08674286
195822998791610,4.749467,0.02443461,-0.06658431,0.1160644
195823006693494,4.757368,0.025045475,-0.076358154,0.12644911
195823014730571,4.765406,0.03359759,-0.073303826,0.12889257
195823022744917,4.773420,0.040927973,-0.05009095,0.12339478
195823030769725,4.781445,0.04642576,-0.037873644,0.11789699
195823038819148,4.789494,0.054367006,-0.02076942,0.111177474
195823046741648,4.797417,0.056199603,0.0067195175,0.0983493
195823054721456,4.805396,0.05375614,0.026267206,0.07941248
195823062701840,4.813377,0.050701816,0.031154128,0.053145275
195823070710148,4.821385,0.053145275,0.036651913,0.009773844
195823078777417,4.829452,0.05375614,0.044593163,-0.015882496
195823086682802,4.837358,0.05375614,0.05681047,-0.031154128
195823094680994,4.845356,0.048258353,0.059864793,-0.034208454
195823102703994,4.853379,0.039095376,0.05131268,-0.030543262
195823110731225,4.861406,0.022602014,0.03848451,-0.015271631
195823118780609,4.869456,0.010995574,0.036651913,-0.013439035
195823126699686,4.877375,0.008552114,0.02687807,-0.007941248
195823134677917,4.885353,0.004886922,0.012217305,0.002443461
195823142658994,4.893334,0.004886922,0.01282817,0.014049901
195823150667109,4.901342,0.0067195175,0.02076942,0.02687807
195823158739801,4.909415,0.014049901,0.015882496,0.032375857
195823166642147,4.917317,0.020158553,0.010995574,0.022602014
195823174638301,4.925313,0.028710667,0.009773844,0.007941248
195823182625147,4.933300,0.036651913,0.013439035,-0.021991149
195823190652570,4.941328,0.044593163,0.005497787,-0.047036625
195823198701378,4.949376,0.049480084,-0.005497787,-0.07574729
195823206621840,4.957297,0.062308256,-0.01038471,-0.08368854
195823214599455,4.965274,0.06841691,-0.010995574,-0.07941248
195823222579109,4.973254,0.065973446,-0.009162978,-0.05375614
195823230587263,4.981262,0.05497787,-0.012217305,-0.021380283
195823238655493,4.989330,0.044593163,-0.020158553,0.004886922
195823246557916,4.997233,0.040927973,-0.019547688,0.030543262
195823254556147,5.005231,0.03848451,-0.007330383,0.043982297
195823262551762,5.013227,0.030543262,0.014049901,0.04520403
195823270600609,5.021276,0.036651913,0.03848451,0.02687807
195823278648878,5.029324,0.049480084,0.05009095,-6.1086525E-4
195823286565262,5.037240,0.06291912,0.073303826,-0.045814894
195823294543955,5.045219,0.07819075,0.086132,-0.07696902
195823302524647,5.053200,0.086132,0.087964594,-0.1020145
195823310531532,5.061207,0.09101892,0.06841691,-0.11301007
195823318599339,5.069274,0.08307768,0.047647487,-0.10751228
195823326501955,5.077177,0.07513642,0.028710667,-0.089186326
195823334499608,5.085175,0.059253927,0.017104227,-0.055588737
195823342500031,5.093175,0.048258353,0.02443461,-0.029321533
195823350527570,5.101203,0.03604105,0.037873644,-0.010995574
195823358576224,5.109251,0.03176499,0.050701816,6.1086525E-4
195823366499416,5.117174,0.032375857,0.05131268,0.009162978
195823374479954,5.125155,0.03481932,0.03604105,0.022602014
195823382460339,5.133135,0.03726278,0.009162978,0.0421497
195823390468916,5.141144,0.03848451,-0.014049901,0.064751714
195823398538300,5.149213,0.03604105,-0.036651913,0.08246681
195823406442031,5.157117,0.03176499,-0.04886922,0.089186326
195823414443185,5.165118,0.02687807,-0.05375614,0.07941248
195823422454646,5.173130,0.025045475,-0.039095376,0.04642576
195823430482300,5.181157,0.02565634,-0.010995574,0.018936822
195823438532954,5.189208,0.02565634,0.014660766,-0.008552114
195823446451762,5.197127,0.026267206,0.047647487,-0.029932396
195823454431377,5.205106,0.023823744,0.06047566,-0.032986723
195823462410954,5.213086,0.015271631,0.059253927,-0.029321533
195823470417416,5.221092,0.004276057,0.04520403,-0.021991149
195823478483954,5.229159,0.002443461,0.030543262,-0.014660766
195823486386685,5.237062,0.0036651916,0.015271631,-0.0012217305
195823494383839,5.245059,-0.0018325958,0.0030543262,0.01038471
195823502402492,5.253077,0.0,-0.008552114,0.023823744
195823510426338,5.261101,-0.0030543262,-0.03970624,0.049480084
195823518474377,5.269149,-0.002443461,-0.047036625,0.070249505
195823526393685,5.277069,-0.007941248,-0.03970624,0.08735373
195823534370800,5.285046,-0.015882496,-0.029321533,0.081855945
195823542349300,5.293024,-0.021380283,-0.018936822,0.056199603
195823550355723,5.301031,-0.02321288,-0.004886922,0.028710667
195823558421915,5.309097,-0.034208454,0.022602014,-6.1086525E-4
195823566323531,5.316999,-0.039095376,0.043982297,-0.008552114
195823574321415,5.324996,-0.03848451,0.05497787,0.0067195175
195823582349146,5.333024,-0.032375857,0.03848451,0.026267206
195823590372607,5.341048,-0.02321288,-0.0012217305,0.047036625
195823597361723,5.348037,-0.010995574,-0.047647487,0.064751714
195823605278300,5.355953,0.0012217305,-0.07391469,0.0720821
195823613257184,5.363932,0.012217305,-0.06352998,0.06658431
195823621235877,5.371911,0.018936822,-0.040927973,0.056199603
195823629246030,5.379921,0.032375857,-0.010995574,0.04520403
195823637330184,5.388005,0.036651913,0.0,0.03604105
195823645269146,5.395944,0.0421497,-0.007941248,0.02687807
195823653265723,5.403941,0.04520403,-0.02076942,0.010995574
195823661253530,5.411929,0.05009095,-0.021380283,-0.005497787
195823669278722,5.419954,0.054367006,-6.1086525E-4,-0.021380283
195823677328107,5.428003,0.054367006,0.02321288,-0.02443461
195823685248876,5.435924,0.047647487,0.026267206,-0.022602014
195823693227107,5.443902,0.03848451,-0.0018325958,-0.014049901
195823701207453,5.451882,0.037873644,-0.015882496,-0.0061086523
195823709212992,5.459888,0.044593163,-0.015271631,0.0012217305
195823717281068,5.467956,0.047647487,-0.007330383,0.01038471
195823725182838,5.475858,0.05009095,-6.1086525E-4,0.014049901
195823733179415,5.483854,0.05681047,0.014660766,0.009162978
195823741172107,5.491847,0.06536258,0.0421497,-0.0061086523
195823749198376,5.499873,0.07086037,0.05497787,-0.023823744
195823757245607,5.507921,0.076358154,0.064751714,-0.048258353
195823765162914,5.515838,0.08002335,0.06291912,-0.076358154
195823773142299,5.523817,0.077579886,0.05497787,-0.086132
195823781121107,5.531796,0.07391469,0.05681047,-0.09101892
195823789129299,5.539804,0.06536258,0.051923547,-0.089186326
195823797196030,5.547871,0.05497787,0.044593163,-0.086132
195823805131068,5.555806,0.043982297,0.03970624,-0.073303826
195823813127991,5.563803,0.032375857,0.047647487,-0.06169739
195823821162414,5.571837,0.02321288,0.06414085,-0.05375614
195823829196530,5.579872,0.0067195175,0.089186326,-0.049480084
195823837269837,5.587945,0.002443461,0.10995574,-0.049480084
195823845232760,5.595908,0.009773844,0.13255776,-0.05375614
195823853210606,5.603886,0.021991149,0.13927728,-0.056199603
195823861189376,5.611864,0.028099801,0.15210545,-0.04642576
195823869196260,5.619871,0.014660766,0.27366763,0.020158553
195823877269529,5.627945,-6.1086525E-4,0.28038713,0.05131268
195823885216991,5.635892,-0.005497787,0.2125811,0.062308256
195823893214760,5.643890,-0.0012217305,0.15332718,0.06169739
195823901222683,5.651898,-0.0030543262,0.14966199,0.05375614
195823909250183,5.659925,-0.007330383,0.13744467,0.034208454
195823917299645,5.667975,-0.01160644,0.10934488,-0.012217305
195823925217760,5.675893,-0.009162978,0.03726278,-0.07086037
195823933196260,5.683871,0.007941248,-0.028099801,-0.12950343
195823941174683,5.691850,0.036651913,-0.07880162,-0.18570304
195823949180721,5.699856,0.042760566,-0.07880162,-0.19975294
195823957249491,5.707924,0.03848451,-0.0720821,-0.17348573
195823965149491,5.715824,0.03604105,-0.08307768,-0.14172074
195823973145952,5.723821,0.037873644,-0.1020145,-0.100792766
195823981163760,5.731839,0.04337143,-0.122783914,-0.03176499
195823989237952,5.739913,0.043982297,-0.11178834,0.02443461
195823997317106,5.747992,0.03970624,-0.08857546,0.062308256
195824005236914,5.755912,0.03848451,-0.08552113,0.06780604
195824013215221,5.763890,0.030543262,-0.108123146,0.05009095
195824021194490,5.771869,0.004276057,-0.10873401,0.039095376
195824029202798,5.779878,-0.012217305,-0.06169739,0.051923547
195824037272798,5.787948,-0.025045475,-0.004886922,0.07452556
195824045175644,5.795851,-0.030543262,0.05375614,0.093462385
195824053171913,5.803847,-0.022602014,0.076358154,0.100792766
195824061193990,5.811869,-0.012217305,0.077579886,0.10262536
195824069220375,5.819895,0.0067195175,0.057421334,0.1020145
195824077269529,5.827945,0.01160644,0.029321533,0.1001819
195824085186221,5.835861,0.01282817,0.0030543262,0.09712757
195824093164913,5.843840,0.0067195175,-0.032986723,0.093462385
195824101142644,5.851818,0.01160644,-0.05681047,0.09040806
195824109175798,5.859851,0.019547688,-0.077579886,0.08735373
195824117262875,5.867938,0.020158553,-0.07513642,0.08368854
195824125165605,5.875841,0.015882496,-0.07269296,0.07269296
195824133161644,5.883837,-0.0018325958,-0.07574729,0.05009095
195824141142336,5.891817,-0.019547688,-0.08246681,0.029932396
195824149166182,5.899841,-0.03604105,-0.093462385,0.015882496
195824157213798,5.907889,-0.04337143,-0.09468412,0.0067195175
195824165133451,5.915808,-0.040927973,-0.07269296,0.0061086523
195824173111721,5.923787,-0.03176499,-0.047036625,0.005497787
195824181092259,5.931767,-0.014049901,-0.023823744,0.0030543262
195824189100913,5.939776,-0.0036651916,-0.010995574,-0.0018325958
195824197167528,5.947843,0.004276057,-0.009162978,-0.002443461
195824205069759,5.955745,0.005497787,-0.022602014,-0.0030543262
195824213067490,5.963742,0.007941248,-0.039095376,-0.002443461
195824221059643,5.971735,0.009162978,-0.05375614,0.0018325958
195824229084566,5.979760,0.013439035,-0.059864793,0.007330383
195824237190874,5.987866,0.015882496,-0.058643065,0.007330383
195824245186913,5.995862,0.018325957,-0.054367006,-6.1086525E-4
195824253242682,6.003918,0.016493361,-0.05375614,-0.015271631
195824261297643,6.011973,0.015882496,-0.053145275,-0.032986723
195824269333836,6.020009,0.018936822,-0.053145275,-0.047036625
195824277399105,6.028074,0.009773844,-0.04337143,-0.04153884
195824285341989,6.036017,-0.0030543262,-0.03481932,-0.018325957
195824293343297,6.044018,-0.0036651916,-0.032986723,-0.002443461
195824301344643,6.052020,0.0,-0.0421497,0.013439035
195824309371758,6.060047,0.0061086523,-0.0580322,0.03176499
195824317429566,6.068105,0.0061086523,-0.062308256,0.040317107
195824325373143,6.076048,0.01038471,-0.059864793,0.039095376
195824333350566,6.084026,0.02076942,-0.053145275,0.027488936
195824341328681,6.092004,0.026267206,-0.04886922,0.020158553
195824349335105,6.100010,0.029932396,-0.054367006,0.021380283
195824357404104,6.108079,0.030543262,-0.055588737,0.02565634
195824365304412,6.115979,0.039095376,-0.047647487,0.031154128
195824373360104,6.124035,0.042760566,-0.030543262,0.04642576
195824381373566,6.132049,0.034208454,-0.026267206,0.05681047
195824389400989,6.140076,0.02076942,-0.03970624,0.06291912
195824397449797,6.148125,0.01160644,-0.049480084,0.059253927
195824405367643,6.156043,0.007330383,-0.039095376,0.057421334
195824413346604,6.164022,0.0012217305,-0.023823744,0.05497787
195824421325912,6.172001,-0.004276057,-0.010995574,0.04886922
195824429332104,6.180007,-0.0018325958,-0.0036651916,0.045814894
195824437400220,6.188075,0.017104227,0.0030543262,0.042760566
195824445358181,6.196033,0.028099801,0.004886922,0.04153884
195824453386681,6.204062,0.03604105,0.002443461,0.047036625
195824461407258,6.212082,0.03359759,-0.008552114,0.053145275
195824469433219,6.220108,0.027488936,-0.02321288,0.05497787
195824477484450,6.228159,0.014660766,-0.03176499,0.051923547
195824485404027,6.236079,-0.009773844,-0.04886922,0.04642576
195824493382835,6.244058,-0.022602014,-0.059253927,0.050701816
195824501362181,6.252037,-0.035430185,-0.049480084,0.06536258
195824509370258,6.260045,-0.040317107,-0.007330383,0.09101892
195824517437565,6.268113,-0.042760566,0.013439035,0.106901415
195824525339565,6.276015,-0.053145275,0.009162978,0.1282817
195824533372373,6.284047,-0.059253927,0.004276057,0.1337795
195824541398258,6.292073,-0.06047566,0.014660766,0.12767084
195824549428719,6.300104,-0.061086524,0.03176499,0.092240654
195824557482181,6.308157,-0.054367006,0.032375857,0.054367006
195824565399027,6.316074,-0.048258353,0.032375857,0.022602014
195824573376373,6.324051,-0.039095376,0.032986723,-0.002443461
195824581356334,6.332031,-0.032986723,0.029932396,-0.007330383
195824589362450,6.340037,-0.028710667,0.018936822,0.0030543262
195824597429911,6.348105,-0.02076942,0.0061086523,0.027488936
195824605379873,6.356055,-0.019547688,-6.1086525E-4,0.04520403
195824613376796,6.364052,-0.01160644,-0.015271631,0.05375614
195824621364796,6.372040,-0.005497787,-0.037873644,0.05375614
195824629389911,6.380065,0.0,-0.057421334,0.047647487
195824637437950,6.388113,0.009773844,-0.054367006,0.040317107
195824645357488,6.396032,0.017104227,-0.03481932,0.028710667
195824653336488,6.404011,0.029932396,-0.016493361,0.010995574
195824661315680,6.411991,0.045814894,-0.01038471,-0.02321288
195824669322834,6.419998,0.05497787,-0.012217305,-0.04642576
195824677390296,6.428065,0.059864793,-0.026267206,-0.06047566
195824685326526,6.436002,0.06169739,-0.052534413,-0.057421334
195824693324219,6.443999,0.057421334,-0.052534413,-0.04337143
195824701321719,6.451997,0.048258353,-0.04337143,-0.016493361
195824709350065,6.460025,0.043982297,-0.036651913,-0.0012217305
195824717398642,6.468074,0.039095376,-0.03481932,0.0030543262
195824725316795,6.475992,0.03848451,-0.03604105,-0.0067195175
195824733295988,6.483971,0.037873644,-0.03848451,-0.03176499
195824741275334,6.491950,0.03604105,-0.040317107,-0.061086524
195824749282257,6.499957,0.028099801,-0.022602014,-0.096516706
195824757354988,6.508030,0.021991149,0.008552114,-0.115453534
195824765295872,6.515971,0.018936822,0.035430185,-0.12156218
195824773293603,6.523969,0.004886922,0.05497787,-0.11301007
195824781297103,6.531972,-0.002443461,0.061086524,-0.11056661
195824789323218,6.539998,-0.005497787,0.062308256,-0.1160644
195824797371257,6.548046,-0.0030543262,0.065973446,-0.13194689
195824805292603,6.555968,-0.0012217305,0.0580322,-0.15699236
195824813271487,6.563946,-0.005497787,0.03481932,-0.19975294
195824821251487,6.571926,-0.0012217305,0.03726278,-0.2302962
195824829258757,6.579934,0.0067195175,0.037873644,-0.24801129
195824837327756,6.588003,0.012217305,0.05131268,-0.2510656
195824845280256,6.595955,0.017104227,0.06963864,-0.23396139
195824853279872,6.603955,0.021991149,0.08002335,-0.21868975
195824861292218,6.611967,0.044593163,0.059864793,-0.20463985
195824869319756,6.619995,0.06719518,0.040927973,-0.19792034
195824877367872,6.628043,0.09468412,0.02443461,-0.18936823
195824885285987,6.635961,0.112399206,0.015882496,-0.1777618
195824893263987,6.643939,0.13439035,0.014660766,-0.16554448
195824901242449,6.651917,0.15271631,0.030543262,-0.15088372
195824909250756,6.659926,0.16798794,0.0421497,-0.13439035
195824917319910,6.667995,0.17898351,0.056199603,-0.1142318
195824925222948,6.675898,0.18387043,0.0842994,-0.08674286
195824933221525,6.683897,0.18387043,0.111177474,-0.06841691
195824941242295,6.691917,0.17898351,0.12461651,-0.054367006
195824949271295,6.699946,0.15577064,0.12583824,-0.04153884
195824957321256,6.707996,0.13316862,0.12583824,-0.026267206
195824965242602,6.715918,0.10140363,0.12461651,-6.1086525E-4
195824973223371,6.723898,0.080634214,0.122783914,0.020158553
195824981204641,6.731880,0.06352998,0.11728613,0.03848451
195824989212987,6.739888,0.039095376,0.09285152,0.040927973
195824997282987,6.747958,0.025045475,0.06963864,0.019547688
195825005186525,6.755862,0.019547688,0.04886922,-0.01160644
195825013192525,6.763868,0.017715093,0.044593163,-0.0580322
195825021223294,6.771898,0.009162978,0.05375614,-0.09162979
195825029247525,6.779923,0.0012217305,0.07269296,-0.12034045
195825037298217,6.787973,-0.0036651916,0.092240654,-0.14538592
195825045217563,6.795893,-0.01038471,0.1001819,-0.14721853
195825053197640,6.803873,-0.015882496,0.118507855,-0.1386664
195825061177756,6.811853,-0.02687807,0.14110987,-0.13316862
195825069186833,6.819862,-0.03481932,0.15210545,-0.13561209
195825077255602,6.827931,-0.03604105,0.14844026,-0.14538592
195825085159409,6.835834,-0.028710667,0.14172074,-0.15088372
195825093157756,6.843833,-0.018325957,0.13561209,-0.15821409
195825101139909,6.851815,0.007330383,0.1282817,-0.15088372
195825109168871,6.859844,0.02321288,0.111177474,-0.13500121
195825117220948,6.867896,0.032986723,0.087964594,-0.11301007
195825125141717,6.875817,0.051923547,0.049480084,-0.09101892
195825133122409,6.883797,0.059253927,0.02443461,-0.08735373
195825141101871,6.891777,0.06536258,0.0036651916,-0.092240654
195825149111063,6.899786,0.08002335,-0.004886922,-0.10934488
195825157178986,6.907854,0.09896017,-0.0030543262,-0.11911872
195825165082409,6.915757,0.12461651,0.014660766,-0.1142318
195825173080640,6.923756,0.14110987,0.032986723,-0.099571034
195825181074178,6.931749,0.15760323,0.04520403,-0.0842994
195825189102371,6.939777,0.18875736,0.052534413,-0.07819075
195825197152332,6.947827,0.21868975,0.032986723,-0.093462385
195825205169255,6.955844,0.24740042,0.01282817,-0.122783914
195825213148370,6.963823,0.2761111,0.018325957,-0.15760323
195825221164909,6.971840,0.28893927,0.027488936,-0.16432275
195825229173832,6.979849,0.28955013,0.06780604,-0.1441642
195825237242409,6.987917,0.2779437,0.12583824,-0.10323623
195825245144370,6.995819,0.2657264,0.19242255,-0.03970624
195825253142063,7.003817,0.23945917,0.25961772,0.062308256
195825261140024,7.011815,0.18936823,0.27183503,0.13927728
195825269170639,7.019846,0.13805555,0.258396,0.18448131
195825277220370,7.027895,0.112399206,0.20952678,0.17898351
195825285140024,7.035815,0.12583824,0.20097467,0.1441642
195825293118870,7.043794,0.1459968,0.25534168,0.10445796
195825301099024,7.051774,0.15821409,0.34880406,0.05681047
195825309101178,7.059776,0.18753563,0.36957347,0.036651913
195825317169293,7.067844,0.1826487,0.34330627,0.056199603
195825325072601,7.075748,0.12156218,0.2724459,0.1020145
195825333069562,7.083745,0.03481932,0.15577064,0.15332718
195825341074908,7.091750,-0.04337143,0.19425514,0.22052236
195825349097639,7.099773,-0.07574729,0.41538838,0.24129178
195825357147139,7.107822,-0.10567969,0.75502944,0.20769419
195825365063908,7.115739,-0.16982053,1.2705997,0.053145275
195825373045408,7.123720,-0.23579398,1.5900823,-0.10751228
195825381024293,7.131699,-0.28955013,1.7965547,-0.28405234
195825389007908,7.139683,-0.34025195,1.8777997,-0.5143485
195825397074754,7.147750,-0.38423425,1.7745636,-0.64996064
195825404976793,7.155652,-0.41233405,1.536326,-0.72692966
195825412974870,7.163650,-0.42394048,1.10139,-0.7519751
195825420987639,7.171663,-0.42455134,0.75441855,-0.7489208
195825428990831,7.179666,-0.42760566,0.34208453,-0.66889745
195825437039062,7.187714,-0.43554693,0.24678956,-0.54244834
195825444975254,7.195650,-0.42210788,0.20891592,-0.3744604
195825452965946,7.203641,-0.46609017,0.1423316,-0.15271631
195825460945985,7.211621,-0.5864306,0.077579886,-0.004886922
195825468941100,7.219616,-0.7666359,-0.013439035,0.062308256
195825477016369,7.227691,-0.9120218,-0.20586158,0.016493361
195825484919600,7.235595,-0.816116,-0.3286455,-0.13316862
195825492918139,7.243593,-0.589485,-0.31398472,-0.39095375
195825500943831,7.251619,-0.25167647,-0.01282817,-0.752586
195825508947600,7.259623,-0.0720821,0.23884831,-0.9370673
195825516997292,7.267672,-0.0036651916,0.31398472,-1.1038336
195825524914985,7.275590,-0.059253927,0.18387043,-1.205848
195825532893754,7.283569,-0.1441642,0.03481932,-1.2681563
195825540873754,7.291549,-0.22724187,-0.07086037,-1.2834278
195825548858831,7.299534,-0.24740042,-0.069027774,-1.2516629
195825556926023,7.307601,-0.24251351,-0.028710667,-1.1942415
195825564834715,7.315510,-0.26389378,0.005497787,-1.0830641
195825572833600,7.323509,-0.29871312,-0.0067195175,-0.9779953
195825580818638,7.331494,-0.32803464,-0.04337143,-0.86620694
195825588830715,7.339506,-0.3378085,-0.1441642,-0.72021013
195825596880446,7.347555,-0.2968805,-0.3042109,-0.6236934
195825604803523,7.355479,-0.20708331,-0.59803706,-0.54000485
195825612783138,7.363458,-0.13194689,-0.8258898,-0.52106804
195825620765100,7.371440,-0.049480084,-1.0836749,-0.5204572
195825628769869,7.379445,0.06780604,-1.5937474,-0.44715336
195825636839215,7.387514,0.052534413,-1.8967366,-0.3622431
195825644749215,7.395424,-0.002443461,-2.0635028,-0.2773328
195825652747984,7.403423,-0.021380283,-2.1630738,-0.15210545
195825660736369,7.411411,-0.03604105,-2.08977,-0.06169739
195825668761676,7.419437,-0.069027774,-1.7880026,-0.051923547
195825676812946,7.427488,-0.15821409,-1.1227703,-0.21746802
195825684732407,7.435407,-0.18081611,-0.5290093,-0.32803464
195825692711830,7.443387,-0.0983493,-0.09896017,-0.33658674
195825700692022,7.451367,0.018325957,0.16126843,-0.29138273
195825708686599,7.459362,0.02687807,0.22540927,-0.2406809
195825716753984,7.467429,0.019547688,0.19914207,-0.12644911
195825724665715,7.475341,0.026267206,0.08124508,-0.021380283
195825732663445,7.483338,0.032375857,-0.061086524,0.08735373
195825740665522,7.491341,0.047647487,-0.25961772,0.27550024
195825748678291,7.499353,0.076358154,-0.344528,0.4538729
195825756726830,7.507402,0.10262536,-0.35918877,0.6236934
195825764648253,7.515323,0.15149458,-0.37812558,0.6273586
195825772626214,7.523301,0.20158553,-0.54367006,0.5131268
195825780606330,7.531281,0.2687807,-0.78801614,0.39828414
195825788604137,7.539279,0.30665436,-0.87781334,0.28588495
195825796671599,7.547347,0.30176744,-0.76174897,0.26083946
195825804620253,7.555295,0.2669481,-0.52473325,0.258396
195825812618368,7.563293,0.2302962,-0.37201694,0.22968534
195825820628830,7.571304,0.19914207,-0.30298916,0.18692477
195825828653983,7.579329,0.16737708,-0.35430184,0.14172074
195825836702445,7.587377,0.1459968,-0.42332962,0.14477506
195825844618022,7.595293,0.11484267,-0.44776422,0.15027285
195825852595291,7.603270,0.07696902,-0.4166101,0.21074851
195825860639868,7.611315,0.044593163,-0.3744604,0.26816985
195825868655368,7.619330,-0.01282817,-0.3481932,0.2968805
195825876720368,7.627395,-0.087964594,-0.38545597,0.2950479
195825884635329,7.635310,-0.12034045,-0.4605924,0.3036
195825892705291,7.643380,-0.124005646,-0.48197266,0.31887165
195825900799483,7.651474,-0.100792766,-0.37568212,0.30848694
195825908874483,7.659549,-0.06169739,-0.20830505,0.27672195
195825916922252,7.667597,-0.051923547,0.004276057,0.21135938
195825924856368,7.675531,-0.086132,0.1740966,0.11728613
195825932833483,7.683508,-0.12522738,0.38056904,-0.028099801
195825940812983,7.691488,-0.17165314,0.6206391,-0.29016098
195825948808752,7.699484,-0.18753563,0.6988298,-0.48380527
195825956875637,7.707551,-0.22540927,0.65179324,-0.61086524
195825964817060,7.715492,-0.2602286,0.5552765,-0.5766568
195825972815329,7.723490,-0.30726522,0.39706242,-0.46670106
195825980794137,7.731469,-0.24801129,0.12522738,-0.22357668
195825988796637,7.739472,-0.06841691,-0.01038471,-0.02443461
195825996843752,7.747519,0.105068825,0.042760566,0.12461651
195826004760637,7.755436,0.2773328,0.24801129,0.16126843
195826012738560,7.763414,0.27183503,0.40378192,0.050701816
195826020716906,7.771392,0.17654006,0.40866885,-0.13561209
195826028702213,7.779377,0.04520403,0.18753563,-0.37140608
195826036769752,7.787445,0.058643065,-0.03176499,-0.42943826
195826044673867,7.795349,0.21074851,-0.22357668,-0.4111123
195826052672598,7.803348,0.40194935,-0.24923302,-0.30848694
195826060666444,7.811341,0.47158796,-0.15760323,-0.25411993
195826068681636,7.819357,0.4831944,0.017715093,-0.27672195
195826076732406,7.827407,0.46303585,0.11178834,-0.33536503
195826084653598,7.835329,0.45570546,0.11056661,-0.37323865
195826092632021,7.843307,0.45875978,-0.13683382,-0.3585779
195826100611444,7.851286,0.44409904,-0.44715336,-0.26450464
195826108596829,7.859272,0.41783184,-0.65118235,-0.13439035
195826116666059,7.867341,0.24617869,-0.5314528,-0.15882497
195826124569290,7.875244,-0.10445796,-0.19914207,-0.46792278
195826132565867,7.883241,-0.40500367,0.1826487,-0.6658431
195826140565598,7.891241,-0.43493605,0.22540927,-0.6072
195826148574136,7.899249,-0.47525316,0.18142697,-0.5546656
195826156623521,7.907299,-0.6059783,0.1826487,-0.46975538
195826164541444,7.915216,-0.69027776,0.16371189,-0.3707952
195826172521367,7.923196,-0.73364913,0.14905111,-0.26450464
195826180501867,7.931177,-0.7122689,0.11911872,-0.13072516
195826188488059,7.939163,-0.6579019,0.11484267,-0.021380283
195826196555213,7.947230,-0.5882632,0.15577064,0.070249505
195826204457059,7.955132,-0.52412236,0.17348573,0.20219639
195826212454405,7.963129,-0.43860126,0.20891592,0.26145032
195826220459636,7.971135,-0.26816985,0.19730948,0.29077184
195826228463982,7.979139,-0.032375857,0.18936823,0.32070425
195826236512713,7.987188,0.09285152,0.15882497,0.31520647
195826244434136,7.995109,0.1881465,0.086132,0.2761111
195826252414059,8.003089,0.2003638,0.06047566,0.23518312
195826260395059,8.011070,0.17654006,0.044593163,0.17959438
195826268390828,8.019066,0.13255776,0.015882496,0.0842994
195826276460866,8.027136,0.1142318,-6.1086525E-4,0.009773844
195826284363905,8.035039,0.12461651,-0.0421497,-0.044593163
195826292362636,8.043038,0.12583824,-0.17470746,-0.08246681
195826300379712,8.051055,0.12705997,-0.27366763,-0.115453534
195826308403212,8.059078,0.13500121,-0.29871312,-0.13561209
195826316452674,8.067128,0.1423316,-0.21197024,-0.13744467
195826324369828,8.075045,0.12339478,-0.1142318,-0.10873401
195826332348635,8.083024,0.1001819,-0.019547688,-0.07391469
195826340328020,8.091003,0.051923547,-0.020158553,-0.021991149
195826348335097,8.099010,0.028099801,-0.13255776,-0.01282817
195826356408981,8.107084,0.048258353,-0.28344148,-0.03604105
195826364311981,8.114987,0.1020145,-0.34147367,-0.0580322
195826372310366,8.122985,0.17470746,-0.36163223,-0.076358154
195826380336328,8.131011,0.15149458,-0.2180789,-0.053145275
195826388361789,8.139037,0.10262536,-0.11484267,-0.021380283
195826396411943,8.147087,0.069027774,-0.13805555,0.01282817
195826404333827,8.155009,0.047036625,-0.29810223,0.049480084
195826412314943,8.162990,0.009162978,-0.34697145,0.09712757
195826420294443,8.170969,-0.027488936,-0.321926,0.13500121
195826428303173,8.178978,-0.042760566,-0.2302962,0.1301143
195826436371404,8.187046,-0.010995574,-0.115453534,0.1142318
195826444273750,8.194949,0.06841691,0.007330383,0.07574729
195826452272173,8.202947,0.12034045,0.0018325958,0.05009095
195826460252520,8.210928,0.20219639,-0.09285152,0.040317107
195826468280096,8.218955,0.26145032,-0.10995574,0.03481932
195826476330289,8.227005,0.21868975,-0.004886922,0.031154128
195826484250019,8.234925,0.14905111,0.05681047,0.027488936
195826492229904,8.242905,0.10934488,0.036651913,0.05681047
195826500210827,8.250886,0.108123146,-0.015882496,0.100792766
195826508220404,8.258895,0.12889257,-0.0580322,0.1301143
195826516291404,8.266966,0.11911872,-0.047036625,0.12339478
195826524221135,8.274896,0.048258353,-0.01282817,0.13255776
195826532220173,8.282895,0.043982297,-0.050701816,0.17592919
195826540207596,8.290883,0.12950343,-0.14477506,0.19303341
195826548233635,8.298909,0.19425514,-0.21013765,0.16065755
195826556283942,8.306959,0.13194689,-0.13072516,0.10873401
195826564207442,8.314882,0.059864793,-0.06536258,0.08979719
195826572187096,8.322862,0.020158553,-0.022602014,0.08552113
195826580167711,8.330843,0.06352998,-0.007941248,0.0720821
195826588175634,8.338851,0.23273966,-0.05497787,0.052534413
195826596245865,8.346921,0.36041048,-0.05681047,0.040927973
195826604179019,8.354854,0.34513888,0.05681047,0.052534413
195826612182634,8.362858,0.23579398,0.13988814,0.058643065
195826620182365,8.370857,0.05497787,0.16065755,0.059864793
195826628205365,8.378880,-0.05681047,0.13683382,0.0720821
195826636255634,8.386931,-0.09712757,0.12095132,0.07941248
195826644173942,8.394849,-0.042760566,0.115453534,0.0580322
195826652153288,8.402828,0.023823744,0.10629055,0.03481932
195826660134519,8.410810,0.10873401,0.08857546,0.0067195175
195826668143288,8.418818,0.08368854,0.02076942,-0.03604105
195826676213942,8.426889,0.0012217305,-0.014660766,-0.028099801
195826684153980,8.434829,-0.07513642,-0.021991149,-0.007330383
195826692154211,8.442829,-0.044593163,-0.10262536,0.002443461
195826700158596,8.450834,-0.014049901,-0.103847094,-0.009773844
195826708180865,8.458856,0.026267206,-0.027488936,-0.028099801
195826716231595,8.466907,0.044593163,0.0061086523,-0.057421334
195826724152172,8.474827,0.02443461,0.054367006,-0.07819075
195826732130980,8.482806,-0.01282817,0.17531833,-0.07574729
195826740109442,8.490784,-0.021991149,0.25717425,-0.06963864
195826748110788,8.498786,-0.019547688,0.2968805,-0.070249505
195826756177634,8.506853,-0.0580322,0.2510656,-0.09407325
195826764127788,8.514803,-0.092240654,0.15088372,-0.10995574
195826772143095,8.522818,-0.12889257,0.05009095,-0.10445796
195826780161711,8.530837,-0.172264,-0.056199603,-0.081855945
195826788187364,8.538862,-0.19303341,-0.12461651,-0.077579886
195826796247634,8.546923,-0.2144137,-0.16493362,-0.065973446
195826804165057,8.554840,-0.21074851,-0.18448131,-0.040927973
195826812142710,8.562818,-0.19425514,-0.19914207,-0.023823744
195826820122826,8.570798,-0.13500121,-0.14355333,-0.04153884
195826828129749,8.578805,0.008552114,-0.13927728,-0.045814894
195826836196710,8.586872,0.09896017,-0.04886922,0.009162978
195826844097710,8.594773,0.077579886,0.10567969,0.053145275
195826852093556,8.602769,-0.02565634,0.1160644,0.034208454
195826860119864,8.610795,-0.14844026,0.05009095,-0.013439035
195826868152095,8.618827,-0.1459968,-0.0580322,-0.03359759
195826876200749,8.626876,-0.10567969,-0.059864793,-0.036651913
195826884120210,8.634795,-0.06047566,-0.05131268,-0.06169739
195826892110518,8.642786,-0.03604105,-0.059864793,-0.089186326
195826900106441,8.650781,-0.053145275,-0.049480084,-0.08002335
195826908112249,8.658787,-0.092240654,-0.023823744,-0.047647487
195826916179018,8.666854,-0.0983493,-0.018325957,-0.05375614
195826924080133,8.674755,-0.092240654,-0.009162978,-0.086132
195826932075595,8.682751,-0.076358154,0.052534413,-0.1001819
195826940103595,8.690779,-0.05131268,0.10323623,-0.08674286
195826948125056,8.698800,-0.03359759,0.119729586,-0.077579886
195826956172595,8.706848,-0.0421497,0.14172074,-0.06658431
195826964089171,8.714764,-0.05375614,0.16249016,-0.035430185
195826972069825,8.722745,-0.07086037,0.1001819,0.01160644
195826980050056,8.730725,-0.09101892,0.028099801,0.023823744
195826988058633,8.738734,-0.105068825,0.014049901,0.025045475
195826996126517,8.746802,-0.100792766,0.064751714,0.027488936
195827004029556,8.754705,-0.08246681,0.1001819,0.02321288
195827012026633,8.762702,-0.06169739,0.112399206,0.009773844
195827020016287,8.770691,-0.03176499,0.11178834,-0.014049901
195827028040940,8.778716,-0.02443461,0.111177474,-0.008552114
195827036090248,8.786765,-0.0018325958,0.09712757,0.0030543262
195827044010902,8.794686,0.08735373,0.14844026,-0.014660766
195827051990940,8.802666,0.04153884,0.23335053,-0.056199603
195827059970594,8.810646,-0.0036651916,0.26816985,-0.10567969
195827067974633,8.818650,-0.023823744,0.28099802,-0.16065755
195827076049363,8.826724,-0.025045475,0.30298916,-0.18081611
195827083952056,8.834627,-0.030543262,0.32620203,-0.16554448
195827091949594,8.842625,0.029932396,0.29077184,-0.11484267
195827099949979,8.850625,0.06780604,0.25228736,-0.043982297
195827107974094,8.858649,0.18936823,0.20525073,0.039095376
195827116022132,8.866697,0.15149458,0.20463985,0.0036651916
195827123940440,8.874615,0.07941248,0.1966986,-6.1086525E-4
195827131918594,8.882594,-0.06536258,0.19547687,0.02565634
195827139897478,8.890572,-0.14538592,0.18509217,0.021380283
195827147904325,8.898579,-0.15393804,0.18570304,0.0580322
195827155971555,8.906647,-0.15271631,0.20769419,0.12767084
195827163873517,8.914549,-0.14782938,0.15454891,0.15882497
195827171871901,8.922547,-0.14294247,0.03359759,0.15699236
195827179880901,8.930556,-0.13805555,-0.025045475,0.1423316
195827187909132,8.938584,-0.1386664,-0.034208454,0.12767084
195827195959324,8.946634,-0.1160644,0.009162978,0.08674286
195827203882171,8.954557,-0.07819075,0.07269296,0.03176499
195827211863401,8.962538,-0.047036625,0.14172074,-0.021991149
195827219844863,8.970520,-0.028099801,0.1826487,-0.073303826
195827227848863,8.978524,-0.027488936,0.18387043,-0.11178834
195827235918978,8.986594,-0.02076942,0.20280726,-0.13805555
195827243823170,8.994498,-0.014660766,0.1826487,-0.13500121
195827251821709,9.002497,-0.015882496,0.12767084,-0.11178834
195827259834709,9.010510,-0.0018325958,0.05681047,-0.100792766
195827267884016,9.018559,0.021991149,0.034208454,-0.106901415
195827275932709,9.026608,0.048258353,0.02687807,-0.09285152
195827283852632,9.034528,0.084910266,0.018936822,-0.03848451
195827291832170,9.042507,0.10140363,0.009162978,0.014660766
195827299813862,9.050489,0.115453534,-0.04520403,0.06536258
195827307822093,9.058497,0.09773844,-0.18692477,0.15515977
195827315890747,9.066566,0.06719518,-0.32070425,0.2302962
195827323795593,9.074471,0.05497787,-0.3567453,0.2657264
195827331795362,9.082470,0.05681047,-0.28771752,0.28527406
195827339819824,9.090495,0.04642576,-0.26328292,0.27916542
195827347835785,9.098511,0.021991149,-0.20952678,0.24495697
195827355887555,9.106563,0.016493361,-0.16554448,0.18142697
195827363811516,9.114487,-0.004886922,-0.11728613,0.13683382
195827371792516,9.122468,-0.047036625,-0.07147124,0.11789699
195827379773054,9.130448,-0.07452556,-0.05375614,0.100792766
195827387774324,9.138449,-0.09590584,-0.007330383,0.06047566
195827395842054,9.146517,-0.12095132,0.086132,-0.0018325958
195827403763054,9.154438,-0.13988814,0.14172074,-0.043982297
195827411760939,9.162436,-0.15393804,0.15149458,-0.092240654
195827419748439,9.170423,-0.1600467,0.1160644,-0.15943582
195827427771477,9.178446,-0.16065755,0.07819075,-0.1777618
195827435821400,9.186496,-0.13133603,0.06658431,-0.15210545
195827443739362,9.194414,-0.12644911,0.0842994,-0.1001819
195827451717400,9.202392,-0.12522738,0.0421497,-0.19242255
195827459696208,9.210371,-0.22418754,0.081855945,-0.13622294
195827467692939,9.218368,-0.23884831,0.03604105,-0.10751228
195827475761477,9.226436,-0.22418754,0.0,-0.10751228
195827483690131,9.234365,-0.19608775,-0.0036651916,-0.09468412
195827491687631,9.242363,-0.17348573,-0.028710667,-0.06780604
195827499680592,9.250356,-0.1563815,-0.062308256,-0.036651913
195827507705592,9.258381,-0.1160644,-0.116675265,-0.0421497
195827515756285,9.266431,-0.093462385,-0.118507855,-0.0580322
195827523678862,9.274354,-0.099571034,-0.099571034,-0.036651913
195827531657977,9.282333,-0.122783914,-0.1001819,-0.0061086523
195827539637862,9.290313,-0.14110987,-0.09773844,-0.0036651916
195827547644785,9.298320,-0.15027285,-0.07269296,-0.007941248
195827555712708,9.306388,-0.1685988,-0.059253927,0.01160644
195827563730477,9.314405,-0.18875736,-0.059864793,0.02565634
195827571729323,9.322404,-0.20830505,-0.076358154,0.01160644
195827579727938,9.330403,-0.22479841,-0.0720821,0.01038471
195827587751169,9.338426,-0.23884831,-0.057421334,0.026267206
195827595801092,9.346476,-0.2565634,-0.06719518,0.029321533
195827603720477,9.354395,-0.26206118,-0.070249505,6.1086525E-4
195827611700977,9.362376,-0.26511553,-0.03481932,-0.023823744
195827619681630,9.370357,-0.27550024,-0.053145275,-0.030543262
195827627688630,9.378364,-0.2828306,-0.096516706,-0.047647487
195827635756861,9.386432,-0.28099802,-0.09896017,-0.086132
195827643658861,9.394334,-0.29016098,-0.07941248,-0.10262536
195827651654938,9.402330,-0.30298916,-0.089186326,-0.09468412
195827659660207,9.410335,-0.30787608,-0.11362094,-0.087964594
195827667682976,9.418358,-0.30543262,-0.13988814,-0.10629055
195827675731669,9.426407,-0.30115658,-0.1685988,-0.12461651
195827683651246,9.434326,-0.3323107,-0.21624629,-0.11178834
195827691627515,9.442303,-0.36957347,-0.20219639,-0.10140363
195827699606169,9.450281,-0.39095375,-0.10934488,-0.12034045
195827707613861,9.458289,-0.20341812,0.051923547,-0.12156218
195827715680207,9.466355,0.029321533,0.21685717,-0.0061086523
195827723582476,9.474257,0.14966199,0.28893927,-0.11789699
195827731628015,9.482303,0.16249016,0.23579398,-0.18997909
195827739642322,9.490317,0.14355333,0.13439035,-0.2669481
195827747666938,9.498342,0.06414085,0.081855945,-0.42760566
195827755724861,9.506400,-0.014049901,0.11362094,-0.52412236
195827763643015,9.514318,-0.09712757,0.19914207,-0.5815437
195827771621822,9.522297,-0.15210545,0.3866777,-0.57360244
195827779601284,9.530276,-0.13988814,0.5357288,-0.5039638
195827787596745,9.538272,-0.10873401,0.5925393,-0.42943826
195827795665053,9.546340,-0.021991149,0.37690386,-0.30848694
195827803607476,9.554282,0.054367006,0.16615535,-0.22357668
195827811606245,9.562281,0.12217305,-0.1777618,-0.040927973
195827819626976,9.570302,0.124005646,-0.33108896,0.08552113
195827827629745,9.578305,0.07819075,-0.3042109,0.18570304
195827835677322,9.586352,-0.0421497,-0.17104226,0.29932398
195827843596745,9.594272,-0.15027285,-0.10873401,0.3659083
195827851575707,9.602251,-0.2669481,-0.09162979,0.37995818
195827859555553,9.610231,-0.39095375,-0.22235495,0.3323107
195827867550206,9.618225,-0.4392121,-0.226631,0.24801129
195827875618130,9.626293,-0.4709771,-0.20280726,0.18081611
195827883520399,9.634195,-0.45814893,-0.19364429,0.13439035
195827891519937,9.642195,-0.42332962,-0.18875736,0.12034045
195827899504476,9.650179,-0.36285394,-0.19058995,0.14905111
195827907531706,9.658207,-0.31215215,-0.21502456,0.16982053
195827915580783,9.666256,-0.25473082,-0.26267207,0.16065755
195827923498245,9.674173,-0.1826487,-0.25350907,0.0983493
195827931476129,9.682151,-0.122783914,-0.23335053,0.07941248
195827939456437,9.690131,-0.06963864,-0.17715092,0.06414085
195827947463398,9.698138,-0.021380283,-0.08307768,0.021991149
195827955532398,9.706207,-0.0030543262,-0.070249505,0.002443461
195827963433321,9.714108,-0.0018325958,-0.116675265,0.025045475
195827971459898,9.722135,-0.032375857,-0.15882497,0.09896017
195827979497398,9.730172,-0.07880162,-0.16798794,0.14966199
195827987510437,9.738185,-0.09040806,-0.17470746,0.20830505
195827995558668,9.746234,-0.06841691,-0.14049901,0.23335053
195828003478514,9.754154,-0.032986723,-0.12217305,0.23151793
195828011456629,9.762132,0.0012217305,-0.15943582,0.19792034
195828019434590,9.770110,-0.025045475,-0.16737708,0.17348573
195828027430937,9.778106,-0.081855945,-0.111177474,0.14721853
195828035499014,9.786174,-0.1423316,-0.070249505,0.089186326
195828043401167,9.794076,-0.1685988,-0.06780604,0.042760566
195828051398975,9.802074,-0.20586158,-0.029321533,0.03481932
195828059400513,9.810076,-0.25473082,-0.019547688,0.040927973
195828067423398,9.818098,-0.27488935,-0.07574729,0.028710667
195828075471590,9.826147,-0.25900686,-0.1600467,-0.03848451
195828083387783,9.834063,-0.22724187,-0.08368854,-0.12034045
195828091364744,9.842040,-0.1966986,0.095294975,-0.22724187
195828099341321,9.850016,-0.13439035,0.25534168,-0.37934732
195828107347167,9.858022,-0.13072516,0.36041048,-0.45875978
195828115413552,9.866089,-0.13561209,0.4783075,-0.47769663
195828123316552,9.873992,-0.1441642,0.5180137,-0.44959682
195828131313013,9.881988,-0.15454891,0.49235737,-0.4361578
195828139317205,9.889992,-0.15210545,0.43493605,-0.45142943
195828147331667,9.898007,-0.119729586,0.4147775,-0.4905248
195828155380513,9.906056,-0.100792766,0.41233405,-0.49418998
195828163302436,9.913977,-0.06169739,0.3371976,-0.47158796
195828171280475,9.921955,-0.05497787,0.25778514,-0.4196644
195828179260128,9.929935,-0.076358154,0.18325958,-0.3359759
195828187244744,9.937920,-0.1160644,0.10995574,-0.21685717
195828195312974,9.945988,-0.13072516,0.059253927,-0.1685988
195828203215244,9.953890,-0.1301143,0.03359759,-0.1337795
195828211220821,9.961896,-0.119729586,0.0067195175,-0.08246681
195828219240667,9.969916,-0.08246681,-0.03604105,-0.05009095
195828227243244,9.977918,-0.0421497,-0.11301007,-0.01038471
195828235291282,9.985966,-0.015882496,-0.22907446,0.077579886
195828243206436,9.993881,0.008552114,-0.3042109,0.14172074
195828251184859,10.001860,0.049480084,-0.3494149,0.18936823
195828259164974,10.009840,0.112399206,-0.30298916,0.21624629
195828267149166,10.017824,0.1740966,-0.22540927,0.18448131
195828275216513,10.025892,0.24495697,-0.172264,0.13194689
195828283118320,10.033793,0.26633725,-0.17104226,0.12950343
195828291116551,10.041792,0.27855456,-0.15515977,0.11484267
195828299096359,10.049771,0.3042109,-0.023823744,0.07574729
195828307109859,10.057785,0.34391713,0.1001819,0.08246681
195828315158589,10.065834,0.31581733,0.059864793,0.07513642
195828323078435,10.073753,0.18448131,-0.0061086523,0.049480084
195828331062128,10.081737,0.1282817,-0.004276057,0.04520403
195828339042474,10.089717,0.07880162,0.03848451,0.03481932
195828347037397,10.097712,0.032375857,0.05131268,0.032986723
195828355105935,10.105781,0.016493361,0.02321288,0.028099801
195828363008935,10.113684,0.018325957,-0.015271631,0.014660766
195828371006820,10.121682,0.03726278,-0.010995574,0.03848451
195828378992512,10.129668,0.048258353,-0.016493361,0.087964594
195828387005781,10.137681,0.06658431,-0.08368854,0.108123146
195828395054435,10.145729,0.07147124,-0.093462385,0.12461651
195828402972935,10.153648,0.07941248,-0.055588737,0.15027285
195828410953435,10.161628,0.1142318,-0.040317107,0.15149458
195828418934127,10.169609,0.14782938,-0.05497787,0.14172074
195828426937820,10.177613,0.16249016,-0.0983493,0.13927728
195828435007127,10.185682,0.17531833,-0.095294975,0.1685988
195828442942397,10.193617,0.18325958,-0.056199603,0.1881465
195828450939358,10.201614,0.1966986,0.014049901,0.17959438
195828458934666,10.209610,0.20952678,0.10567969,0.1386664
195828466965281,10.217640,0.19792034,0.13622294,0.11301007
195828475015281,10.225690,0.20586158,0.19242255,0.064751714
195828482935550,10.233611,0.22052236,0.23273966,-0.0012217305
195828490914627,10.241590,0.2302962,0.26206118,-0.040317107
195828498894281,10.249569,0.19608775,0.25289822,-0.023823744
195828506901089,10.257576,0.1441642,0.22540927,0.01038471
195828514968627,10.265644,0.09285152,0.19975294,0.061086524
195828522902973,10.273578,0.04886922,0.17531833,0.1423316
195828530899127,10.281574,0.03359759,0.14172074,0.20525073
195828538900858,10.289576,0.03970624,0.09468412,0.23090707
195828546935858,10.297611,0.06719518,0.04153884,0.17898351
195828554999704,10.305675,0.07880162,0.040317107,0.116675265
195828562916088,10.313591,0.080634214,0.032986723,0.03726278
195828570896588,10.321572,0.07513642,0.020158553,-0.007941248
195828578877204,10.329552,0.065973446,0.022602014,-0.014049901
195828586879934,10.337555,0.084910266,0.018936822,0.016493361
195828594947934,10.345623,0.10873401,0.015882496,0.048258353
195828602912127,10.353587,0.15149458,0.023823744,0.070249505
195828610910319,10.361585,0.21685717,0.035430185,0.06780604
195828618926781,10.369602,0.25534168,0.05375614,0.053145275
195828626944242,10.377619,0.27366763,0.09590584,0.042760566
195828634995050,10.385670,0.25411993,0.15454891,0.025045475
195828642917819,10.393593,0.22113322,0.21197024,0.010995574
195828650898165,10.401573,0.1777618,0.2919936,-0.017715093
195828658880203,10.409555,0.15393804,0.3549127,-0.03359759
195828666886242,10.417561,0.13439035,0.42943826,-0.06169739
195828674961626,10.425637,0.10629055,0.56138515,-0.13683382
195828682907011,10.433582,0.065973446,0.64873886,-0.20219639
195828690905165,10.441580,0.0018325958,0.70738196,-0.2510656
195828698927011,10.449602,-0.10873401,0.7452556,-0.2968805
195828706959011,10.457634,-0.172264,0.7654142,-0.321926
195828715007242,10.465682,-0.23090707,0.71837753,-0.31642818
195828722924972,10.473600,-0.25778514,0.6267477,-0.27000242
195828730903203,10.481578,-0.2761111,0.5112942,-0.18936823
195828738882242,10.489557,-0.2602286,0.321926,-0.086132
195828746866357,10.497541,-0.20647246,0.19364429,-0.017715093
195828754934588,10.505610,-0.1160644,0.07391469,0.057421334
195828762873972,10.513549,0.04520403,-0.07880162,0.14477506
195828770872088,10.521547,0.17104226,-0.16249016,0.19058995
195828778893857,10.529569,0.29016098,-0.21930063,0.2443461
195828786907126,10.537582,0.41416663,-0.22052236,0.34330627
195828794957588,10.545633,0.49174652,-0.21074851,0.38789943
195828802878318,10.553553,0.5522222,-0.2125811,0.38362336
195828810856741,10.561532,0.5925393,-0.16126843,0.33536503
195828818836703,10.569512,0.5858198,-0.108123146,0.27855456
195828826832549,10.577508,0.51923543,-0.023823744,0.17654006
195828834902549,10.585578,0.4428773,0.06780604,0.09468412
195828842805857,10.593481,0.35063666,0.15943582,0.044593163
195828850805818,10.601481,0.20525073,0.22602014,0.04642576
195828858834126,10.609509,0.115453534,0.23457226,0.07269296
195828866848895,10.617524,0.061086524,0.22296582,0.07696902
195828874899010,10.625574,0.028710667,0.20586158,0.07513642
195828882818164,10.633493,0.009773844,0.1704314,0.08246681
195828890798510,10.641473,-0.007330383,0.1282817,0.087964594
195828898778664,10.649454,-0.02443461,0.11789699,0.06963864
195828906786472,10.657461,-0.03604105,0.13927728,0.03359759
195828914855549,10.665531,-0.047647487,0.16432275,-0.01038471
195828922759279,10.673434,-0.05375614,0.19730948,-0.03848451
195828930762202,10.681437,-0.051923547,0.24251351,-0.08307768
195828938767318,10.689442,-0.02443461,0.3200934,-0.15760323
195828946795549,10.697471,-0.0067195175,0.35918877,-0.18325958
195828954844587,10.705520,0.008552114,0.3848451,-0.19120082
195828962765702,10.713441,0.029321533,0.40011674,-0.20525073
195828970744318,10.721419,0.03726278,0.408058,-0.21197024
195828978724318,10.729399,0.032375857,0.408058,-0.19486602
195828986722741,10.737398,0.03848451,0.40439278,-0.15210545
195828994790702,10.745466,0.06719518,0.37934732,-0.15088372
195829002695087,10.753370,0.12339478,0.34269542,-0.17959438
195829010694125,10.761369,0.16920967,0.31948254,-0.18509217
195829018698241,10.769373,0.20463985,0.2779437,-0.1740966
195829026721702,10.777397,0.24007004,0.22785273,-0.1600467
195829034772433,10.785447,0.26145032,0.19975294,-0.14477506
195829042691279,10.793366,0.26450464,0.16676621,-0.11362094
195829050671933,10.801347,0.26145032,0.13133603,-0.047647487
195829058651779,10.809327,0.2687807,0.13744467,-0.029932396
195829066659048,10.817334,0.2828306,0.15027285,-0.03481932
195829074728202,10.825403,0.3005457,0.14966199,-0.050701816
195829082629933,10.833305,0.31031954,0.13255776,-0.0580322
195829090626933,10.841302,0.31215215,0.115453534,-0.07819075
195829098628433,10.849303,0.3145956,0.10567969,-0.12461651
195829106643279,10.857318,0.29443705,0.11911872,-0.15454891
195829114692663,10.865368,0.2510656,0.12461651,-0.18387043
195829122609971,10.873285,0.21502456,0.14172074,-0.21074851
195829130587355,10.881262,0.18509217,0.17348573,-0.26450464
195829138566163,10.889241,0.15943582,0.23151793,-0.34880406
195829146573432,10.897248,0.1301143,0.2657264,-0.38362336
195829154639163,10.905314,0.1020145,0.29016098,-0.38545597
195829162541163,10.913216,0.080634214,0.26816985,-0.3115413
195829170538201,10.921213,0.06963864,0.1966986,-0.2180789
195829178548355,10.929223,0.08002335,0.10445796,-0.10873401
195829186551855,10.937227,0.115453534,-0.009162978,0.026267206
195829194600048,10.945275,0.16310102,-0.09468412,0.12034045
195829202516048,10.953191,0.2125811,-0.21930063,0.23945917
195829210494201,10.961169,0.25534168,-0.321926,0.32986724
195829218473432,10.969148,0.30909783,-0.39645153,0.39400807
195829226458201,10.977133,0.39706242,-0.4288274,0.42210788
195829234524855,10.985200,0.45081854,-0.40439278,0.41355577
195829242426509,10.993101,0.47525316,-0.36346483,0.4007276
195829250424047,11.001099,0.46670106,-0.28955013,0.36957347
195829258444393,11.009119,0.44898596,-0.21380283,0.3231477
195829266457547,11.017133,0.42821655,-0.14110987,0.26450464
195829274508316,11.025183,0.3915646,-0.084910266,0.20219639
195829282428893,11.033104,0.35613444,-0.07819075,0.17959438
195829290408316,11.041083,0.33292156,-0.059253927,0.15882497
195829298386816,11.049062,0.32436943,-0.040317107,0.14172074
195829306391778,11.057067,0.31642818,-0.0421497,0.14110987
195829314460047,11.065135,0.31031954,-0.096516706,0.16554448
195829322383509,11.073058,0.312763,-0.13072516,0.18570304
195829330382278,11.081057,0.32986724,-0.16065755,0.19608775
195829338370239,11.089045,0.36346483,-0.19792034,0.20647246
195829346402585,11.097078,0.37568212,-0.22418754,0.20647246
195829354450124,11.105125,0.3866777,-0.24129178,0.18387043
195829362367624,11.113043,0.3885103,-0.21868975,0.15577064
195829370347701,11.121023,0.376293,-0.17654006,0.14355333
195829378327662,11.129003,0.3585779,-0.13927728,0.1301143
195829386336431,11.137011,0.3323107,-0.10934488,0.112399206
195829394404931,11.145080,0.31642818,-0.0842994,0.089186326
195829402338624,11.153014,0.30176744,-0.023823744,0.039095376
195829410337239,11.161012,0.29077184,0.017104227,0.002443461
195829418330162,11.169005,0.27000242,0.065973446,-0.032375857
195829426353201,11.177028,0.24129178,0.12889257,-0.07880162
195829434402508,11.185077,0.23090707,0.17715092,-0.1020145
195829442323047,11.192998,0.22785273,0.21624629,-0.119729586
195829450302508,11.200977,0.21624629,0.22785273,-0.11301007
195829458281277,11.208956,0.19792034,0.21624629,-0.09712757
195829466286200,11.216961,0.16615535,0.19730948,-0.07513642
195829474354316,11.225029,0.11789699,0.18142697,-0.04520403
195829482296123,11.232971,0.08124508,0.15699236,-0.0421497
195829490293277,11.240968,0.03604105,0.12889257,-0.06414085
195829498301316,11.248976,-6.1086525E-4,0.10629055,-0.08002335
195829506330162,11.257005,-0.03848451,0.095294975,-0.089186326
195829514379354,11.265054,-0.07086037,0.105068825,-0.0983493
195829522297123,11.272972,-0.08246681,0.14844026,-0.112399206
195829530276392,11.280951,-0.096516706,0.2003638,-0.13194689
195829538255931,11.288931,-0.116675265,0.26267207,-0.17592919
195829546262392,11.296937,-0.13500121,0.32436943,-0.23518312
195829554330700,11.305006,-0.16371189,0.43310347,-0.34208453
195829562277931,11.312953,-0.18936823,0.535118,-0.4202753
195829570276085,11.320951,-0.2144137,0.61086524,-0.4886922
195829578283969,11.328959,-0.25289822,0.64812803,-0.5149594
195829586286815,11.336962,-0.28527406,0.61758476,-0.4868596
195829594334508,11.345009,-0.3036,0.5503896,-0.43371433
195829602255546,11.352931,-0.30970868,0.4196644,-0.29443705
195829610232738,11.360908,-0.2883284,0.30298916,-0.16920967
195829618211584,11.368887,-0.25350907,0.172264,-0.030543262
195829626195931,11.376871,-0.18875736,-0.005497787,0.15515977
195829634261854,11.384937,-0.12889257,-0.10995574,0.26328292
195829642199815,11.392875,-0.06169739,-0.17104226,0.34208453
195829650196546,11.400872,0.008552114,-0.22296582,0.39584067
195829658219200,11.408894,0.057421334,-0.2180789,0.36774087
195829666222969,11.416898,0.10934488,-0.19058995,0.26267207
195829674269969,11.424945,0.13439035,-0.16982053,0.16798794
195829682188776,11.432864,0.15699236,-0.1441642,0.086132
195829690167930,11.440843,0.18325958,-0.13194689,0.0030543262
195829698147584,11.448823,0.18875736,-0.1020145,-0.02076942
195829706143238,11.456818,0.17592919,-0.06780604,-0.012217305
195829714211392,11.464886,0.14966199,-0.03359759,0.026267206
195829722113853,11.472789,0.118507855,0.0067195175,0.047647487
195829730111161,11.480786,0.08979719,0.07941248,0.03481932
195829738090276,11.488765,0.056199603,0.19792034,-0.019547688
195829746107084,11.496782,0.03176499,0.28221974,-0.06841691
195829754156276,11.504831,-0.029321533,0.3817908,-0.10262536
195829762077315,11.512752,-0.07452556,0.4111123,-0.108123146
195829770055853,11.520731,-0.11484267,0.42943826,-0.11301007
195829778035007,11.528710,-0.15210545,0.4905248,-0.124005646
195829786066391,11.536741,-0.16371189,0.535118,-0.124005646
195829794134853,11.544810,-0.1740966,0.5546656,-0.12522738
195829802036930,11.552712,-0.15393804,0.51923543,-0.13744467
195829810041161,11.560716,-0.12217305,0.46303585,-0.14721853
195829818027122,11.568702,-0.08368854,0.4111123,-0.16187929
195829826055314,11.576730,-0.05497787,0.4007276,-0.17470746
195829834104545,11.584780,-0.03604105,0.4392121,-0.19364429
195829842023237,11.592698,-0.010995574,0.4831944,-0.19303341
195829850003045,11.600678,-0.007330383,0.47769663,-0.16187929
195829857982083,11.608657,0.009162978,0.41783184,-0.11911872
195829865988468,11.616663,0.053145275,0.2779437,-0.06841691
195829874057314,11.624732,0.106901415,0.16126843,-0.039095376
195829881961660,11.632637,0.16065755,0.05681047,-0.013439035
195829889960237,11.640635,0.20891592,-0.017715093,0.010995574
195829897953160,11.648628,0.22296582,-0.002443461,0.010995574
195829905978583,11.656654,0.22357668,0.05131268,-0.01160644
195829914029160,11.664704,0.18997909,0.14172074,-0.059253927
195829921961045,11.672636,0.13805555,0.2003638,-0.10262536
195829929939199,11.680614,0.06658431,0.25045475,-0.13805555
195829937918275,11.688593,-0.043982297,0.2950479,-0.1740966
195829945903891,11.696579,-0.12339478,0.2919936,-0.1685988
195829953971237,11.704646,-0.19792034,0.2443461,-0.12644911
195829961875352,11.712550,-0.20952678,0.17348573,-0.1020145
195829969873006,11.720548,-0.1863139,0.108123146,-0.11911872
195829977876660,11.728552,-0.12034045,0.03970624,-0.16676621
195829985889198,11.736564,-0.045814894,0.007330383,-0.18997909
195829993938583,11.744614,0.03359759,-0.030543262,-0.17348573
195830001857121,11.752532,0.14477506,-0.12767084,-0.08002335
195830009835583,11.760511,0.22602014,-0.21319197,0.012217305
195830017814083,11.768489,0.30604348,-0.29932398,0.09896017
195830025809314,11.776484,0.40622538,-0.37690386,0.18875736
195830033878544,11.784554,0.4654793,-0.41355577,0.24373524
195830041780352,11.792455,0.54061574,-0.43554693,0.27672195
195830049777929,11.800453,0.59315014,-0.42821655,0.25778514
195830057789775,11.808465,0.625526,-0.40317106,0.21991149
195830065809467,11.816484,0.61575216,-0.37934732,0.19792034
195830073859275,11.824534,0.55833083,-0.35369098,0.21868975
195830081780275,11.832455,0.4831944,-0.33108896,0.24923302
195830089758083,11.840433,0.36713,-0.28038713,0.29077184
195830097736506,11.848411,0.28160888,-0.258396,0.32620203
195830105729813,11.856405,0.20341812,-0.25167647,0.34697145
195830113796506,11.864471,0.15271631,-0.21991149,0.30298916
195830121699352,11.872374,0.15454891,-0.17287487,0.22357668
195830129696544,11.880372,0.17715092,-0.12522738,0.1282817
195830137712082,11.888387,0.21319197,-0.0580322,0.01160644
195830145723544,11.896399,0.22113322,0.02076942,-0.052534413
195830153773736,11.904449,0.20647246,0.13194689,-0.11301007
195830161691736,11.912367,0.17715092,0.204029,-0.12767084
195830169672813,11.920348,0.14049901,0.2761111,-0.118507855
195830177652659,11.928328,0.077579886,0.32620203,-0.08124508
195830185648698,11.936324,0.040927973,0.29810223,-0.032375857
195830193717275,11.944392,0.018936822,0.2144137,0.017104227
195830201656274,11.952331,0.017104227,0.042760566,0.1001819
195830209653236,11.960328,0.03726278,-0.112399206,0.17654006
195830217754044,11.968429,0.09162979,-0.2938262,0.25778514
195830225664313,11.976339,0.16187929,-0.37995818,0.28527406
195830233715236,11.984390,0.25289822,-0.4550946,0.2864958
195830241636582,11.992312,0.3848451,-0.52778757,0.2724459
195830249616544,12.000292,0.47647488,-0.5479461,0.25778514
195830257597582,12.008273,0.5644395,-0.5338962,0.23335053
195830265592659,12.016268,0.6658431,-0.4184427,0.17104226
195830273666659,12.024342,0.711658,-0.30848694,0.105068825
195830281580005,12.032255,0.7147123,-0.19608775,0.047036625
195830289577928,12.040253,0.65301496,-0.040927973,-0.018936822
195830297571582,12.048247,0.5662721,0.08368854,-0.0720821
195830305576466,12.056251,0.4550946,0.19608775,-0.11911872
195830313626966,12.064302,0.31581733,0.2864958,-0.13744467
195830321546120,12.072221,0.22174409,0.31215215,-0.096516706
195830329525582,12.080201,0.11056661,0.27672195,0.0036651916
195830337505236,12.088180,0.07269296,0.20525073,0.081855945
195830345500005,12.096175,0.07391469,0.122783914,0.15271631
195830353569274,12.104244,0.1160644,0.012217305,0.22785273
195830361489312,12.112164,0.16798794,-0.084910266,0.26145032
195830369487582,12.120163,0.2284636,-0.17715092,0.2742785
195830377484158,12.128159,0.31215215,-0.26939157,0.24007004
195830385499505,12.136174,0.36041048,-0.2883284,0.17715092
195830393550235,12.144225,0.39400807,-0.23945917,0.08979719
195830401472620,12.152148,0.4147775,-0.111177474,-0.02321288
195830409452581,12.160128,0.4129449,0.004276057,-0.086132
195830417432581,12.168108,0.40317106,0.106901415,-0.11911872
195830425421043,12.176096,0.3811799,0.17165314,-0.119729586
195830433490427,12.184165,0.36285394,0.17287487,-0.10629055
195830441426158,12.192101,0.34697145,0.16065755,-0.105068825
195830449427389,12.200102,0.3378085,0.14355333,-0.08979719
195830457436581,12.208112,0.31337386,0.12950343,-0.056199603
195830465452812,12.216128,0.267559,0.105068825,0.019547688
195830473504004,12.224179,0.22052236,0.08368854,0.087964594
195830481422850,12.232098,0.17715092,0.08552113,0.12217305
195830489403889,12.240079,0.15271631,0.12461651,0.10323623
195830497385812,12.248061,0.15027285,0.1740966,0.06841691
195830505371235,12.256046,0.14538592,0.21074851,0.028710667
195830513441543,12.264117,0.15149458,0.22724187,-0.026267206
195830521388273,12.272063,0.15699236,0.2180789,-0.06352998
195830529393350,12.280068,0.13805555,0.18509217,-0.058643065
195830537409312,12.288084,0.106901415,0.14966199,-0.01160644
195830545436350,12.296111,0.0842994,0.09896017,0.056199603
195830553487504,12.304162,0.080634214,0.040317107,0.14905111
195830561410581,12.312086,0.111177474,-0.015882496,0.19792034
195830569390312,12.320065,0.14355333,-0.09040806,0.23701571
195830577369927,12.328045,0.17348573,-0.20341812,0.2742785
195830585378581,12.336054,0.19242255,-0.26939157,0.27916542
195830593447619,12.344123,0.226631,-0.2950479,0.24312437
195830601392965,12.352068,0.25534168,-0.28893927,0.18020524
195830609391542,12.360067,0.26816985,-0.24312437,0.09285152
195830617413927,12.368089,0.24556783,-0.073303826,-0.047036625
195830625429234,12.376104,0.1863139,0.09285152,-0.14538592
195830633479465,12.384154,0.089186326,0.26267207,-0.19792034
195830641398234,12.392073,-0.06536258,0.36896262,-0.16737708
195830649378850,12.400054,-0.16493362,0.34208453,-0.103847094
195830657359350,12.408034,-0.21868975,0.2657264,-0.043982297
195830665355427,12.416030,-0.20586158,0.07880162,0.037873644
195830673426119,12.424101,-0.13927728,-0.1001819,0.11056661
195830681330850,12.432006,-0.04642576,-0.2706133,0.1826487
195830689329619,12.440005,0.09285152,-0.38912117,0.23457226
195830697357773,12.448033,0.19730948,-0.36346483,0.22907446
195830705373349,12.456048,0.29749137,-0.22174409,0.20280726
195830713425426,12.464100,0.31337386,-0.08674286,0.18753563
195830721348273,12.472023,0.29626966,0.02565634,0.1600467
195830729328196,12.480003,0.22907446,0.11484267,0.12950343
195830737311003,12.487986,0.14660765,0.10751228,0.13133603
195830745306465,12.495981,0.054367006,0.040927973,0.1441642
195830753375965,12.504051,-0.050701816,-0.04337143,0.14355333
195830761280003,12.511955,-0.08735373,-0.04886922,0.119729586
195830769279080,12.519954,-0.096516706,-0.017715093,0.09712757
195830777265772,12.527941,-0.087964594,0.036651913,0.08674286
195830785294080,12.535969,-0.07819075,0.07147124,0.076358154
195830793347272,12.544022,-0.048258353,0.12583824,0.042760566
195830801268926,12.551944,-0.03481932,0.16065755,0.0018325958
195830809251503,12.559926,-0.02687807,0.2125811,-0.045814894
195830817235964,12.567911,-0.028099801,0.30298916,-0.14110987
195830825246387,12.575921,-0.026267206,0.4092797,-0.21380283
195830833315426,12.583990,-0.028710667,0.5180137,-0.2779437
195830841220772,12.591896,-0.05497787,0.5925393,-0.31581733
195830849220272,12.599895,-0.09896017,0.55955255,-0.2919936
195830857217695,12.607893,-0.15821409,0.462425,-0.2302962
195830865222195,12.615897,-0.22785273,0.3463606,-0.13988814
195830873272041,12.623947,-0.2406809,0.2687807,-0.08307768
195830881195118,12.631870,-0.20708331,0.16676621,-0.029321533
195830889175387,12.639850,-0.16249016,0.09101892,-0.005497787
195830897154926,12.647830,-0.108123146,0.018936822,0.002443461
195830905151156,12.655826,-0.029932396,-0.047036625,-0.014660766
195830913220118,12.663895,0.014049901,-0.06841691,-0.03970624
195830921125503,12.671800,0.03726278,-0.06963864,-0.06536258
195830929126156,12.679801,0.019547688,-0.065973446,-0.1142318
195830937133733,12.687809,-0.02321288,0.0067195175,-0.18142697
195830945156887,12.695832,-0.07452556,0.13255776,-0.28893927
195830953207849,12.703883,-0.14538592,0.32375857,-0.44532076
195830961127233,12.711802,-0.204029,0.43799037,-0.52595496
195830969107925,12.719783,-0.2657264,0.56321776,-0.5833763
195830977088733,12.727764,-0.28221974,0.59131753,-0.5687156
195830985085079,12.735760,-0.28527406,0.5369505,-0.49846604
195830993159387,12.743834,-0.2773328,0.408058,-0.36468655
195831001063195,12.751738,-0.24556783,0.28955013,-0.28344148
195831009060810,12.759736,-0.19730948,0.22235495,-0.23090707
195831017076887,12.767752,-0.122783914,0.20463985,-0.17898351
195831025092925,12.775768,-0.059864793,0.22296582,-0.14172074
195831033142964,12.783818,-0.0012217305,0.23823744,-0.11484267
195831041064387,12.791739,0.08735373,0.22785273,-0.12644911
195831049043694,12.799719,0.13133603,0.19181168,-0.14538592
195831057024040,12.807699,0.15210545,0.16432275,-0.15088372
195831065031733,12.815707,0.13255776,0.1459968,-0.116675265
195831073100656,12.823776,0.1020145,0.15454891,-0.09468412
195831081003040,12.831678,0.052534413,0.20463985,-0.106901415
195831088998502,12.839673,0.0036651916,0.23884831,-0.12705997
195831097017502,12.847692,-0.06291912,0.26633725,-0.12767084
195831105028925,12.855704,-0.15027285,0.25411993,-0.111177474
195831113077348,12.863752,-0.19853121,0.22602014,-0.10751228
195831120993579,12.871669,-0.22907446,0.19303341,-0.122783914
195831128971732,12.879647,-0.24373524,0.17715092,-0.17898351
195831136950656,12.887626,-0.24678956,0.204029,-0.2321288
195831144959117,12.895634,-0.23579398,0.26816985,-0.3042109
195831153026732,12.903702,-0.21319197,0.40194935,-0.3921755
195831160929579,12.911605,-0.20647246,0.4728097,-0.41905355
195831168927540,12.919603,-0.2321288,0.45875978,-0.35246924
195831176911925,12.927587,-0.25473082,0.3463606,-0.24312437
195831184915540,12.935591,-0.27488935,0.17592919,-0.10140363
195831192963194,12.943638,-0.27916542,-0.05131268,0.106901415
195831200882501,12.951557,-0.24495697,-0.18203785,0.20952678
195831208874809,12.959550,-0.18997909,-0.2669481,0.24495697
195831216933809,12.967609,-0.10934488,-0.31642818,0.20952678
195831224944809,12.975620,-0.069027774,-0.34269542,0.17531833
195831233049040,12.983724,-0.06719518,-0.37507126,0.16982053
195831240998232,12.991673,-0.10995574,-0.36957347,0.18020524
195831248997040,12.999672,-0.16493362,-0.32070425,0.15760323
195831256985770,13.007661,-0.23945917,-0.14477506,0.08002335
195831265020501,13.015695,-0.28160888,0.055588737,-0.018325957
195831273069001,13.023744,-0.30726522,0.23396139,-0.13194689
195831280985424,13.031660,-0.34330627,0.4092797,-0.25778514
195831288975616,13.039651,-0.39522982,0.4886922,-0.28955013
195831296954540,13.047630,-0.4605924,0.5119051,-0.23945917
195831304939463,13.055614,-0.535118,0.3323107,-0.040927973
195831313005309,13.063680,-0.57971114,0.12889257,0.13622294
195831320922847,13.071598,-0.5821546,-0.047036625,0.28405234
195831328920193,13.079595,-0.51251596,-0.23396139,0.4184427
195831336916039,13.087591,-0.42210788,-0.3463606,0.45142943
195831344944078,13.095619,-0.26450464,-0.539394,0.42577308
195831352990847,13.103666,-0.15332718,-0.625526,0.3811799
195831360932732,13.111608,-0.07269296,-0.64812803,0.33475417
195831368989962,13.119665,0.009162978,-0.67011917,0.3323107
195831377048732,13.127724,0.043982297,-0.7067711,0.36896262
195831385071424,13.135746,0.07819075,-0.67011917,0.39095375
195831393137847,13.143813,0.15577064,-0.50640726,0.36285394
195831401063231,13.151738,0.20891592,-0.38423425,0.3231477
195831409065501,13.159740,0.22479841,-0.30848694,0.31642818
195831417096962,13.167772,0.19914207,-0.31031954,0.33353242
195831425190308,13.175865,0.15149458,-0.2968805,0.3659083
195831433248193,13.183923,0.06291912,-0.27550024,0.41233405
195831441163654,13.191839,0.01160644,-0.28955013,0.4343252
195831449140924,13.199816,-0.028710667,-0.32375857,0.44959682
195831457119193,13.207794,-0.06658431,-0.33292156,0.40622538
195831465104039,13.215779,-0.08552113,-0.26145032,0.35063666
195831473171539,13.223847,-0.09896017,-0.16187929,0.2742785
195831481098000,13.231773,-0.10995574,-0.037873644,0.17959438
195831489095693,13.239771,-0.12767084,0.01038471,0.13072516
195831497111154,13.247786,-0.17348573,0.03359759,0.106901415
195831505149500,13.255824,-0.20097467,0.017715093,0.116675265
195831513197885,13.263873,-0.21135938,-0.01038471,0.12705997
195831521118693,13.271794,-0.19975294,-0.04520403,0.10751228
195831529095462,13.279770,-0.19547687,-0.032986723,0.06719518
195831537086231,13.287761,-0.19242255,0.027488936,0.016493361
195831545093154,13.295768,-0.19364429,0.1020145,-0.048258353
195831553160154,13.303835,-0.2144137,0.12339478,-0.08124508
195831561061308,13.311736,-0.24190263,0.16371189,-0.12217305
195831569057462,13.319732,-0.31215215,0.23273966,-0.16920967
195831577078269,13.327753,-0.37812558,0.3408628,-0.17959438
195831585138769,13.335814,-0.45998153,0.4392121,-0.20219639
195831593194885,13.343870,-0.50640726,0.46486846,-0.21135938
195831601112192,13.351787,-0.5235115,0.43799037,-0.20525073
195831609090654,13.359766,-0.49541172,0.33536503,-0.19242255
195831617070154,13.367745,-0.4373795,0.22785273,-0.19792034
195831625063769,13.375739,-0.3585779,0.15088372,-0.22174409
195831633131692,13.383807,-0.24678956,0.13500121,-0.23335053
195831641081423,13.391756,-0.1685988,0.2284636,-0.23579398
195831649076654,13.399752,-0.096516706,0.31948254,-0.25534168
195831657070346,13.407745,-0.064751714,0.4202753,-0.25167647
195831665168923,13.415844,-0.055588737,0.45081854,-0.22479841
195831673218307,13.423893,-0.06047566,0.40439278,-0.14844026
195831681138730,13.431814,-0.06963864,0.31581733,-0.070249505
195831689134077,13.439809,-0.064751714,0.21563543,-0.009162978
195831697113000,13.447788,-0.04153884,0.0842994,0.043982297
195831705116000,13.455791,-0.043982297,0.018325957,0.06719518
195831713183807,13.463859,-0.062308256,0.01038471,0.077579886
195831721085807,13.471761,-0.108123146,0.06536258,0.06414085
195831729081961,13.479757,-0.13133603,0.1142318,0.034208454
195831737069769,13.487745,-0.15088372,0.13805555,0.015271631
195831745093922,13.495769,-0.15699236,0.11911872,0.008552114
195831753141999,13.503817,-0.1441642,0.081855945,0.013439035
195831761058692,13.511734,-0.12522738,0.07819075,0.007941248
195831769036884,13.519712,-0.115453534,0.105068825,-0.028710667
195831777015845,13.527691,-0.116675265,0.13500121,-0.08002335
195831785021961,13.535697,-0.15149458,0.17592919,-0.13500121
195831793089076,13.543764,-0.1966986,0.19608775,-0.12461651
195831800990615,13.551666,-0.2510656,0.16126843,-0.052534413
195831808987076,13.559662,-0.32925636,-0.0061086523,0.14844026
195831816987038,13.567662,-0.36102137,-0.1740966,0.31398472
195831825000768,13.575676,-0.36713,-0.31764993,0.41722095
195831833048307,13.583723,-0.3371976,-0.41538838,0.43982297
195831840969230,13.591644,-0.30970868,-0.42638394,0.3866777
195831848946191,13.599621,-0.2687807,-0.344528,0.27000242
195831856924191,13.607599,-0.24556783,-0.20525073,0.15149458
195831864917268,13.615592,-0.23579398,-0.015882496,0.021380283
195831872990653,13.623666,-0.28160888,0.21930063,-0.118507855
195831880892807,13.631568,-0.35124752,0.30665436,-0.15393804
195831888891114,13.639566,-0.42210788,0.30543262,-0.1282817
195831896899922,13.647575,-0.46120325,0.25350907,-0.040927973
195831904913460,13.655588,-0.44898596,0.18997909,0.03359759
195831912963537,13.663639,-0.40317106,0.112399206,0.10934488
195831920882076,13.671557,-0.31215215,0.005497787,0.18692477
195831928861614,13.679537,-0.2321288,-0.09712757,0.22907446
195831936841999,13.687517,-0.15393804,-0.21746802,0.2657264
195831944837537,13.695513,-0.07452556,-0.32620203,0.3042109
195831952906960,13.703582,-0.028710667,-0.3371976,0.31398472
195831960810575,13.711486,0.018936822,-0.2883284,0.2932153
195831968809845,13.719485,0.04886922,-0.19242255,0.26145032
195831976818422,13.727493,0.07391469,-0.062308256,0.23457226
195831984846422,13.735521,0.08246681,0.021380283,0.25534168
195831992895191,13.743570,0.07941248,-0.019547688,0.31642818
195832000818575,13.751494,0.08246681,-0.14966199,0.39645153
195832008797575,13.759473,0.073303826,-0.33841935,0.5021312
195832016777268,13.767452,0.06780604,-0.4605924,0.5522222
195832024787537,13.775463,0.06841691,-0.5564982,0.5571091
195832032856075,13.783531,0.08368854,-0.61208695,0.49480084
195832040759575,13.791435,0.093462385,-0.55955255,0.4196644
195832048756844,13.799432,0.08552113,-0.38912117,0.321926
195832056771844,13.807447,0.06291912,-0.26939157,0.26389378
195832064786575,13.815462,0.032375857,-0.13988814,0.2180789
195832072836806,13.823512,0.021991149,6.1086525E-4,0.16615535
195832080755806,13.831431,0.026267206,0.027488936,0.15821409
195832088733883,13.839409,0.031154128,0.010995574,0.19975294
195832096712421,13.847387,0.0421497,-0.027488936,0.26511553
195832104720960,13.855396,0.06291912,-0.032986723,0.2919936
195832112785998,13.863461,0.070249505,-0.07391469,0.30726522
195832120702767,13.871378,0.037873644,-0.226631,0.35063666
195832128702690,13.879378,-0.01160644,-0.36468655,0.38728857
195832136679882,13.887355,-0.06658431,-0.48930305,0.39950588
195832144700536,13.895376,-0.10323623,-0.535118,0.37140608
195832152749729,13.903425,-0.15149458,-0.52534413,0.31764993
195832160671921,13.911347,-0.21013765,-0.39950588,0.19303341
195832168651229,13.919326,-0.22724187,-0.25045475,0.056199603
195832176631305,13.927306,-0.23273966,-0.08002335,-0.065973446
195832184638613,13.935314,-0.21013765,0.095294975,-0.172264
195832192707613,13.943383,-0.15699236,0.1020145,-0.22540927
195832200626382,13.951301,-0.0720821,0.017715093,-0.25473082
195832208623613,13.959299,0.03848451,-0.1160644,-0.21380283
195832216614805,13.967290,0.08735373,-0.14782938,-0.13622294
195832224618459,13.975293,0.1459968,-0.13194689,0.012217305
195832232668113,13.983343,0.1704314,-0.1423316,0.10140363
195832240586113,13.991261,0.20952678,-0.1704314,0.16982053
195832248564690,13.999240,0.2687807,-0.22785273,0.24801129
195832256543959,14.007219,0.30482176,-0.2773328,0.31764993
195832264576920,14.015252,0.34208453,-0.30970868,0.38545597
195832272643420,14.023318,0.4111123,-0.37201694,0.47219884
195832280569036,14.031244,0.45814893,-0.44593164,0.5412266
195832288567613,14.039243,0.49541172,-0.516792,0.58276546
195832296567843,14.047243,0.52106804,-0.5357288,0.56382865
195832304573343,14.055248,0.5027421,-0.47586402,0.5143485
195832312622690,14.063298,0.4373795,-0.30482176,0.3866777
195832320542728,14.071218,0.3659083,-0.111177474,0.2602286
195832328519920,14.079195,0.28893927,0.08552113,0.11728613
195832336497766,14.087173,0.1826487,0.21197024,-0.045814894
195832344491574,14.095167,0.087964594,0.19975294,-0.10934488
195832352559651,14.103235,-0.015882496,0.12583824,-0.11178834
195832360542382,14.111217,-0.122783914,0.0061086523,-0.055588737
195832368555189,14.119230,-0.16126843,-0.069027774,-0.02443461
195832376562497,14.127237,-0.17470746,-0.11484267,-0.009773844
195832384574997,14.135250,-0.16310102,-0.1386664,0.009773844
195832392624497,14.143299,-0.12889257,-0.1282817,0.03481932
195832400542112,14.151217,-0.047036625,-0.1142318,0.06780604
195832408520112,14.159195,0.019547688,-0.11728613,0.08124508
195832416498574,14.167174,0.08002335,-0.12034045,0.08307768
195832424493035,14.175168,0.14294247,-0.10751228,0.054367006
195832432562343,14.183237,0.16615535,-0.08246681,0.0036651916
195832440509458,14.191184,0.16187929,-0.050701816,-0.081855945
195832448507381,14.199182,0.103847094,0.049480084,-0.20219639
195832456523881,14.207199,0.031154128,0.18448131,-0.2742785
195832464527381,14.215202,-0.03176499,0.3200934,-0.3359759
195832472575766,14.223251,-0.0842994,0.42638394,-0.37995818
195832480495997,14.231171,-0.124005646,0.4361578,-0.3481932
195832488474535,14.239150,-0.15577064,0.39706242,-0.2657264
195832496451843,14.247127,-0.16371189,0.27550024,-0.12583824
195832504444304,14.255119,-0.13316862,0.17592919,-0.040927973
195832512511150,14.263186,-0.030543262,0.052534413,0.014049901
195832520446727,14.271122,0.070249505,-0.026267206,0.028710667
195832528445266,14.279120,0.16615535,-0.05009095,0.03481932
195832536471766,14.287147,0.27550024,0.004886922,-0.0012217305
195832544484573,14.295160,0.31398472,0.081855945,-0.029932396
195832552533535,14.303209,0.30482176,0.15149458,-0.03176499
195832560450573,14.311126,0.23457226,0.18997909,0.008552114
195832568427919,14.319103,0.172264,0.14844026,0.059864793
195832576407612,14.327083,0.12767084,0.0580322,0.11728613
195832584403650,14.335079,0.108123146,-0.11056661,0.18875736
195832592476996,14.343152,0.12583824,-0.22785273,0.21930063
195832600401727,14.351077,0.17348573,-0.35246924,0.22235495
195832608401304,14.359076,0.21197024,-0.37507126,0.19425514
195832616388727,14.367064,0.24801129,-0.31948254,0.1459968
195832624402804,14.375078,0.26511553,-0.18692477,0.06719518
195832632450881,14.383126,0.23151793,-0.12644911,0.021991149
195832640372034,14.391047,0.15332718,-0.055588737,-0.0061086523
195832648350419,14.399025,0.02321288,0.09773844,-0.025045475
195832656330611,14.407006,-0.044593163,0.18142697,-0.022602014
195832664336573,14.415012,-0.065973446,0.204029,-0.015271631
195832672403765,14.423079,-0.02565634,0.1301143,-0.023823744
195832680318650,14.430994,0.034208454,0.054367006,-0.03726278
195832688315457,14.438990,0.096516706,-0.021991149,-0.048258353
195832696333034,14.447008,0.100792766,-0.064751714,-0.040927973
195832704358265,14.455033,0.065973446,-0.092240654,-0.032375857
195832712447650,14.463123,-0.02687807,-0.09040806,-0.015882496
195832720364726,14.471040,-0.12705997,-0.0720821,0.007941248
195832728341842,14.479017,-0.23945917,-0.049480084,0.04337143
195832736320611,14.486996,-0.35246924,-0.06169739,0.05131268
195832744305226,14.494980,-0.36651915,-0.10323623,0.007330383
195832752373188,14.503048,-0.3304781,-0.1441642,-0.06352998
195832760275534,14.510951,-0.23518312,-0.18448131,-0.16982053
195832768273380,14.518948,-0.14538592,-0.1966986,-0.23335053
195832776272919,14.526948,-0.026267206,-0.1881465,-0.26816985
195832784286649,14.534962,0.059253927,-0.1685988,-0.24373524
195832792336495,14.543011,0.1160644,-0.16432275,-0.18387043
195832800256803,14.550932,0.14477506,-0.15760323,-0.08368854
195832808240226,14.558915,0.16310102,-0.1459968,-0.03970624
195832816223495,14.566898,0.19242255,-0.13255776,-0.01160644
195832824215149,14.574890,0.22785273,-0.10140363,0.017104227
195832832346034,14.583021,0.26083946,-0.073303826,0.03970624
195832840273264,14.590948,0.3109304,-0.052534413,0.052534413
195832848269380,14.598944,0.37507126,-0.021380283,0.07391469
195832856314341,14.606989,0.41538838,-0.009773844,0.09590584
195832864336226,14.615011,0.44165558,0.02565634,0.108123146
195832872384072,14.623059,0.44043383,0.058643065,0.08307768
195832880341649,14.631017,0.4166101,0.105068825,0.035430185
195832888318610,14.638994,0.3390302,0.20647246,-0.052534413
195832896355649,14.647031,0.25350907,0.31031954,-0.12034045
195832904419149,14.655094,0.15210545,0.39278635,-0.18387043
195832912566956,14.663242,0.025045475,0.4728097,-0.23518312
195832920476379,14.671151,-0.07147124,0.47891834,-0.2302962
195832928471726,14.679147,-0.18142697,0.43676865,-0.15760323
195832936557072,14.687232,-0.24129178,0.38789943,-0.08979719
195832944649649,14.695325,-0.25595254,0.31337386,-0.04520403
195832952699149,14.703374,-0.226631,0.1704314,0.0012217305
195832960616649,14.711292,-0.17165314,0.031154128,0.047647487
195832968593610,14.719269,-0.103847094,-0.11728613,0.081855945
195832976570918,14.727246,0.02687807,-0.25534168,0.084910266
195832984625995,14.735301,0.106901415,-0.2938262,0.06780604
195832992693418,14.743368,0.15760323,-0.21868975,0.05497787
195833000593841,14.751269,0.16798794,-0.11789699,0.032375857
195833008592264,14.759267,0.16615535,-0.015882496,-0.010995574
195833016658187,14.767333,0.15882497,0.076358154,-0.09040806
195833024672341,14.775347,0.15027285,0.116675265,-0.15088372
195833032743264,14.783418,0.14355333,0.13316862,-0.204029
195833040739994,14.791415,0.15393804,0.17959438,-0.2602286
195833048763302,14.799438,0.14660765,0.2687807,-0.2968805
195833056741033,14.807416,0.12950343,0.3622431,-0.3109304
195833064802725,14.815478,0.084910266,0.41416663,-0.2773328
195833072952033,14.823627,0.040927973,0.4129449,-0.24373524
195833080951379,14.831626,-0.021991149,0.39645153,-0.21135938
195833089027263,14.839702,-0.07941248,0.3481932,-0.18509217
195833097085225,14.847760,-0.11484267,0.27550024,-0.1777618
195833105104802,14.855780,-0.106901415,0.17287487,-0.21197024
195833113181610,14.863857,-0.07696902,0.12705997,-0.2510656
195833121179494,14.871854,-0.037873644,0.08307768,-0.2706133
195833129174725,14.879850,-0.021380283,0.08674286,-0.27122417
195833137189302,14.887864,-0.0036651916,0.13561209,-0.27122417
195833145181956,14.895857,0.02076942,0.13622294,-0.26633725
195833153316148,14.903991,0.048258353,0.06963864,-0.25900686
195833161295763,14.911971,0.07391469,-0.0061086523,-0.25289822
195833169372071,14.920047,0.10567969,-0.040927973,-0.27366763
195833177409955,14.928085,0.11301007,0.0067195175,-0.3042109
195833185504494,14.936179,0.09285152,0.122783914,-0.35430184
195833193554609,14.944230,0.058643065,0.23762658,-0.35979962
195833201536186,14.952211,0.021380283,0.30543262,-0.33292156
195833209593840,14.960269,-0.02076942,0.27672195,-0.24556783
195833217600378,14.968275,-0.025045475,0.172264,-0.16065755
195833225640917,14.976316,0.016493361,-0.009773844,-0.015271631
195833233788648,14.984464,0.05009095,-0.100792766,0.057421334
195833241746340,14.992421,0.09896017,-0.1301143,0.06658431
195833249795571,15.000471,0.17654006,-0.13439035,-0.02687807
195833257875455,15.008550,0.20463985,-0.09162979,-0.13255776
195833265889955,15.016565,0.20280726,-0.028710667,-0.23151793
195833273939147,15.024614,0.14905111,0.06291912,-0.36346483
195833281859378,15.032534,0.073303826,0.1282817,-0.4251622
195833289836301,15.040511,-0.05681047,0.23396139,-0.43066
195833297837493,15.048512,-0.13316862,0.28099802,-0.39461896
195833305831109,15.056506,-0.16982053,0.2602286,-0.3390302
195833313905724,15.064581,-0.17592919,0.14172074,-0.2742785
195833321841840,15.072517,-0.14905111,0.07147124,-0.24617869
195833329840763,15.080516,-0.092240654,0.052534413,-0.22968534
195833337846801,15.088522,-0.004886922,0.076358154,-0.2003638
195833345892532,15.096568,0.06169739,0.08246681,-0.17470746
195833353939839,15.104615,0.122783914,0.039095376,-0.14538592
195833361854916,15.112530,0.19058995,-0.08735373,-0.08857546
195833369832801,15.120508,0.2284636,-0.18692477,-0.05375614
195833377812147,15.128487,0.26145032,-0.25167647,-0.015882496
195833385815878,15.136491,0.2742785,-0.22113322,0.0036651916
195833393884955,15.144560,0.2846632,-0.15454891,0.014049901
195833401835378,15.152510,0.2883284,-0.061086524,0.015271631
195833409834185,15.160509,0.28160888,-0.014049901,0.009162978
195833417850878,15.168526,0.258396,0.0030543262,0.008552114
195833425864993,15.176540,0.21197024,-6.1086525E-4,0.02565634
195833433914531,15.184590,0.17470746,-0.030543262,0.03176499
195833441838339,15.192513,0.13194689,-0.089186326,0.02443461
195833449818377,15.200493,0.07452556,-0.08674286,0.0030543262
195833457800301,15.208475,0.021991149,-0.030543262,-0.036651913
195833465810377,15.216485,-0.047036625,0.100792766,-0.10262536
195833473879685,15.224555,-0.09896017,0.20830505,-0.14538592
195833481782531,15.232458,-0.14721853,0.2950479,-0.16798794
195833489780108,15.240455,-0.1826487,0.3182608,-0.15271631
195833497807108,15.248482,-0.18570304,0.28038713,-0.11728613
195833505823339,15.256498,-0.16982053,0.22113322,-0.07147124
195833513872608,15.264548,-0.118507855,0.1160644,-0.008552114
195833521792877,15.272468,-0.07391469,0.056199603,0.032375857
195833529770762,15.280446,-0.034208454,0.03481932,0.054367006
195833537750069,15.288425,-0.0036651916,0.07086037,0.029321533
195833545759839,15.296435,-0.018936822,0.12644911,-0.017104227
195833553827608,15.304503,-0.0983493,0.22357668,-0.087964594
195833561728916,15.312404,-0.19364429,0.26389378,-0.14172074
195833569725377,15.320400,-0.2968805,0.2932153,-0.19181168
195833577725146,15.328400,-0.4092797,0.3200934,-0.24984388
195833585748915,15.336424,-0.45937067,0.30604348,-0.28221974
195833593797377,15.344472,-0.48380527,0.26633725,-0.29016098
195833601735646,15.352411,-0.46731192,0.20219639,-0.28099802
195833609739454,15.360414,-0.4288274,0.15454891,-0.24312437
195833617717915,15.368393,-0.3921755,0.0983493,-0.17715092
195833625701684,15.376377,-0.3475823,0.028710667,-0.04642576
195833633768800,15.384444,-0.3036,-0.020158553,0.043982297
195833641668877,15.392344,-0.24190263,-0.089186326,0.11484267
195833649664838,15.400340,-0.15760323,-0.18387043,0.18570304
195833657656992,15.408332,-0.086132,-0.23945917,0.21013765
195833665659107,15.416334,0.022602014,-0.29871312,0.19975294
195833673706646,15.424382,0.10262536,-0.30848694,0.17165314
195833681623915,15.432299,0.16493362,-0.3042109,0.14172074
195833689601223,15.440276,0.21685717,-0.2742785,0.12217305
195833697579877,15.448255,0.23273966,-0.23457226,0.1337795
195833705586800,15.456262,0.22418754,-0.20158553,0.1704314
195833713653684,15.464329,0.19608775,-0.1826487,0.22724187
195833721590300,15.472265,0.17654006,-0.20830505,0.2510656
195833729634261,15.480309,0.15577064,-0.22540927,0.26267207
195833737638530,15.488314,0.12156218,-0.20341812,0.22357668
195833745653684,15.496329,0.086132,-0.1160644,0.1685988
195833753704222,15.504379,6.1086525E-4,0.06841691,0.08307768
195833761625376,15.512300,-0.095294975,0.15515977,0.047647487
195833769604453,15.520279,-0.21502456,0.14538592,0.064751714
195833777584338,15.528259,-0.35979962,0.0030543262,0.15454891
195833785579684,15.536255,-0.42332962,-0.14049901,0.22479841
195833793648299,15.544323,-0.43371433,-0.28955013,0.27305678
195833801550338,15.552225,-0.37934732,-0.4392121,0.31398472
195833809548838,15.560224,-0.2968805,-0.5155703,0.32986724
195833817560991,15.568236,-0.20525073,-0.56138515,0.34391713
195833825576068,15.576251,-0.10140363,-0.5681047,0.36774087
195833833627261,15.584302,-0.02565634,-0.51923543,0.37323865
195833841546914,15.592222,0.059864793,-0.42271876,0.33536503
195833849528722,15.600204,0.106901415,-0.3213151,0.2828306
195833857507991,15.608183,0.13316862,-0.20341812,0.20463985
195833865505645,15.616181,0.14721853,-0.04642576,0.07574729
195833873574722,15.624250,0.14660765,0.04520403,-0.021991149
195833881478107,15.632153,0.12950343,0.10567969,-0.08735373
195833889475414,15.640150,0.06658431,0.12339478,-0.09101892
195833897494799,15.648170,-0.0030543262,0.10140363,-0.051923547
195833905500722,15.656176,-0.06352998,0.05681047,-0.01038471
195833913549876,15.664225,-0.108123146,-0.0036651916,0.025045475
195833921470876,15.672146,-0.12767084,-0.0421497,0.045814894
195833929449837,15.680125,-0.14966199,-0.07147124,0.064751714
195833937429183,15.688104,-0.1563815,-0.07513642,0.062308256
195833945346760,15.696022,-0.15210545,-0.07696902,0.059864793
195833953415683,15.704091,-0.14049901,-0.08674286,0.059253927
195833961318529,15.711994,-0.11789699,-0.09468412,0.037873644
195833969317799,15.719993,-0.087964594,-0.09162979,-0.009162978
195833977341183,15.728016,-0.05009095,-0.0580322,-0.10873401
195833985373337,15.736048,-0.03726278,-0.0036651916,-0.1881465
195833993423375,15.744098,-0.040927973,0.07941248,-0.25534168
195834001339645,15.752015,-0.0580322,0.20097467,-0.34330627
195834009318683,15.759994,-0.076358154,0.2687807,-0.38789943
195834017297068,15.767972,-0.115453534,0.2938262,-0.398895
195834025281491,15.775956,-0.17959438,0.27122417,-0.35979962
195834033349183,15.784024,-0.22113322,0.25350907,-0.30176744
195834041256068,15.791931,-0.24007004,0.24129178,-0.20769419
195834049257029,15.799932,-0.23457226,0.23579398,-0.13439035
195834057247067,15.807922,-0.21013765,0.22724187,-0.08124508
195834065259837,15.815935,-0.15821409,0.21685717,-0.04642576
195834073320106,15.823995,-0.12767084,0.20708331,-0.043982297
195834081239144,15.831914,-0.10995574,0.21868975,-0.051923547
195834089217490,15.839892,-0.108123146,0.23090707,-0.073303826
195834097195875,15.847871,-0.11911872,0.24129178,-0.10140363
195834105190721,15.855866,-0.13805555,0.25717425,-0.14782938
195834113257375,15.863932,-0.17348573,0.26328292,-0.21502456
195834121177336,15.871852,-0.20769419,0.26511553,-0.25961772
195834129173567,15.879849,-0.25411993,0.27672195,-0.31887165
195834137167259,15.887842,-0.2779437,0.28710666,-0.34391713
195834145180183,15.895855,-0.2968805,0.28527406,-0.33353242
195834153227836,15.903903,-0.2883284,0.22296582,-0.27672195
195834161144144,15.911819,-0.26206118,0.15515977,-0.2284636
195834169163413,15.919838,-0.20463985,0.11301007,-0.19975294
