time,seconds_elapsed,z,y,x
1788165215052641800,0.120641845703125,-0.5148940086364746,-0.0727119967341423,0.10400299727916718
1788165215062732800,0.13073291015625,-0.12972800433635712,-0.04337500035762787,-0.04360299929976463
1788165215072827400,0.140827392578125,0.22686900198459625,-0.023778000846505165,-0.23960700631141663
1788165215082921700,0.150921630859375,0.2919969856739044,0.04838100075721741,-0.38007599115371704
1788165215093005800,0.161005859375,0.07920199632644653,0.13723799586296082,-0.42144399881362915
1788165215103098600,0.1710986328125,-0.17563599348068237,0.21120700240135193,-0.5213720202445984
1788165215113195000,0.181195068359375,-0.24149499833583832,0.28713899850845337,-0.7779600024223328
1788165215123289000,0.1912890625,-0.4508090019226074,0.1673389971256256,-0.5385029911994934
1788165215133387000,0.201386962890625,-0.8067060112953186,0.2204820066690445,-0.25783100724220276
1788165215143485200,0.211485107421875,-1.4173669815063477,-0.049201998859643936,-0.7481170296669006
1788165215153579800,0.221579833984375,-1.7036830186843872,-0.38176798820495605,-0.9750540256500244
1788165215163671800,0.231671875,-1.6704169511795044,-0.3447969853878021,-1.0136220455169678
1788165215173767000,0.241766845703125,-1.5938600301742554,-0.3994399905204773,-0.9985759854316711
1788165215183859700,0.251859619140625,-1.8485770225524902,-0.3788979947566986,-1.291867971420288
1788165215193954600,0.26195458984375,-1.9215179681777954,-0.26218101382255554,-1.7929439544677734
1788165215204046300,0.27204638671875,-0.9106199741363525,-0.15210400521755219,-1.8317129611968994
1788165215214136800,0.28213671875,-0.5788319706916809,-0.07585299760103226,-1.5543169975280762
1788165215224229600,0.292229736328125,-0.1341789960861206,0.12331099808216095,-1.828840970993042
1788165215234321400,0.3023212890625,-0.15952199697494507,-0.24164600670337677,-1.9161629676818848
1788165215244419800,0.312419921875,-0.4631989896297455,-0.6439520120620728,-2.073054075241089
1788165215254515000,0.322514892578125,-1.2985659837722778,-0.36767300963401794,-2.4419820308685303
1788165215264608500,0.3326083984375,-1.4344379901885986,-0.6143440008163452,-1.233335018157959
1788165215274699800,0.34269970703125,-1.3893239498138428,-0.9757459759712219,-0.4732550084590912
1788165215284791000,0.352791015625,-0.7960739731788635,-1.4974850416183472,-1.5557359457015991
1788165215294885400,0.362885498046875,-0.09991200268268585,-1.9931639432907104,-2.04988694190979
1788165215304979200,0.372979248046875,-0.8960909843444824,-3.049199104309082,-1.9140080213546753
1788165215315077600,0.38307763671875,-1.805493950843811,-3.3847720623016357,-1.3197109699249268
1788165215325173200,0.39317333984375,-2.2395200729370117,-2.6245169639587402,-1.892549991607666
1788165215335266800,0.403266845703125,-2.172956943511963,-1.7423570156097412,-2.277764081954956
1788165215345365800,0.41336572265625,-1.4499800205230713,-0.8749480247497559,-2.5586259365081787
1788165215355452200,0.4234521484375,-0.038624998182058334,-0.2803019881248474,-3.7132298946380615
1788165215365547000,0.433547119140625,0.08558200299739838,-1.3047679662704468,-3.9727370738983154
1788165215375635200,0.44363525390625,1.1217479705810547,-1.505478024482727,-4.294118881225586
1788165215385727000,0.45372705078125,1.3518179655075073,-1.5383750200271606,-4.236056804656982
1788165215395819500,0.463819580078125,1.5954920053482056,-1.327023983001709,-4.437154769897461
1788165215405913000,0.4739130859375,3.582119941711426,-2.258039951324463,-3.5281519889831543
1788165215415996400,0.483996337890625,4.311028957366943,-2.3071439266204834,-2.0844130516052246
1788165215426089200,0.494089111328125,3.133078098297119,-1.9380320310592651,-0.9898489713668823
1788165215436177000,0.504177001953125,0.674278974533081,-2.1345269680023193,-0.552245020866394
1788165215446266600,0.5142666015625,-1.808732032775879,-1.0256739854812622,-0.7743639945983887
1788165215456363300,0.52436328125,-3.000840902328491,-0.7685080170631409,-0.7580419778823853
1788165215466460400,0.53446044921875,-1.7542829513549805,-0.38958799839019775,-1.6321769952774048
1788165215476550100,0.544550048828125,-2.4213640689849854,-0.09279700368642807,-0.945114016532898
1788165215486647300,0.554647216796875,-2.941641092300415,-0.2997409999370575,0.2568399906158447
1788165215496742700,0.56474267578125,-3.1136770248413086,-0.8638989925384521,0.5232549905776978
1788165215506841300,0.57484130859375,-2.5481150150299072,-1.6439900398254395,0.5870980024337769
1788165215516925400,0.584925537109375,-1.687214970588684,-1.9683129787445068,0.7947019934654236
1788165215527015000,0.595014892578125,-0.8516160249710083,-2.0104799270629883,0.6779019832611084
1788165215537106200,0.605106201171875,0.4241650104522705,-1.5241459608078003,-0.30571699142456055
1788165215547196400,0.615196533203125,0.9937829971313477,-0.594165027141571,-0.3637099862098694
1788165215557291300,0.625291259765625,1.4138059616088867,0.016127999871969223,0.24514299631118774
1788165215567386400,0.635386474609375,1.796684980392456,-0.14704300463199615,0.9309890270233154
1788165215577480400,0.64548046875,0.16867299377918243,-0.4030289947986603,0.7103070020675659
1788165215587573500,0.655573486328125,-4.03041410446167,-1.1437660455703735,-0.039563000202178955
1788165215597663700,0.665663818359375,-2.7940540313720703,-2.0637168884277344,1.2906169891357422
1788165215607755300,0.67575537109375,0.38374999165534973,-3.0498878955841064,2.6846859455108643
1788165215617843000,0.685843017578125,2.08670711517334,-3.1804449558258057,2.6360599994659424
1788165215627932200,0.69593212890625,2.648082971572876,-2.377842903137207,1.6901979446411133
1788165215638017000,0.70601708984375,2.46174693107605,-1.5324759483337402,0.5378959774971008
1788165215648113000,0.71611279296875,0.99480801820755,-0.8031749725341797,0.2835800051689148
1788165215658202000,0.7262021484375,0.8329939842224121,-0.4904380142688751,-0.12437000125646591
1788165215668290000,0.7362900390625,2.123538017272949,-0.6165570020675659,-0.8178330063819885
1788165215678379500,0.746379638671875,3.692254066467285,-0.8185470104217529,-0.313944011926651
1788165215688469500,0.756469482421875,4.856379985809326,-1.1892579793930054,0.9968410134315491
1788165215698563800,0.766563720703125,4.970620155334473,-1.6278270483016968,2.0488390922546387
1788165215708652500,0.776652587890625,4.619972229003906,-1.859336018562317,2.4204349517822266
1788165215718741000,0.786740966796875,3.9474270343780518,-1.237550973892212,1.8982800245285034
1788165215728832800,0.796832763671875,2.5054450035095215,-0.1404850035905838,0.6324040293693542
1788165215738932200,0.80693212890625,1.9172780513763428,0.7338650226593018,-1.533810019493103
1788165215749025300,0.817025390625,3.0136539936065674,1.391327977180481,-3.037214994430542
1788165215759113200,0.82711328125,4.692859172821045,1.3874659538269043,-2.5747110843658447
1788165215769205200,0.837205322265625,5.811515808105469,0.6444540023803711,-0.9022369980812073
1788165215779298600,0.847298583984375,6.103189945220947,-0.27194398641586304,1.0277069807052612
1788165215789388800,0.857388916015625,5.375759124755859,-0.9573829770088196,1.8403199911117554
1788165215799480000,0.86747998046875,4.643354892730713,-1.0671310424804688,1.9877150058746338
1788165215809567000,0.87756689453125,4.340338230133057,-0.08777099847793579,1.9467439651489258
1788165215819658500,0.887658447265625,4.329227924346924,0.43463200330734253,-0.10622499883174896
1788165215829739300,0.8977392578125,5.022450923919678,1.0685299634933472,-2.3587520122528076
1788165215839837000,0.9078369140625,6.631296157836914,2.4979770183563232,-3.6852660179138184
1788165215849916200,0.917916259765625,6.961696147918701,1.8818869590759277,-3.598351001739502
1788165215860005000,0.928005126953125,6.706752777099609,1.127316951751709,-2.5343210697174072
1788165215870089700,0.93808984375,6.332991123199463,0.9082139730453491,-1.267179012298584
1788165215880180200,0.94818017578125,5.835729122161865,1.2254029512405396,-1.137158989906311
1788165215890264300,0.958264404296875,4.868210792541504,1.9504669904708862,-2.303529977798462
1788165215900354300,0.968354248046875,4.405738830566406,3.1412580013275146,-3.5852649211883545
1788165215910445000,0.978445068359375,3.5566658973693848,3.652740955352783,-4.299229145050049
1788165215920538400,0.988538330078125,2.8798511028289795,3.6009750366210938,-4.459300994873047
1788165215930624800,0.998624755859375,2.1958250999450684,3.3690130710601807,-3.7963500022888184
1788165215940714800,1.00871484375,1.1290899515151978,3.174654960632324,-3.265316963195801
1788165215950799600,1.018799560546875,0.1703599989414215,3.1599700450897217,-2.9957239627838135
1788165215960899600,1.028899658203125,-0.42399001121520996,3.1849420070648193,-2.614557981491089
1788165215970986800,1.03898681640625,0.12420900166034698,3.3472371101379395,-2.252336025238037
1788165215981073000,1.049072998046875,0.5395969748497009,2.648736000061035,-1.7055009603500366
1788165215991153700,1.059153564453125,-0.1771010011434555,2.12620210647583,-1.3916139602661133
1788165216001246000,1.069245849609375,-0.87254399061203,2.011892080307007,-0.9639469981193542
1788165216011332600,1.07933251953125,-1.0733050107955933,2.3151800632476807,-0.8198140263557434
1788165216021419000,1.0894189453125,-1.0121999979019165,1.8213069438934326,-0.9405760169029236
1788165216031505400,1.09950537109375,-0.08354199677705765,1.881721019744873,-0.881754994392395
1788165216041596400,1.109596435546875,-0.40163299441337585,1.3150299787521362,-0.46241798996925354
1788165216051681000,1.119680908203125,-0.5049610137939453,0.8035510182380676,-0.03820699825882912
1788165216061770200,1.129770263671875,-0.5830180048942566,0.8455309867858887,0.29649800062179565
1788165216071860700,1.13986083984375,-1.1100330352783203,0.8310920000076294,0.1047080010175705
1788165216081954600,1.14995458984375,-1.7405370473861694,0.9831500053405762,-0.24539199471473694
1788165216092046600,1.160046630859375,-2.0378150939941406,1.3421980142593384,-0.5154820084571838
1788165216102134000,1.170134033203125,-1.6785470247268677,2.1105499267578125,-1.3144739866256714
1788165216112221400,1.180221435546875,-1.557737946510315,2.921328067779541,-1.947458028793335
1788165216122318300,1.190318359375,-2.775538921356201,3.1506950855255127,-1.6618469953536987
1788165216132398800,1.20039892578125,-4.39666223526001,3.194448947906494,-0.28208300471305847
1788165216142492000,1.210491943359375,-4.042698860168457,2.6943230628967285,-0.3699139952659607
1788165216152579000,1.2205791015625,-3.2777459621429443,2.613123893737793,-1.083333969116211
1788165216162664200,1.230664306640625,-2.4691851139068604,3.013576030731201,-2.150197982788086
1788165216172758300,1.24075830078125,-2.235680103302002,2.6540579795837402,-1.8889700174331665
1788165216182854000,1.25085400390625,-3.1506690979003906,1.5494569540023804,-0.9528170228004456
1788165216192953000,1.260953125,-3.28582501411438,1.1333849430084229,0.22072599828243256
1788165216203047200,1.271047119140625,-3.227109909057617,1.3006349802017212,0.9738820195198059
1788165216213135600,1.281135498046875,-1.2625969648361206,0.5254129767417908,0.15760399401187897
1788165216223221800,1.2912216796875,-1.5818690061569214,0.601315975189209,0.6077039837837219
1788165216233313000,1.30131298828125,-1.6749069690704346,0.09105800092220306,1.5127589702606201
1788165216243407000,1.311406982421875,-1.6855180263519287,0.19448399543762207,2.027312994003296
1788165216253493000,1.321492919921875,-1.7575900554656982,-0.05094299837946892,2.2308640480041504
1788165216263583200,1.331583251953125,-1.9884649515151978,-0.18921500444412231,3.3064699172973633
1788165216273666800,1.341666748046875,-1.9290380477905273,0.6042649745941162,1.4347519874572754
1788165216283762700,1.3517626953125,0.2514989972114563,-0.8178859949111938,3.185580015182495
1788165216293859000,1.361859130859375,1.6806600093841553,-1.4099290370941162,3.2779719829559326
1788165216303956500,1.37195654296875,2.6595919132232666,-1.1695729494094849,2.9569098949432373
1788165216314047500,1.382047607421875,4.122768878936768,-0.7506849765777588,3.7571229934692383
1788165216324140000,1.39214013671875,4.360435962677002,-0.52183598279953,3.494286060333252
1788165216334230800,1.402230712890625,4.104669094085693,-1.4128010272979736,2.9636759757995605
1788165216344316200,1.412316162109375,2.5823171138763428,-2.987096071243286,3.2671821117401123
1788165216354408400,1.422408447265625,1.1364890336990356,-3.4114060401916504,1.9530359506607056
1788165216364499200,1.432499267578125,1.203091025352478,-3.124845027923584,0.42117300629615784
1788165216374588400,1.44258837890625,1.2794439792633057,-3.2296829223632812,-2.1765708923339844
1788165216384677600,1.452677734375,1.9637949466705322,-3.363990068435669,-3.7352099418640137
1788165216394768100,1.46276806640625,3.7001678943634033,-2.9579739570617676,-3.069399118423462
1788165216404856800,1.47285693359375,3.4299919605255127,-1.8456979990005493,0.8238059878349304
1788165216414939600,1.482939697265625,0.7628080248832703,-5.18767786026001,3.9279708862304688
1788165216425028000,1.493028076171875,-4.092658042907715,-9.726863861083984,-0.6204509735107422
1788165216435118300,1.503118408203125,-5.954049110412598,-7.763354778289795,-4.232041835784912
1788165216445210600,1.513210693359375,-3.2542738914489746,-2.3181068897247314,-4.065847873687744
1788165216455294200,1.523294189453125,-1.0985909700393677,0.16371800005435944,-5.312179088592529
1788165216465384000,1.533384033203125,0.6955249905586243,-0.9602169990539551,-7.424983978271484
1788165216475476500,1.5434765625,1.8763680458068848,-3.2657549381256104,-7.662868022918701
1788165216485565000,1.55356494140625,-0.5582470297813416,-3.4992809295654297,-4.891327857971191
1788165216495659000,1.563658935546875,-1.59225594997406,-0.7959049940109253,-3.902884006500244
1788165216505752300,1.57375244140625,-0.2882699966430664,-0.7456750273704529,-4.170361042022705
1788165216515849000,1.583848876953125,5.272039890289307,0.43029099702835083,-3.1860179901123047
1788165216525940000,1.59393994140625,-2.493567943572998,0.017596999183297157,-1.2776989936828613
1788165216536027000,1.60402685546875,-2.606117010116577,-0.8813930153846741,0.783490002155304
1788165216546117000,1.6141171875,-0.5110859870910645,-2.0512681007385254,2.3653080463409424
1788165216556201700,1.62420166015625,1.704906940460205,-2.7128798961639404,3.4219748973846436
1788165216566283500,1.634283447265625,2.281095027923584,-4.98989200592041,4.052861213684082
1788165216576376600,1.64437646484375,-1.3383400440216064,-2.033622980117798,1.9282989501953125
1788165216586462700,1.654462646484375,0.7262110114097595,0.6554589867591858,0.21862399578094482
1788165216596543200,1.664543212890625,4.799088001251221,0.480571985244751,0.25517600774765015
1788165216606627600,1.674627685546875,5.060457229614258,-1.2740620374679565,2.3302578926086426
1788165216616724500,1.684724365234375,1.0078660249710083,-1.021420955657959,3.137470006942749
1788165216626803000,1.694802978515625,-2.86741304397583,2.199510097503662,1.6957950592041016
1788165216636887800,1.7048876953125,-7.826976776123047,4.944457054138184,-0.32086101174354553
1788165216646973400,1.714973388671875,-6.763110160827637,7.4875288009643555,-2.735858917236328
1788165216657059800,1.725059814453125,-3.9025089740753174,8.445801734924316,-4.337163925170898
1788165216667150000,1.735150146484375,-0.8229280114173889,9.467058181762695,-4.843851089477539
1788165216677238000,1.745238037109375,1.9354829788208008,9.557229042053223,-3.0291481018066406
1788165216687321900,1.75532177734375,1.8031820058822632,8.617959976196289,-0.49135899543762207
1788165216697423600,1.765423583984375,0.7539510130882263,6.2720627784729,2.712764024734497
1788165216707507500,1.775507568359375,-0.4218980073928833,4.974573135375977,5.1429362297058105
1788165216717596000,1.785595947265625,-2.24072003364563,4.534724235534668,5.0895490646362305
1788165216727680800,1.7956806640625,-3.169318914413452,5.791226863861084,2.0352070331573486
1788165216737773000,1.80577294921875,-3.7245919704437256,7.268426895141602,-1.1611180305480957
1788165216747857700,1.815857666015625,-2.47065806388855,6.377996921539307,-4.088843822479248
1788165216757946400,1.8259462890625,-0.5382890105247498,4.626530170440674,-1.8709310293197632
1788165216768025900,1.83602587890625,-1.1909719705581665,-2.397653102874756,3.775585889816284
1788165216778110200,1.846110107421875,2.821866989135742,-4.865800857543945,6.427499771118164
1788165216788202500,1.856202392578125,5.614101886749268,-4.182124137878418,5.071782112121582
1788165216798288600,1.86628857421875,8.360795021057129,-1.9080599546432495,3.2349720001220703
1788165216808378400,1.87637841796875,9.17922592163086,-2.505702018737793,0.9916200041770935
1788165216818457300,1.886457275390625,9.103618621826172,-3.383842945098877,-2.051527976989746
1788165216828541700,1.896541748046875,7.305610179901123,-6.8036417961120605,-2.218708038330078
1788165216838626800,1.906626708984375,8.307880401611328,-6.073111057281494,0.8740130066871643
1788165216848706000,1.9167060546875,6.380411148071289,-5.408390045166016,-0.7285450100898743
1788165216858796300,1.92679638671875,5.372167110443115,-4.419299125671387,-6.560863971710205
1788165216868884000,1.936884033203125,-3.2532858848571777,-8.60864543914795,-15.274151802062988
1788165216878975500,1.9469755859375,-17.372314453125,-3.4983279705047607,-9.588013648986816
1788165216889060600,1.957060546875,-9.550203323364258,-2.1579198837280273,-2.9766530990600586
1788165216899147000,1.96714697265625,-1.3552919626235962,-1.896543025970459,-1.1010169982910156
1788165216909228800,1.977228759765625,-0.11474800109863281,-2.9914000034332275,-3.079694986343384
1788165216919317800,1.98731787109375,-0.3599979877471924,-3.0208709239959717,-3.241969108581543
1788165216929404200,1.997404052734375,-0.22239400446414948,-3.112031936645508,-2.5842819213867188
1788165216949589200,2.01758935546875,0.484950989484787,-2.936784029006958,-5.2850022315979
1788165216959680800,2.0276806640625,1.0483360290527344,-3.9208719730377197,-5.740763187408447
1788165216969766700,2.0377666015625,1.0550600290298462,-4.93618106842041,-6.889162063598633
1788165216979851800,2.047851806640625,0.5478929877281189,-6.120140075683594,-2.5228240489959717
1788165216989933000,2.05793310546875,0.3055739998817444,-6.002352237701416,1.7537800073623657
1788165217000024300,2.0680244140625,0.47466298937797546,-3.342223882675171,3.0266220569610596
1788165217010102500,2.0781025390625,0.563323974609375,-1.630429983139038,-1.3979359865188599
1788165217020196400,2.0881962890625,0.15897400677204132,-0.7098820209503174,-6.464560031890869
1788165217030282000,2.098281982421875,-0.27579399943351746,1.7808289527893066,-10.848797798156738
1788165217040366600,2.10836669921875,-0.4762910008430481,4.406667232513428,-14.048637390136719
1788165217050460000,2.1184599609375,0.3969919979572296,3.2040209770202637,-11.363565444946289
1788165217060549000,2.128549072265625,3.5858640670776367,-0.015087000094354153,-1.374245047569275
1788165217070629000,2.138629150390625,3.360841989517212,-0.8087499737739563,3.044610023498535
1788165217080729300,2.148729248046875,8.334724426269531,-0.33460599184036255,6.645352840423584
1788165217090819600,2.158819580078125,1.1489109992980957,-2.619697093963623,9.516962051391602
1788165217100920300,2.16892041015625,-3.6433370113372803,-2.070033073425293,10.344137191772461
1788165217111002600,2.179002685546875,-3.018204927444458,2.4857819080352783,9.52307415008545
1788165217121091000,2.189091064453125,-1.6899269819259644,5.548248767852783,8.116009712219238
1788165217131179300,2.19917919921875,-1.3939249515533447,4.8226728439331055,7.656116962432861
1788165217141267200,2.20926708984375,-1.7424819469451904,2.954303026199341,7.0857648849487305
1788165217151352800,2.219352783203125,-1.489076018333435,1.8821660280227661,7.865512847900391
1788165217161449700,2.22944970703125,-0.764519989490509,-1.2391560077667236,10.253156661987305
1788165217171534800,2.239534912109375,0.1972309947013855,-1.4855879545211792,12.11379623413086
1788165217181632800,2.2496328125,0.7680270075798035,0.26031601428985596,9.756270408630371
1788165217191723800,2.259723876953125,2.54831600189209,1.609771966934204,8.34671688079834
1788165217201817000,2.269817138671875,2.1489310264587402,2.24967098236084,7.452456951141357
1788165217211908600,2.27990869140625,1.6117850542068481,2.562772035598755,6.323860168457031
1788165217221992400,2.289992431640625,-1.7608909606933594,1.6244820356369019,0.7797930240631104
1788165217232082000,2.30008203125,-4.1340460777282715,-0.04192199930548668,-1.1837600469589233
1788165217242174500,2.310174560546875,-5.3210129737854,-0.8989319801330566,0.5032830238342285
1788165217252256800,2.3202568359375,-3.6157219409942627,0.8703569769859314,1.146461009979248
1788165217262356500,2.3303564453125,-1.887384057044983,2.081576108932495,2.642498016357422
1788165217272431600,2.340431640625,-0.6174010038375854,1.8448020219802856,3.4393808841705322
1788165217292607200,2.360607177734375,-0.5575129985809326,-9.042885780334473,6.174502849578857
1788165217302709500,2.37070947265625,7.622665882110596,-6.240396976470947,0.8889780044555664
1788165217312800300,2.38080029296875,9.87308120727539,-5.6587371826171875,-2.964570999145508
1788165217322901800,2.39090185546875,6.621133804321289,-5.016671180725098,-5.408010959625244
1788165217332986600,2.400986572265625,2.7093169689178467,-5.449213027954102,-7.2092719078063965
1788165217343083000,2.4110830078125,-1.5533839464187622,-4.111151218414307,-10.342363357543945
1788165217353172500,2.42117236328125,-1.2760159969329834,0.899520993232727,-13.833097457885742
1788165217363262200,2.43126220703125,-10.448904037475586,2.175652027130127,-17.16979217529297
1788165217373350400,2.441350341796875,-7.979462146759033,-0.2052379995584488,-10.718908309936523
1788165217383449300,2.451449462890625,-0.49347299337387085,-4.085554122924805,-4.450022220611572
1788165217393538000,2.4615380859375,2.2594199180603027,-7.372492790222168,-1.837792992591858
1788165217403634400,2.471634521484375,2.522265911102295,-3.1453709602355957,0.8896650075912476
1788165217413719800,2.4817197265625,0.8271219730377197,0.9654409885406494,-0.04195600003004074
1788165217423826700,2.49182666015625,-1.445261001586914,0.8376060128211975,-1.5429840087890625
1788165217433918500,2.50191845703125,-1.2330440282821655,-1.6786739826202393,-1.934244990348816
1788165217444010200,2.51201025390625,0.4662039875984192,-2.9998440742492676,-1.6816389560699463
1788165217454096400,2.522096435546875,0.15319499373435974,-1.9619590044021606,-2.5206830501556396
1788165217464187400,2.5321875,-0.21731600165367126,-0.580016016960144,-2.5238139629364014
1788165217474271500,2.542271484375,0.631201982498169,0.6056770086288452,-1.122725009918213
1788165217484367600,2.55236767578125,2.512800931930542,1.2639679908752441,-1.4284629821777344
1788165217494451500,2.562451416015625,-1.6763240098953247,1.6425679922103882,-1.6844960451126099
1788165217504541700,2.572541748046875,-2.469738006591797,1.9811129570007324,-1.9272830486297607
1788165217514626300,2.582626220703125,-1.4538480043411255,1.6818640232086182,-0.7338610291481018
1788165217524712000,2.5927119140625,-0.9304659962654114,0.32955801486968994,0.9230729937553406
1788165217534793700,2.602793701171875,-0.32045501470565796,-0.8530700206756592,1.5779579877853394
1788165217544888800,2.612888916015625,-0.9221529960632324,-2.0898139476776123,2.620884895324707
1788165217554963700,2.622963623046875,1.2676030397415161,-3.8300890922546387,1.8636159896850586
1788165217565055000,2.633054931640625,2.6570839881896973,-4.832217216491699,0.7726250290870667
1788165217575135000,2.643135009765625,3.5387918949127197,-3.659451961517334,2.1015560626983643
1788165217585232600,2.653232666015625,-1.6294959783554077,-1.0124390125274658,1.71766996383667
1788165217595312600,2.663312744140625,-4.4936699867248535,2.267707109451294,0.5957689881324768
1788165217605406000,2.673406005859375,-3.0638699531555176,4.3512282371521,0.6917740106582642
1788165217615487200,2.6834873046875,-0.5444759726524353,6.1911468505859375,1.7907689809799194
1788165217625575400,2.693575439453125,-0.3490619957447052,5.604278087615967,1.9561259746551514
1788165217635655700,2.70365576171875,0.02102999947965145,2.1805930137634277,0.29329800605773926
1788165217645750800,2.713750732421875,1.1898659467697144,0.6225900053977966,0.1910959929227829
1788165217655837700,2.723837646484375,1.8194659948349,0.7802519798278809,-0.09504099935293198
1788165217665929000,2.733928955078125,0.08744200319051743,0.585722029209137,0.6839579939842224
1788165217676012800,2.7440126953125,1.2828149795532227,0.9634490013122559,0.8763359785079956
1788165217686108000,2.75410791015625,0.23202000558376312,0.30923599004745483,-1.4133549928665161
1788165217696182800,2.764182861328125,-0.7562159895896912,-1.0717660188674927,-2.2872190475463867
1788165217706267400,2.774267333984375,-0.6985639929771423,-0.14199599623680115,-2.548305034637451
1788165217716348200,2.78434814453125,0.5218830108642578,1.8667060136795044,-3.0700809955596924
1788165217726441700,2.794441650390625,1.0590319633483887,1.4263050556182861,-1.9234050512313843
1788165217736532500,2.804532470703125,1.0943390130996704,1.2643049955368042,-0.812296986579895
1788165217746614800,2.81461474609375,-0.060614001005887985,1.585476040840149,-0.14614899456501007
1788165217756708400,2.824708251953125,-0.1744990050792694,1.0699199438095093,-0.19358600676059723
1788165217766804200,2.83480419921875,0.43389299511909485,-0.3473849892616272,-0.6443610191345215
1788165217776890000,2.84489013671875,0.8111240267753601,-1.4013309478759766,-1.306115984916687
1788165217786981600,2.854981689453125,0.9531639814376831,-1.0058979988098145,-1.617645025253296
1788165217797069000,2.865069091796875,0.9513019919395447,-0.0784119963645935,-0.8987860083580017
1788165217807157000,2.875156982421875,0.23003000020980835,0.7689710259437561,0.7820000052452087
1788165217817239300,2.8852392578125,-0.22649699449539185,1.7215290069580078,2.620690107345581
1788165217827334400,2.89533447265625,-0.7783240079879761,1.8041969537734985,4.242746829986572
1788165217837415400,2.90541552734375,-0.6416789889335632,1.654325008392334,4.407283782958984
1788165217847500000,2.9155,-0.6388890147209167,2.2604029178619385,3.4120359420776367
1788165217857595600,2.925595703125,-1.0836390256881714,3.687903881072998,3.0048060417175293
1788165217867686700,2.935686767578125,0.07354799658060074,5.072082042694092,2.6720829010009766
1788165217877780000,2.945780029296875,2.1991031169891357,6.6520891189575195,0.6607540249824524
1788165217887868000,2.955867919921875,1.3140770196914673,4.1175971031188965,-1.5075739622116089
1788165217897954000,2.9659541015625,-2.4279229640960693,0.1866219937801361,-2.373012065887451
1788165217908046800,2.976046875,-2.2839479446411133,-2.9855868816375732,-3.4157779216766357
1788165217918135800,2.9861357421875,-1.161113977432251,-4.187119007110596,-4.111845970153809
1788165217928227300,2.996227294921875,0.721572995185852,-3.049576997756958,-2.6507949829101562
1788165217938320100,3.006320068359375,1.2707959413528442,-3.988642930984497,-4.527031898498535
1788165217948404500,3.016404541015625,0.35678398609161377,-1.011610984802246,-2.9232211112976074
1788165217958492200,3.0264921875,-0.45484301447868347,1.7406909465789795,-1.5429519414901733
1788165217968578300,3.036578369140625,0.04340000078082085,2.1913199424743652,-0.2310190051794052
1788165217978664000,3.046663818359375,-0.007203999906778336,-1.5621229410171509,0.8529629707336426
1788165217988749300,3.056749267578125,0.4613659977912903,-4.448060035705566,0.7081549763679504
1788165217998826800,3.06682666015625,0.1333950012922287,-4.783620834350586,-0.3100360035896301
1788165218008920600,3.076920654296875,0.3179109990596771,-3.7271931171417236,-0.8545770049095154
1788165218019013600,3.087013671875,-0.11420000344514847,-2.4553980827331543,-1.197195053100586
1788165218029100500,3.0971005859375,-1.2447799444198608,-2.933403968811035,-1.4815629720687866
1788165218039185700,3.107185546875,1.8207520246505737,-0.4061169922351837,0.03112800046801567
1788165218049279000,3.117279052734375,-0.3061710000038147,0.2939150035381317,1.3721280097961426
1788165218059364600,3.127364501953125,0.12205599993467331,-2.012265920639038,2.1477019786834717
1788165218069457200,3.13745703125,0.165926992893219,-4.6981401443481445,2.1230030059814453
1788165218079552500,3.147552490234375,0.7617120146751404,-5.215087890625,0.8705629706382751
1788165218089637000,3.15763720703125,2.388874053955078,-3.2295970916748047,-1.3768080472946167
1788165218099725800,3.167725830078125,3.631732940673828,-4.8675971031188965,-2.1784019470214844
1788165218109820400,3.1778203125,3.188654899597168,-5.26025390625,-0.8016300201416016
1788165218119906300,3.18790625,-2.671689987182617,1.9374710321426392,-0.49646300077438354
1788165218129989600,3.19798974609375,-3.5482230186462402,4.488350868225098,-0.13218000531196594
1788165218140079600,3.20807958984375,-2.0870909690856934,4.899835109710693,1.7952630519866943
1788165218150166300,3.218166259765625,-1.3186969757080078,1.7113380432128906,3.356806993484497
1788165218160250400,3.22825048828125,-2.160573959350586,-0.03844999894499779,3.3888449668884277
1788165218170342700,3.2383427734375,-2.838658094406128,1.402627944946289,3.0037920475006104
1788165218180436200,3.248436279296875,-0.5617719888687134,3.7342050075531006,2.286562919616699
1788165218190523000,3.25852294921875,2.228729009628296,3.277482032775879,1.5882710218429565
1788165218200617000,3.268616943359375,4.1428542137146,0.3250890076160431,0.6663140058517456
1788165218210710500,3.27871044921875,2.4774820804595947,-2.8155839443206787,-0.7152500152587891
1788165218220803000,3.288802978515625,2.053339958190918,-4.6031341552734375,-1.3659520149230957
1788165218230891000,3.29889111328125,-0.4218840003013611,-4.126889228820801,-1.6496150493621826
1788165218240977700,3.308977783203125,-2.563293933868408,-2.7967491149902344,-1.1031819581985474
1788165218251064600,3.319064697265625,-2.049644947052002,-1.5213170051574707,0.04503900185227394
1788165218261149200,3.329149169921875,-0.01736300066113472,-1.1799860000610352,-0.43097999691963196
1788165218271233500,3.339233642578125,-2.404620885848999,-0.8232200145721436,0.4307740032672882
1788165218281327400,3.349327392578125,-0.825435996055603,-0.4754210114479065,0.47857600450515747
1788165218291420700,3.359420654296875,-1.2176979780197144,-0.1955679953098297,-0.07131099700927734
1788165218301509400,3.36950927734375,-1.2255489826202393,0.3172459900379181,-0.6650959849357605
1788165218311600000,3.37960009765625,-0.5864890217781067,0.3719109892845154,-0.3503049910068512
1788165218321688300,3.389688232421875,0.19368800520896912,-0.20791900157928467,-0.30046701431274414
1788165218331778800,3.39977880859375,1.0269370079040527,-0.7089920043945312,-0.20893000066280365
1788165218341874700,3.409874755859375,1.198801040649414,-0.33622801303863525,-0.5647220015525818
1788165218351958300,3.419958251953125,0.07539500296115875,-0.21373200416564941,-1.2250640392303467
1788165218362046700,3.430046630859375,-0.6675059795379639,0.5321869850158691,-1.8401089906692505
1788165218372136400,3.440136474609375,5.184479236602783,3.57684588432312,-2.3891570568084717
1788165218382223600,3.4502236328125,0.5309690237045288,5.144999027252197,-2.60567307472229
1788165218392315400,3.4603154296875,-2.336134910583496,2.504905939102173,-0.49496299028396606
1788165218402402000,3.470402099609375,-2.9330151081085205,0.43448999524116516,0.07162199914455414
1788165218412493000,3.4804931640625,-0.9694070219993591,-0.4788129925727844,0.8805099725723267
1788165218422586400,3.49058642578125,1.1164089441299438,-0.38356098532676697,1.7738399505615234
1788165218432678700,3.5006787109375,2.4064431190490723,-0.18189799785614014,1.3065409660339355
1788165218442769200,3.51076904296875,1.7470029592514038,0.6778609752655029,0.39055898785591125
1788165218452861200,3.520861083984375,0.7578949928283691,0.44595998525619507,-0.2765519917011261
1788165218462944300,3.5309443359375,0.16662199795246124,-1.1681790351867676,-0.3012320101261139
1788165218473036300,3.541036376953125,-0.028553999960422516,-2.3249900341033936,-0.4445199966430664
1788165218483130600,3.551130615234375,-0.06925299763679504,-1.6604180335998535,-0.7662050127983093
1788165218493225000,3.561224853515625,-0.08752000331878662,-0.4162200093269348,-0.7793310284614563
1788165218503312400,3.5713125,1.083184003829956,1.4227110147476196,-0.6926289796829224
1788165218513410600,3.58141064453125,3.262824058532715,2.267849922180176,-0.6792330145835876
1788165218523496000,3.591495849609375,0.7242990136146545,-0.6070079803466797,2.2030398845672607
1788165218533584600,3.601584716796875,-1.5461900234222412,-3.821122884750366,4.1341872215271
1788165218543675100,3.611675048828125,-2.17759108543396,-3.016221046447754,0.8096920251846313
1788165218553768200,3.621768310546875,-1.9649569988250732,-1.903059959411621,-0.2667100131511688
1788165218563856600,3.631856689453125,-1.397326946258545,0.5113160014152527,-0.6523630023002625
1788165218573945900,3.64194580078125,-0.932682991027832,1.807265043258667,-0.6542230248451233
1788165218584029700,3.65202978515625,-1.2118439674377441,2.5584259033203125,0.6986830234527588
1788165218594116900,3.662116943359375,-0.5160859823226929,0.9703760147094727,2.100450038909912
1788165218604192800,3.67219287109375,0.6945289969444275,-2.3935000896453857,3.658838987350464
1788165218614283500,3.682283447265625,1.5255459547042847,-6.473468780517578,3.7201170921325684
1788165218624370200,3.6923701171875,0.7362189888954163,-6.009461879730225,0.41061198711395264
1788165218634463500,3.70246337890625,0.08674799650907516,-3.2169299125671387,-1.0152080059051514
1788165218644542200,3.712542236328125,1.462986946105957,2.044857978820801,-3.2757349014282227
1788165218654649300,3.7226494140625,0.49625200033187866,3.503308057785034,-4.000415802001953
1788165218664732000,3.73273193359375,0.5286629796028137,3.3662750720977783,-2.5717248916625977
1788165218674815000,3.74281494140625,-1.476850986480713,0.16710099577903748,1.0238310098648071
1788165218684901000,3.752901123046875,0.42718398571014404,1.0673450231552124,-0.3817490041255951
1788165218694985700,3.76298583984375,1.4838659763336182,0.03291799873113632,-1.5438469648361206
1788165218705070600,3.773070556640625,1.054955005645752,0.7596409916877747,-2.480742931365967
1788165218715151000,3.783151123046875,0.3122369945049286,2.613403081893921,-2.5484979152679443
1788165218725238800,3.79323876953125,-0.6531869769096375,1.7214139699935913,-0.7607049942016602
1788165218735330300,3.803330322265625,-1.385293960571289,2.846764087677002,-0.12666800618171692
1788165218745415700,3.813415771484375,-0.7709529995918274,3.949376106262207,-2.291187047958374
1788165218755505400,3.82350537109375,0.3649190068244934,5.418793201446533,-3.011965036392212
1788165218765589000,3.833589111328125,1.0006779432296753,4.267006874084473,-3.673582077026367
1788165218775677000,3.843677001953125,0.5266860127449036,4.151963233947754,-2.2655038833618164
1788165218785766400,3.853766357421875,-0.2600730061531067,2.1400671005249023,-0.8797969818115234
1788165218795849000,3.863848876953125,-0.8146020174026489,2.618156909942627,0.14475299417972565
1788165218805936600,3.8739365234375,-0.35246801376342773,4.142317771911621,0.26573899388313293
1788165218816017400,3.884017333984375,-0.23088900744915009,1.45927095413208,0.25303301215171814
1788165218826102000,3.89410205078125,-0.31901198625564575,-0.17623600363731384,1.4780889749526978
1788165218836186000,3.90418603515625,0.5094209909439087,2.436713933944702,0.8564509749412537
1788165218846276000,3.914276123046875,0.43888500332832336,2.459212064743042,0.947301983833313
1788165218856372000,3.9243720703125,-0.6662089824676514,1.3336999416351318,-0.9358829855918884
1788165218866471000,3.934470947265625,-1.8048609495162964,1.7388969659805298,-0.5993250012397766
1788165218886644700,3.954644775390625,0.1316940039396286,0.05400799959897995,0.4422309994697571
1788165218896737800,3.96473779296875,1.6085820198059082,2.5010039806365967,-0.1354839950799942
1788165218906836500,3.97483642578125,1.4235550165176392,4.269898891448975,1.1828980445861816
1788165218916933000,3.98493310546875,3.1833269596099854,0.9841639995574951,4.9841108322143555
1788165218927016000,3.995015869140625,-1.461859941482544,-1.8180899620056152,-0.8921930193901062
1788165218937099300,4.005099365234375,-3.8577890396118164,0.17407700419425964,-1.6164499521255493
1788165218947178000,4.015177978515625,-0.5138339996337891,-0.2868019938468933,-1.141008973121643
1788165218957265700,4.025265625,1.3129689693450928,-3.3162689208984375,-2.16471004486084
1788165218967348200,4.03534814453125,1.8451050519943237,-2.206963062286377,-4.275329113006592
1788165218977440300,4.045440185546875,3.903110980987549,-0.7494670152664185,-5.146915912628174
1788165218987526000,4.05552587890625,0.8081610202789307,-2.153918981552124,-3.581533908843994
1788165218997618400,4.065618408203125,2.2171459197998047,-1.120002031326294,-2.5103518962860107
1788165219007703600,4.07570361328125,0.511568009853363,-2.7187280654907227,-1.0425959825515747
1788165219017800400,4.085800537109375,1.6180980205535889,-3.7810139656066895,-1.7143230438232422
1788165219027882000,4.095882080078125,0.7914130091667175,-0.07296600192785263,-3.4843690395355225
1788165219037971000,4.105970947265625,0.2767370045185089,2.568242073059082,-0.318011999130249
1788165219048057900,4.116057861328125,2.2797141075134277,0.09056799858808517,-1.235929012298584
1788165219058144500,4.12614453125,2.9930789470672607,-1.7063050270080566,1.5542219877243042
1788165219068226300,4.136226318359375,3.8532590866088867,-2.519098997116089,2.7329609394073486
1788165219078315500,4.1463154296875,2.998667001724243,-3.709939956665039,-0.5744330286979675
1788165219088399600,4.156399658203125,0.037856001406908035,-1.8024849891662598,0.728630006313324
1788165219098489600,4.166489501953125,0.36986199021339417,-3.019098997116089,1.0635420083999634
1788165219108572000,4.176572021484375,2.461754083633423,-3.5808000564575195,1.7203480005264282
1788165219118659600,4.18665966796875,1.8273769617080688,-0.30369099974632263,1.3420419692993164
1788165219128743400,4.196743408203125,-0.6107479929924011,0.6529080271720886,1.08371102809906
1788165219138834000,4.206833984375,0.20346799492835999,-1.548264980316162,-0.4274919927120209
1788165219148919800,4.216919921875,0.2009740024805069,-4.116314888000488,-1.590245008468628
1788165219159012900,4.227012939453125,-5.243124008178711,-7.569421768188477,-1.5062379837036133
1788165219169101800,4.237101806640625,3.294895887374878,-1.7549010515213013,-4.54876708984375
1788165219199379500,4.26737939453125,0.4085859954357147,-1.5079419612884521,-4.745851993560791
1788165219209461200,4.277461181640625,-1.1558289527893066,-3.2247939109802246,-0.11768200248479843
1788165219219551500,4.287551513671875,0.5379400253295898,-2.132996082305908,1.43887197971344
1788165219239723500,4.3077236328125,0.29209399223327637,-0.028087999671697617,3.4455389976501465
1788165219269983200,4.337983154296875,-1.9730819463729858,4.401534080505371,5.232725143432617
1788165219300255200,4.368255126953125,-2.099018096923828,3.4032750129699707,1.9672579765319824
1788165219320435500,4.388435546875,1.6707849502563477,5.417949199676514,-0.8820840120315552
1788165219350694700,4.418694580078125,1.641517996788025,0.4367690086364746,-2.660320997238159
1788165219360788700,4.428788818359375,1.2655750513076782,-0.42098599672317505,-2.4511189460754395
1788165219380965000,4.448965087890625,-0.17997600138187408,2.609626054763794,-4.148470878601074
1788165219411234600,4.479234619140625,0.4986720085144043,3.8820691108703613,-0.8399649858474731
1788165219421332500,4.48933251953125,0.6749609708786011,-0.9657109975814819,1.0399090051651
1788165219431418600,4.499418701171875,-1.3347280025482178,-2.681809902191162,0.5146520137786865
1788165219441504000,4.50950390625,-1.5763100385665894,-6.5073370933532715,-0.49175599217414856
1788165219471761000,4.539760986328125,0.9759079813957214,-3.194875955581665,-2.390511989593506
1788165219491932400,4.559932373046875,2.360383987426758,-2.985105037689209,-0.5310289859771729
1788165219502023000,4.57002294921875,5.158641815185547,-4.656914234161377,-1.0984230041503906
1788165219522198800,4.59019873046875,-0.348580002784729,3.3548409938812256,-2.1926310062408447
1788165219532285200,4.60028515625,-1.7324700355529785,0.6410830020904541,1.665037989616394
1788165219552465400,4.62046533203125,-1.8503259420394897,-1.0961990356445312,5.90936279296875
1788165219562559500,4.6305595703125,-0.9354259967803955,-0.5742170214653015,5.6946868896484375
1788165219572636200,4.64063623046875,0.4650770127773285,0.2615250051021576,4.733736991882324
1788165219602914600,4.67091455078125,2.732387065887451,-1.4003900289535522,-0.2848089933395386
1788165219623092700,4.6910927734375,-0.15803399682044983,-0.5563089847564697,-3.4171969890594482
1788165219633191700,4.701191650390625,-0.30396199226379395,1.2469719648361206,-5.749485969543457
1788165219643285000,4.711284912109375,-0.8791859745979309,0.5595579743385315,-5.150881767272949
1788165219693724000,4.761723876953125,-1.680482029914856,2.056112051010132,-0.592972993850708
1788165219703817700,4.771817626953125,-4.019017219543457,0.694894015789032,0.4694420099258423
1788165219713898500,4.7818984375,-4.2768778800964355,0.7895200252532959,1.3641330003738403
1788165219734082800,4.802082763671875,2.861013889312744,-0.09177599847316742,-0.2678529918193817
1788165219794626300,4.862626220703125,-2.5135369300842285,-5.800445079803467,-0.21898199617862701
1788165219804716300,4.87271630859375,-2.3342089653015137,-4.994146823883057,-1.34804105758667
1788165219834984400,4.902984375,-3.6167399883270264,-2.2132151126861572,-5.3079352378845215
1788165219845119500,4.913119384765625,-3.2410950660705566,-0.0999390035867691,-5.084123134613037
1788165219855199500,4.923199462890625,-2.214874029159546,1.3747669458389282,-3.1149768829345703
1788165219875375400,4.943375244140625,3.724925994873047,4.535167217254639,1.0900609493255615
1788165219885465600,4.953465576171875,6.973974227905273,5.455132007598877,2.3142800331115723
1788165219905660000,4.973659912109375,1.6797829866409302,2.8845338821411133,1.0591709613800049
1788165219915742500,4.983742431640625,1.5905940532684326,0.04405900090932846,0.982761025428772
1788165219925834000,4.993833984375,3.5171449184417725,-0.867592990398407,0.6786029934883118
1788165219986332200,5.054332275390625,-8.19484806060791,0.2648470103740692,0.15245500206947327
1788165219996420000,5.064420166015625,-4.828187942504883,-0.622409999370575,0.5943700075149536
1788165220067051300,5.13505126953125,-2.835386037826538,-0.5786449909210205,-2.1103909015655518
1788165220087235300,5.1552353515625,0.2874769866466522,-0.33345699310302734,-1.3255189657211304
1788165220097334300,5.165334228515625,1.8199620246887207,-2.394792079925537,-1.751513957977295
1788165220107431400,5.175431396484375,1.4567769765853882,-3.3563950061798096,-1.0259439945220947
1788165220157871900,5.225871826171875,-1.7665259838104248,0.06201300024986267,-0.23529799282550812
1788165220188121900,5.256121826171875,2.5020499229431152,2.3499019145965576,0.46542900800704956
1788165220218378000,5.2863779296875,2.180382013320923,0.6664909720420837,-0.14185300469398499
1788165220238561300,5.306561279296875,0.44112399220466614,0.21741999685764313,-0.0840110033750534
1788165220248646400,5.316646484375,0.4094640016555786,-0.288331001996994,-0.06480100005865097
1788165220268820000,5.336820068359375,0.3586310148239136,-0.39867299795150757,0.02440599910914898
1788165220278899700,5.346899658203125,-1.3170729875564575,7.304930210113525,2.2819440364837646
1788165220319246600,5.38724658203125,0.35062700510025024,-1.328685998916626,-3.589468002319336
1788165220369687000,5.43768701171875,1.2016760110855103,-4.3547258377075195,-1.5126229524612427
1788165220379779300,5.447779296875,0.8375700116157532,-5.803163051605225,-2.596743106842041
1788165220399962000,5.467962158203125,-4.268984794616699,-5.439696788787842,-5.604769229888916
1788165220410039600,5.47803955078125,-1.5614030361175537,-2.5677220821380615,-3.8561599254608154
1788165220420130600,5.488130615234375,-0.4015839993953705,0.7519890069961548,-2.4531500339508057
1788165220430225200,5.49822509765625,0.7992200255393982,2.6143438816070557,-1.5941909551620483
1788165220450405600,5.518405517578125,18.914981842041016,0.16425900161266327,0.6970030069351196
1788165220460491800,5.52849169921875,2.801862955093384,1.8873649835586548,2.421506881713867
1788165220510958600,5.57895849609375,-0.9479230046272278,-1.2134480476379395,0.7466049790382385
1788165220531139800,5.599139892578125,1.5646040439605713,-2.142669916152954,1.054103970527649
1788165220561407200,5.6294072265625,1.733786940574646,2.0021770000457764,0.5055540204048157
1788165220571497200,5.639497314453125,2.872652053833008,0.4192560017108917,0.5480239987373352
1788165220591674600,5.659674560546875,0.9508000016212463,1.051745057106018,-1.3348430395126343
1788165220621944800,5.68994482421875,-0.877921998500824,2.0516579151153564,-1.3657740354537964
1788165220642115300,5.710115234375,-0.8778259754180908,-1.859684944152832,0.07436999678611755
1788165220662289200,5.7302890625,-0.544064998626709,-0.28530099987983704,-1.0618499517440796
1788165220672384300,5.74038427734375,0.41339799761772156,0.5729029774665833,-0.5993800163269043
1788165220682475300,5.750475341796875,0.7250919938087463,1.5503580570220947,-0.47643399238586426
1788165220702651100,5.770651123046875,-0.9966800212860107,-0.28717100620269775,-0.4609780013561249
1788165220712736800,5.78073681640625,0.08437000215053558,1.5996359586715698,-0.8180969953536987
1788165220732924000,5.800923828125,0.12901200354099274,-1.9209599494934082,-0.025415999814867973
1788165220743008000,5.811008056640625,0.11462700366973877,-4.793574810028076,0.0055229999125003815
1788165220753098500,5.821098388671875,1.681115984916687,-7.730473041534424,-0.20651499927043915
1788165220773287000,5.841286865234375,3.067444086074829,1.8720569610595703,-0.1088310033082962
1788165220783379500,5.85137939453125,-1.2184890508651733,4.936326026916504,-1.8097480535507202
1788165220793468200,5.86146826171875,-0.8646039962768555,0.8990690112113953,-0.5901520252227783
1788165220813642500,5.881642578125,-0.585407018661499,0.5329499840736389,-0.5846059918403625
1788165220823735600,5.891735595703125,-1.1368860006332397,1.9593210220336914,-0.9224609732627869
1788165220833830000,5.901829833984375,-0.05254799872636795,2.979336977005005,-0.4527469873428345
1788165220843925500,5.911925537109375,1.0956339836120605,1.088852047920227,-0.05190400034189224
1788165220864092200,5.932092041015625,0.33442801237106323,-2.3970320224761963,0.13673900067806244
1788165220874182400,5.942182373046875,0.8936439752578735,-2.9246089458465576,-0.2557550072669983
1788165220894363000,5.96236279296875,-2.1093978881835938,0.4130150079727173,1.7731839418411255
1788165220914530600,5.982530517578125,-4.557373046875,0.5701670050621033,4.317183017730713
1788165220975057000,6.043056884765625,4.920548915863037,2.7900500297546387,-6.194754123687744
1788165220985137400,6.053137451171875,6.08354377746582,2.103571891784668,-8.363466262817383
1788165220995244800,6.063244873046875,5.303607940673828,4.067437171936035,-9.437491416931152
1788165221005326600,6.07332666015625,3.0742909908294678,4.336565017700195,-9.036367416381836
1788165221035595000,6.103594970703125,6.271640777587891,1.3361480236053467,0.6839169859886169
1788165221045682000,6.113681884765625,8.432291984558105,-4.4946441650390625,6.475624084472656
1788165221055768800,6.123768798828125,0.532194972038269,-8.79678726196289,8.134653091430664
1788165221065856800,6.133856689453125,-4.3038740158081055,-11.733186721801758,5.448815822601318
1788165221096119000,6.164119140625,-2.2941319942474365,-5.870884895324707,-4.490178108215332
1788165221116299500,6.184299560546875,0.9802970290184021,2.1971089839935303,-4.71146297454834
1788165221136480000,6.20447998046875,4.000292778015137,-0.8725669980049133,2.431199073791504
1788165221146561500,6.2145615234375,4.792573928833008,-0.7097179889678955,2.110193967819214
1788165221156647400,6.2246474609375,5.415719985961914,-0.8562890291213989,1.9393730163574219
1788165221186914300,6.254914306640625,-6.247791767120361,0.4680689871311188,-1.3353660106658936
1788165221217189400,6.285189453125,-0.7222859859466553,-0.6514620184898376,0.6873949766159058
1788165221227267000,6.29526708984375,0.35339099168777466,-0.5205039978027344,0.6496959924697876
1788165221237353500,6.305353515625,1.0299429893493652,0.05772300064563751,0.025980999693274498
1788165221267605800,6.335605712890625,2.4699459075927734,-0.06851600110530853,0.30125701427459717
1788165221277695200,6.3456953125,1.4219880104064941,-0.14052900671958923,-0.07984299957752228
1788165221287783000,6.355782958984375,0.6485390067100525,-0.3093079924583435,-0.3755030035972595
1788165221297874200,6.365874267578125,-0.051895998418331146,-0.4611020088195801,-0.6580020189285278
1788165221328142000,6.39614208984375,-0.9052410125732422,-0.6757270097732544,-0.7409970164299011
1788165221338240800,6.40624072265625,-0.6202089786529541,-0.4981360137462616,-0.6468619704246521
1788165221348328200,6.416328125,-0.5332750082015991,-0.2917569875717163,-0.7011970281600952
1788165221358411500,6.42641162109375,-0.47291299700737,-0.7097399830818176,-0.539106011390686
1788165221388667000,6.4566669921875,0.9112409949302673,0.3243800103664398,-0.6569849848747253
1788165221398759200,6.46675927734375,0.44851401448249817,0.35411199927330017,-0.7025449872016907
1788165221408842000,6.476842041015625,-0.54544997215271,-0.21014299988746643,-0.6897450089454651
1788165221418932500,6.486932373046875,-0.8879439830780029,-0.44906601309776306,-0.9467710256576538
1788165221429015800,6.497015869140625,-0.5969160199165344,-0.6698409914970398,-0.7560579776763916
1788165221439107300,6.507107421875,-0.2129179984331131,-0.7659900188446045,-0.5902249813079834
1788165221449193200,6.517193115234375,0.7766810059547424,-0.6586909890174866,-0.06576500087976456
1788165221459281700,6.52728173828125,0.8503739833831787,-0.7218480110168457,0.37323901057243347
1788165221469367300,6.5373671875,0.43898001313209534,-0.5188890099525452,0.3042509853839874
1788165221479458300,6.547458251953125,0.3417769968509674,-0.08524399995803833,0.13245999813079834
1788165221499654700,6.567654541015625,-0.3994539976119995,-0.3102410137653351,0.07482899725437164
1788165221509740500,6.577740478515625,-0.4080849885940552,-0.42061901092529297,0.0433650016784668
1788165221519831000,6.5878310546875,-0.021532999351620674,-0.3424369990825653,0.11347699910402298
1788165221529911600,6.59791162109375,0.4668799936771393,-0.24939599633216858,0.41339200735092163
1788165221590442200,6.658442138671875,3.337441921234131,0.954712986946106,0.20419999957084656
1788165221610622200,6.678622314453125,-6.445168972015381,0.7851049900054932,-3.6373820304870605
1788165221620722000,6.688721923828125,-3.1911869049072266,-0.252020001411438,-0.30959001183509827
1788165221640922400,6.70892236328125,-2.0173490047454834,-2.45061993598938,0.010058999992907047
1788165221671184000,6.739183837890625,-0.8065029978752136,1.1595909595489502,-2.175610065460205
1788165221681279500,6.749279541015625,-0.18035300076007843,0.9024680256843567,-1.5429869890213013
1788165221701467000,6.769466796875,-0.11352100223302841,-2.134553909301758,-0.01500799972563982
1788165221711555000,6.77955517578125,-0.01013800036162138,-1.3290200233459473,-0.4577980041503906
1788165221741838600,6.809838623046875,1.7100869417190552,0.719506025314331,0.652243971824646
1788165221751926000,6.819926025390625,-1.4939359426498413,1.166437029838562,-0.0693959966301918
1788165221762012000,6.830011962890625,0.3520340025424957,0.34300100803375244,1.5305370092391968
1788165221772099800,6.840099853515625,1.4405959844589233,-0.20917999744415283,0.6073600053787231
1788165221782192400,6.8501923828125,0.13368499279022217,-0.5150589942932129,-0.23125599324703217
1788165221832637000,6.900636962890625,0.02480899915099144,-0.22908799350261688,0.09367299824953079
1788165221842736000,6.910736083984375,0.6745830178260803,-0.7772430181503296,0.21870100498199463
1788165221852828200,6.920828125,-0.1657480001449585,-0.5681880116462708,0.5153849720954895
1788165221893195000,6.961195068359375,0.27960601449012756,0.25203800201416016,-0.24047400057315826
1788165221953737700,7.02173779296875,0.37300699949264526,-0.12886300683021545,-0.5206369757652283
1788165221963828700,7.031828857421875,-0.4107989966869354,0.08026199787855148,-0.26328399777412415
1788165221973912000,7.041912109375,-0.3349530100822449,-0.07886400073766708,0.3620850145816803
1788165222014263800,7.082263916015625,-0.14433500170707703,-0.47717198729515076,0.3295210003852844
1788165222024367600,7.09236767578125,-0.10274200141429901,-0.0538330003619194,0.5605379939079285
1788165222034445000,7.102445068359375,0.691431999206543,0.5190470218658447,0.2383890002965927
1788165222054629000,7.122629150390625,0.5348460078239441,-0.4015589952468872,0.9457119703292847
1788165222094969300,7.16296923828125,-1.264417052268982,-0.1956939995288849,0.9926009774208069
1788165222105064200,7.173064208984375,-0.665818989276886,-0.4773220121860504,0.7352949976921082
1788165222115151400,7.1831513671875,0.09098099917173386,-0.1168769970536232,-0.017846999689936638
1788165222125244200,7.193244140625,0.17927999794483185,0.2882489860057831,-0.16895799338817596
1788165222155509800,7.223509765625,-0.3907729983329773,-0.1816139966249466,-0.5726749897003174
1788165222195848400,7.263848388671875,0.890263020992279,-0.4967089891433716,-0.12787599861621857
1788165222387537700,7.45553759765625,-0.0472089983522892,3.3132410049438477,-3.782839059829712
1788165222427887900,7.495887939453125,0.35473400354385376,-2.6350319385528564,0.9915739893913269
1788165222448065000,7.51606494140625,-0.7259910106658936,-3.7147669792175293,-0.2368759959936142
1788165222458150100,7.526150146484375,-0.2359289973974228,-3.865187883377075,-1.4343760013580322
1788165222478332000,7.546331787109375,0.4608829915523529,-2.262239933013916,-1.3714280128479004
1788165222528776000,7.59677587890625,-0.3206639885902405,-0.6505420207977295,1.5506370067596436
1788165222538859000,7.60685888671875,0.02072400040924549,-0.4069499969482422,1.6473050117492676
1788165222548937700,7.616937744140625,0.38864898681640625,-0.10815100371837616,1.3240959644317627
1788165222559023000,7.627023193359375,-0.3316960036754608,0.5472339987754822,0.693123996257782
1788165222579199200,7.64719921875,-0.5979040265083313,4.575142860412598,-2.811167001724243
1788165222589301000,7.657301025390625,2.1982500553131104,4.895514965057373,-3.4595839977264404
1788165222599379000,7.66737890625,1.2924319505691528,8.066141128540039,-4.7219719886779785
1788165222619564500,7.687564453125,-0.026642000302672386,-3.422063112258911,2.2138149738311768
1788165222649839600,7.717839599609375,-0.7714239954948425,0.3787670135498047,-1.8173279762268066
1788165222659917300,7.727917236328125,-0.14639100432395935,1.0491620302200317,-1.4919480085372925
1788165222710349000,7.77834912109375,0.0429919995367527,-0.642425000667572,-0.41067400574684143
1788165222720437000,7.78843701171875,-0.3199779987335205,-0.19559399783611298,-0.27853500843048096
1788165222740619500,7.80861962890625,-0.6517829895019531,0.2915169894695282,0.2519589960575104
1788165222760813800,7.828813720703125,0.8835849761962891,-0.4729680120944977,0.2105650007724762
1788165222811271000,7.87927099609375,0.7369130253791809,0.3195030093193054,0.05142499879002571
1788165222821362200,7.889362060546875,0.45430898666381836,1.1127909421920776,0.03430299833416939
1788165222841542000,7.9095419921875,-0.07494600117206573,0.5887069702148438,-0.24666699767112732
1788165222861723400,7.929723388671875,-0.5023850202560425,-0.6299189925193787,-0.1158289983868599
1788165222871807200,7.93980712890625,-0.13732199370861053,-0.8694760203361511,-0.30532601475715637
1788165222922250500,7.99025048828125,-0.5085399746894836,0.05209299921989441,0.6041049957275391
1788165222942437000,8.01043701171875,-0.5151680111885071,0.7287229895591736,0.6759729981422424
1788165222952532000,8.020531982421875,-0.627901017665863,0.5666220188140869,0.7673149704933167
1788165223002979800,8.070979736328125,0.6138449907302856,-0.9742469787597656,-0.34827399253845215
1788165223013074400,8.081074462890625,0.3654249906539917,-0.38257598876953125,-0.2412090003490448
1788165223023158300,8.091158203125,0.013214999809861183,0.04214400053024292,0.25950899720191956
1788165223033256200,8.101256103515626,0.0002770000137388706,0.5362870097160339,0.4462530016899109
1788165223103892000,8.17189208984375,-0.29639101028442383,-0.18070299923419952,0.017122000455856323
1788165223134151200,8.202151123046875,-0.4221389889717102,-0.1545259952545166,0.226282000541687
1788165223154327300,8.222327392578125,-0.2001810073852539,-0.32456299662590027,0.2309589982032776
1788165223275495700,8.34349560546875,0.8067179918289185,-0.6805649995803833,-0.9629759788513184
1788165223295669000,8.3636689453125,0.2457450032234192,-0.45604899525642395,-0.7792919874191284
1788165223305753300,8.37375341796875,0.41111499071121216,-0.07183399796485901,-0.5945490002632141
1788165223315841500,8.383841552734374,0.25323599576950073,0.8575699925422668,-0.9801480174064636
1788165223325937200,8.393937255859376,0.48374900221824646,0.7557129859924316,-0.18914499878883362
1788165223336014000,8.40401416015625,0.31416699290275574,0.17761099338531494,1.1013269424438477
1788165223346094600,8.414094482421875,0.545557975769043,0.11109200119972229,1.1199779510498047
1788165223356170200,8.424170166015625,-0.26674699783325195,-0.3334760069847107,0.6514459848403931
1788165223366259000,8.434259033203125,-0.5769370198249817,-0.29404300451278687,0.5514789819717407
1788165223467145200,8.535145263671875,-0.005253000184893608,-0.07431799918413162,0.14752499759197235
1788165223507484200,8.575484130859374,0.909089982509613,-0.10894200205802917,-0.4144209921360016
1788165223557905000,8.62590478515625,-0.06164500117301941,0.0286289993673563,-0.3097519874572754
1788165223567984600,8.635984619140626,-0.10960099846124649,-0.30938100814819336,-0.5244759917259216
1788165223578072800,8.64607275390625,-1.4593759775161743,-0.8155320286750793,0.1879120022058487
1788165223648690400,8.7166904296875,0.22047199308872223,0.005392999853938818,-0.6270830035209656
1788165223658786000,8.7267861328125,2.8346080780029297,-0.3274039924144745,-3.0341920852661133
1788165223699146800,8.767146728515625,0.43996599316596985,-2.5814270973205566,-0.5897960066795349
1788165223719328800,8.787328857421874,1.4318679571151733,-0.5147500038146973,-1.719514012336731
1788165223739511800,8.80751171875,0.809237003326416,1.3743540048599243,2.117961883544922
1788165223749594600,8.8175947265625,0.15418100357055664,0.7548589706420898,2.9514870643615723
1788165223769770800,8.837770751953125,-0.5833640098571777,-0.8163740038871765,-1.0088729858398438
1788165223779863300,8.84786328125,-0.3111189901828766,-1.6423330307006836,-0.3902229964733124
1788165223800032300,8.8680322265625,-0.5482820272445679,-0.47574400901794434,0.31116101145744324
1788165223810118100,8.8781181640625,0.369255006313324,-0.18942700326442719,1.3479650020599365
1788165223820210400,8.88821044921875,0.11159499734640121,-0.6735470294952393,1.1525009870529175
1788165223840391200,8.90839111328125,-0.35989901423454285,-2.1993470191955566,1.2317149639129639
1788165223850471000,8.918470947265625,-1.989374041557312,-5.918638229370117,-1.4368809461593628
1788165223860572400,8.928572509765624,-0.5511320233345032,-6.848631858825684,-2.8955509662628174
1788165223870653700,8.93865380859375,-0.457302987575531,-6.4207329750061035,-1.8347270488739014
1788165223880739000,8.948739013671876,-1.0454599857330322,-5.37764310836792,-1.3694629669189453
1788165223890829600,8.95882958984375,2.064958095550537,-3.0506269931793213,-1.8619879484176636
1788165223911001000,8.9790009765625,-6.865300178527832,0.4784030020236969,-0.4710389971733093
1788165223921092600,8.989092529296874,0.27856799960136414,3.5906240940093994,-1.4863300323486328
1788165223931173600,8.999173583984375,0.5608270168304443,1.1608150005340576,1.849593997001648
1788165223941267000,9.009266845703126,2.5772340297698975,1.6781209707260132,2.576296091079712
1788165223971526000,9.03952587890625,4.7682318687438965,6.7944512367248535,0.44053998589515686
1788165224001799700,9.069799560546874,0.561968982219696,5.01754093170166,-1.4548449516296387
1788165224011887900,9.079887939453124,-0.3519200086593628,3.352147102355957,-0.6290969848632812
1788165224021985500,9.089985595703125,-1.5288569927215576,0.9419779777526855,0.4436909854412079
1788165224032068600,9.100068603515625,-1.8569049835205078,-2.0850439071655273,0.698835015296936
1788165224052247800,9.120247802734376,-1.1175509691238403,-5.064774036407471,-0.4452289938926697
1788165224062343400,9.130343505859376,-2.0539350509643555,-4.709160804748535,-1.4685449600219727
1788165224072430600,9.1404306640625,-2.5223031044006348,-3.3913960456848145,-1.887745976448059
1788165224082521000,9.15052099609375,-1.7895770072937012,-1.869418978691101,-1.1736279726028442
1788165224112781800,9.18078173828125,0.14768099784851074,0.9413989782333374,-0.7391549944877625
1788165224122881500,9.190881591796876,0.7646970152854919,1.4149739742279053,-0.6408990025520325
1788165224193496800,9.261496826171875,-0.6719729900360107,-0.01634800061583519,-1.2735179662704468
1788165224203588000,9.271588134765626,-0.40761798620224,-0.207396999001503,-1.1553070545196533
1788165224233865500,9.301865478515625,0.23176899552345276,-0.15664400160312653,-0.08777400106191635
1788165224264128500,9.33212841796875,0.6041529774665833,0.15622299909591675,1.1753499507904053
1788165224304488200,9.37248828125,0.6278610229492188,-0.05511299893260002,0.17635199427604675
1788165224314573000,9.382572998046875,0.35654398798942566,-0.21676400303840637,0.10373000055551529
1788165224344823000,9.412822998046876,-0.19108900427818298,-0.2058510035276413,0.21740500628948212
1788165224405330400,9.473330322265625,-0.3360599875450134,0.020886000245809555,0.37656500935554504
1788165224415420400,9.48342041015625,-0.5052390098571777,-0.029722999781370163,0.22302399575710297
1788165224425529600,9.493529541015626,-0.46222400665283203,-0.11678300052881241,0.12380100041627884
1788165224486049300,9.55404931640625,-0.17142200469970703,0.7076990008354187,-0.9597070217132568
1788165224496139800,9.564139892578124,-0.01974399946630001,0.6877049803733826,-0.9002879858016968
1788165224708019000,9.77601904296875,-0.09083399921655655,-0.543071985244751,-0.29304200410842896
1788165224728192000,9.79619189453125,0.09555400162935257,-0.5347480177879333,0.20424500107765198
1788165224738270500,9.8062705078125,0.14664199948310852,-0.40063199400901794,0.37029001116752625
1788165224758441700,9.826441650390626,0.3030399978160858,-0.23023399710655212,0.6510019898414612
1788165224768531700,9.83653173828125,0.20096999406814575,-0.23238100111484528,0.6610339879989624
1788165224778612200,9.8466123046875,0.059863001108169556,-0.327796995639801,0.642350971698761
1788165224788695600,9.856695556640625,-0.06849399954080582,-0.4074009954929352,0.7004870176315308
1788165224919857700,9.987857666015625,-0.008635999634861946,0.02278199978172779,-0.31209900975227356
1788165225061065200,10.129065185546875,-0.1224529966711998,-0.06386300176382065,-1.2122670412063599
1788165225071154400,10.139154541015625,0.02913700044155121,0.1672469973564148,-1.4246569871902466
1788165225091325000,10.159324951171875,-0.21362100541591644,0.35996198654174805,-1.3559099435806274
1788165225141763000,10.20976318359375,-0.026195000857114792,0.5641040205955505,-0.15682700276374817
1788165225172037600,10.24003759765625,-0.17751599848270416,1.0784889459609985,0.11665300279855728
1788165225192219400,10.260219482421874,-0.14205299317836761,0.9154809713363647,-0.023406000807881355
1788165225202309400,10.270309326171875,0.014534000307321548,0.9022840261459351,-0.29360800981521606
1788165225232584400,10.30058447265625,-0.2950330078601837,0.6098660230636597,-0.30823299288749695
1788165225242673700,10.310673583984375,-0.3276450037956238,0.5786010026931763,-0.46302300691604614
1788165225252771600,10.320771484375,-0.11382699757814407,0.49747100472450256,-0.4968239963054657
1788165225272943000,10.340943115234374,0.02987699955701828,0.5007740259170532,-0.4079490005970001
1788165225303208200,10.371208251953124,0.02194499969482422,0.5510960221290588,0.1925870031118393
1788165225333479000,10.40147900390625,0.1879280060529709,0.4229609966278076,0.39926600456237793
1788165225343560400,10.411560546875,-0.1920900046825409,0.37783700227737427,0.41795599460601807
1788165225383955700,10.451955810546876,-0.4944410026073456,0.08800999820232391,0.5242310166358948
1788165225394048800,10.462048828125,-0.3685159981250763,0.2239290028810501,0.4140720069408417
1788165225404134000,10.4721337890625,-0.8421199917793274,0.35651299357414246,0.45123401284217834
1788165225414227000,10.48222705078125,-0.36186501383781433,0.4757309854030609,0.36096900701522827
1788165225424302800,10.492302734375,-0.02713399939239025,0.6538400053977966,0.06239999830722809
1788165225434390500,10.502390625,-0.3222599923610687,0.697314977645874,-0.10496599972248077
1788165225444483600,10.512483642578125,-0.21541500091552734,0.6266390085220337,-0.3822999894618988
1788165225454576000,10.522576171875,-0.00031800000579096377,0.6081920266151428,-0.7963579893112183
1788165225464662300,10.532662353515626,-0.3323569893836975,0.3948560059070587,-0.8274549841880798
1788165225474751000,10.5427509765625,-0.3500959873199463,0.20441900193691254,-0.7866500020027161
1788165225494921700,10.562921630859375,-0.5190839767456055,0.10406800359487534,-0.517611026763916
1788165225535248100,10.603248046875,-1.395071029663086,0.5983840227127075,-0.8084269762039185
1788165225545330000,10.613329833984375,-1.4741369485855103,0.832190990447998,-1.466344952583313
1788165225565507800,10.6335078125,-2.2305219173431396,0.838916003704071,-1.6801249980926514
1788165225575593200,10.64359326171875,-2.148516893386841,0.932066023349762,-1.6998289823532104
1788165225585673500,10.653673583984375,-1.622428059577942,0.7843509912490845,-1.004729986190796
1788165225595757800,10.6637578125,-1.0795999765396118,0.6310930252075195,-0.1619119942188263
1788165225605844700,10.6738447265625,0.18482999503612518,0.576170027256012,0.38017600774765015
1788165225615932000,10.683931884765625,1.1569230556488037,0.4372430145740509,0.8126580119132996
1788165225646186500,10.7141865234375,0.28053098917007446,-0.18306900560855865,0.38833001255989075
1788165225666359600,10.734359619140625,-0.8717690110206604,0.06554000079631805,-0.7546190023422241
1788165225676451800,10.744451904296875,-1.2322850227355957,0.0582600012421608,-1.3303699493408203
1788165225686537700,10.754537841796875,-1.1628090143203735,-0.05481100082397461,-1.5424950122833252
1788165225706710000,10.7747099609375,-1.015758991241455,-0.33342599868774414,-1.4353049993515015
1788165225716803000,10.784802978515625,-1.5045340061187744,-0.6964579820632935,-0.7414609789848328
1788165225736968700,10.80496875,-1.3400319814682007,-1.0021950006484985,0.9189180135726929
1788165225757145000,10.82514501953125,-0.7559599876403809,-0.021716000512242317,0.17991800606250763
1788165225767233300,10.8352333984375,-1.0318529605865479,0.11875800043344498,-0.39463698863983154
1788165225827767600,10.895767578125,-2.373661994934082,-0.03915800154209137,-1.0441340208053589
1788165225847942400,10.9159423828125,-0.4994170069694519,0.2629989981651306,-0.8006399869918823
1788165225858029600,10.926029541015625,0.5045629739761353,0.3924190104007721,-0.17136600613594055
1788165225878208800,10.946208740234376,-0.049267999827861786,0.6672120094299316,0.518060028553009
1788165225898379300,10.966379150390624,-1.5664830207824707,0.6202340126037598,0.22754999995231628
1788165225948810000,11.01681005859375,0.6936259865760803,0.9040150046348572,-0.09732100367546082
1788165226049692200,11.117692138671876,0.38568800687789917,0.0786760002374649,0.34541600942611694
1788165226090048500,11.158048583984375,0.9151239991188049,0.4640139937400818,0.7629590034484863
1788165226110219800,11.1782197265625,0.9499059915542603,0.6859400272369385,0.902504026889801
1788165226160673800,11.228673828125,0.6639699935913086,0.5114549994468689,0.25696200132369995
1788165226170771000,11.23877099609375,0.14305399358272552,0.7277370095252991,0.30328699946403503
1788165226180860200,11.248860107421875,0.9492020010948181,0.7613160014152527,0.36899301409721375
1788165226211129300,11.27912939453125,1.7313040494918823,1.69206702709198,-0.40392300486564636
1788165226241391600,11.3093916015625,0.6476770043373108,0.8395180106163025,-0.803987979888916
1788165226291831300,11.359831298828125,1.0593819618225098,0.123539999127388,0.7649869918823242
1788165226312002800,11.3800029296875,2.1513350009918213,-1.3067810535430908,1.1743340492248535
1788165226322083000,11.3900830078125,1.2863960266113281,-1.531906008720398,0.7683879733085632
1788165226332179000,11.400178955078125,0.28631898760795593,-1.43293297290802,-0.04162900149822235
1788165226352356400,11.4203564453125,-0.7073389887809753,-0.437034010887146,0.433802992105484
1788165226382628000,11.450628173828125,-1.0983929634094238,0.44159799814224243,0.25555500388145447
1788165226402804200,11.47080419921875,-1.0199439525604248,-0.32987499237060547,-0.16630199551582336
1788165226412904000,11.480904052734376,-0.4705919921398163,-0.2662299871444702,-0.1226549968123436
1788165226422999300,11.490999267578125,0.14683200418949127,-0.5826969742774963,0.009677000343799591
1788165226473443800,11.54144384765625,-0.7374150156974792,0.017508000135421753,-0.3302839994430542
1788165226483535600,11.55153564453125,-1.0787760019302368,0.1690019965171814,-0.7125269770622253
1788165226503711000,11.5717109375,-0.3408519923686981,1.1014569997787476,-0.9555569887161255
1788165226513805600,11.5818056640625,-0.32633399963378906,1.1907529830932617,-1.3615390062332153
1788165226533981000,11.60198095703125,0.05597100034356117,1.6952669620513916,-2.079421043395996
1788165226544070400,11.6120703125,-0.449070006608963,1.0664589405059814,-1.8202769756317139
1788165226564232200,11.632232177734375,-1.0132230520248413,0.4616610109806061,-0.5548269748687744
1788165226574316800,11.64231689453125,-0.5307289958000183,0.09096100181341171,-0.3043450117111206
1788165226614659600,11.68265966796875,-0.5609970092773438,-0.5185790061950684,-0.1348710060119629
1788165226624805000,11.69280517578125,-0.8708149790763855,-0.33737000823020935,0.14692699909210205
1788165226634888200,11.70288818359375,-0.5067819952964783,-0.4226430058479309,0.11191000044345856
1788165226644969000,11.712968994140626,0.500531017780304,-0.5575039982795715,0.542352020740509
1788165226665139200,11.73313916015625,0.17192800343036652,-0.17535400390625,0.373647004365921
1788165226675228000,11.743227783203125,-0.37780898809432983,-0.2486640065908432,0.6917250156402588
1788165226685324500,11.753324462890625,-0.8782529830932617,0.13324899971485138,0.6171479821205139
1788165226705500700,11.773500732421875,-0.5152369737625122,-0.0396060012280941,0.7413139939308167
1788165226745854000,11.81385400390625,0.6650689840316772,-0.1952899992465973,0.32115399837493896
1788165226766024200,11.834024169921875,0.08473700284957886,-0.1462080031633377,0.443011999130249
1788165226776112600,11.844112548828125,0.014464999549090862,0.1201540008187294,0.9235140085220337
1788165226786196500,11.854196533203124,-0.10499899834394455,0.23853500187397003,0.9880310297012329
1788165226796282400,11.864282470703126,-0.25096800923347473,0.23184099793434143,0.44290900230407715
1788165226806377200,11.874377197265625,-0.5032110214233398,0.8776389956474304,-0.02630399912595749
1788165226816470300,11.88447021484375,-0.19113099575042725,0.950888991355896,-0.2933639883995056
1788165226826563300,11.894563232421875,0.3079510033130646,0.5994200110435486,-0.2880449891090393
1788165226846752800,11.914752685546874,-0.05199800059199333,0.17756900191307068,0.2657569944858551
1788165226856835800,11.9248359375,0.45493999123573303,-0.17629599571228027,0.4860549867153168
1788165226866927000,11.934927001953126,0.9508640170097351,-0.3207530081272125,0.7717139720916748
1788165226877007600,11.945007568359374,1.1210310459136963,-0.3984920084476471,0.24622200429439545
1788165226887106300,11.955106201171875,0.9866470098495483,-0.7452399730682373,0.387021005153656
1788165226897190400,11.9651904296875,0.4412350058555603,-0.6479120254516602,0.6899189949035645
1788165226917375000,11.985375,-0.09474900364875793,-0.3434939980506897,0.45371899008750916
1788165226937553200,12.00555322265625,0.4689970016479492,0.15980899333953857,0.5007449984550476
1788165226947631600,12.015631591796875,1.099800944328308,0.16773800551891327,0.5443959832191467
1788165226967800300,12.03580029296875,2.0455288887023926,0.12556999921798706,1.1758639812469482
1788165226977884200,12.04588427734375,1.6871310472488403,-0.02485099993646145,1.2904380559921265
1788165227008139800,12.076139892578125,0.25807300209999084,-0.13739299774169922,0.5634539723396301
1788165227048497000,12.116496826171876,-1.066648006439209,0.3896139860153198,0.26309600472450256
1788165227058571800,12.12657177734375,-3.2622909545898438,0.5623840093612671,-1.7182459831237793
1788165227068672800,12.1366728515625,-4.8779988288879395,0.9032480120658875,-3.744323968887329
1788165227078764300,12.146764404296874,-4.308308124542236,0.6921579837799072,-4.086719989776611
1788165227088855800,12.156855712890625,-3.0326650142669678,-0.11835599690675735,-3.4998939037323
1788165227098939000,12.16693896484375,-2.680609941482544,-0.6118559837341309,-2.9753661155700684
1788165227109030400,12.177030517578125,-2.3932559490203857,-0.3689489960670471,-2.3074951171875
1788165227119112400,12.187112548828125,-2.096735954284668,-0.08939000219106674,-2.0365829467773438
1788165227129204000,12.197203857421876,-1.8995389938354492,-0.05669499933719635,-1.613700032234192
1788165227139282700,12.20728271484375,-1.6345009803771973,-0.3634659945964813,-0.4288029968738556
1788165227149378600,12.217378662109375,-1.2475329637527466,-0.8440070152282715,0.48446500301361084
1788165227159463200,12.227463134765625,-0.6397029757499695,-1.3587579727172852,1.4160380363464355
1788165227169561300,12.237561279296875,0.009711000137031078,-1.814797043800354,2.5919039249420166
1788165227179647200,12.247647216796874,0.643746018409729,-1.8194780349731445,3.098109006881714
1788165227189744000,12.257744140625,1.202752947807312,-1.4736889600753784,3.2052969932556152
1788165227199826700,12.26782666015625,1.3491729497909546,-1.10063898563385,3.153762102127075
1788165227209918500,12.27791845703125,1.2365020513534546,-0.6203299760818481,2.6958189010620117
1788165227220000000,12.288,0.9774389863014221,-0.2843329906463623,2.1572039127349854
1788165227230083600,12.29808349609375,0.4741530120372772,0.045625001192092896,1.9891389608383179
1788165227250260200,12.31826025390625,-0.7742530107498169,0.6149700284004211,1.1398049592971802
1788165227270442000,12.33844189453125,-0.8435159921646118,1.1508959531784058,0.5348650217056274
1788165227280520700,12.348520751953124,-0.832099974155426,1.3014140129089355,0.3738209903240204
1788165227290613800,12.35861376953125,-1.0839359760284424,1.1644320487976074,0.4547789990901947
1788165227300701700,12.36870166015625,-1.4363429546356201,0.8350800275802612,-0.1478559970855713
1788165227310796800,12.378796875,-1.5898020267486572,0.26360899209976196,-0.8293560147285461
1788165227320880600,12.388880615234376,-1.4764879941940308,-0.15861700475215912,-1.0629279613494873
1788165227330977300,12.398977294921876,-0.7932729721069336,-0.12084099650382996,-1.1614359617233276
1788165227341061400,12.409061279296875,-0.10446599870920181,0.27874401211738586,-1.105970025062561
1788165227351188700,12.419188720703126,0.5707240104675293,0.5037140250205994,-0.3941139876842499
1788165227361275600,12.429275634765625,1.2238609790802002,0.6590759754180908,-0.19003799557685852
1788165227371370500,12.43937060546875,1.6476589441299438,0.5151039958000183,-0.05683299899101257
1788165227381456600,12.44945654296875,1.4664570093154907,0.11279799789190292,0.4067460000514984
1788165227391552000,12.459552001953124,1.1612329483032227,-0.05863000079989433,0.099993996322155
1788165227401632500,12.469632568359375,0.4644460082054138,-0.20325399935245514,-0.045322999358177185
1788165227411725000,12.47972509765625,-0.3643159866333008,-0.16754400730133057,0.15662400424480438
1788165227421816600,12.489816650390624,-0.9997950196266174,0.1738390028476715,-0.498308002948761
1788165227441992700,12.50999267578125,-1.220425009727478,0.47206899523735046,-0.75518798828125
1788165227452087600,12.520087646484376,-1.3088480234146118,0.5767560005187988,-0.8859829902648926
1788165227472267300,12.540267333984374,-0.8236209750175476,0.023041000589728355,-1.046002984046936
1788165227482350300,12.550350341796875,-0.8961449861526489,-0.36392900347709656,-1.0936390161514282
1788165227492450600,12.560450439453126,-1.064357042312622,-0.6657159924507141,-1.1753649711608887
1788165227502531300,12.57053125,-1.1639779806137085,-0.9692639708518982,-0.7068939805030823
1788165227512623600,12.58062353515625,-1.2044390439987183,-1.1755850315093994,-0.27904701232910156
1788165227522711000,12.5907109375,-1.037950038909912,-1.2848479747772217,0.15208999812602997
1788165227532808400,12.600808349609375,-0.7206419706344604,-1.4178260564804077,0.6365990042686462
1788165227542902300,12.61090234375,-0.641497015953064,-1.4256260395050049,0.468966007232666
1788165227552999000,12.6209990234375,-0.585811972618103,-1.4182260036468506,0.3781920075416565
1788165227563123700,12.631123779296875,-0.5215070247650146,-1.4378830194473267,0.6598569750785828
1788165227573215500,12.641215576171875,-0.5840330123901367,-1.4388550519943237,0.5178120136260986
1788165227583313400,12.6513134765625,-0.6571320295333862,-1.5266629457473755,0.5807780027389526
1788165227593409500,12.661409423828125,-0.6334609985351562,-1.5002520084381104,0.8675400018692017
1788165227603491300,12.6714912109375,-0.4928770065307617,-1.1260069608688354,0.8157230019569397
1788165227613589200,12.68158935546875,-0.4579690098762512,-0.6672530174255371,0.7617110013961792
1788165227623667700,12.691667724609376,-0.5926560163497925,-0.3580319881439209,0.7620890140533447
1788165227633758500,12.701758544921875,-0.8906599879264832,-0.08373299986124039,0.31944701075553894
1788165227643847700,12.71184765625,-0.9184139966964722,0.14462199807167053,-0.10013099759817123
1788165227653948000,12.721947998046875,-0.6760500073432922,0.30389198660850525,0.023499999195337296
1788165227664028400,12.7320283203125,-0.41495001316070557,0.46055999398231506,0.0032850001007318497
1788165227674117400,12.742117431640626,-0.04768799990415573,0.559444010257721,0.09445399791002274
1788165227684199700,12.75219970703125,-0.08962199836969376,0.44606998562812805,0.36619800329208374
1788165227694295800,12.7622958984375,-0.4029330015182495,0.17422699928283691,0.18572500348091125
1788165227704374500,12.77237451171875,-0.8805890083312988,0.08660200238227844,0.015355000272393227
1788165227714477300,12.782477294921875,-1.3429110050201416,0.1489969938993454,0.008867000229656696
1788165227724561400,12.7925615234375,-1.5283379554748535,0.20042000710964203,-0.17566700279712677
1788165227734652700,12.802652587890625,-1.1513739824295044,0.24291199445724487,-0.09356000274419785
1788165227744736800,12.81273681640625,-0.5239769816398621,0.2706339955329895,-0.15334300696849823
1788165227754828000,12.822828125,0.22663800418376923,0.2558009922504425,-0.11520600318908691
1788165227764919000,12.8329189453125,0.7703319787979126,0.2426290065050125,0.2561649978160858
1788165227775017500,12.843017578125,0.885466992855072,0.21621499955654144,0.2556929886341095
1788165227785109800,12.85310986328125,0.5722749829292297,0.007817000150680542,0.38343000411987305
1788165227805282600,12.873282470703124,-0.34512200951576233,-0.5116549730300903,0.6966710090637207
1788165227815379000,12.88337890625,-0.5144309997558594,-0.6254310011863708,0.6859740018844604
1788165227825461200,12.893461181640625,-0.5112559795379639,-0.6096749901771545,0.628337025642395
1788165227835543800,12.903543701171875,-0.5640299916267395,-0.6083030104637146,0.5252010226249695
1788165227845627100,12.913627197265624,-0.7074139714241028,-0.5829430222511292,0.15407800674438477
1788165227855724300,12.923724365234374,-0.6527379751205444,-0.5534679889678955,-0.09340699762105942
1788165227865810400,12.933810546875,-0.5697810053825378,-0.29325801134109497,-0.35097599029541016
1788165227875906000,12.943906005859375,-0.3880529999732971,-0.02974800020456314,-0.5092009902000427
1788165227885983700,12.953983642578125,-0.10044299811124802,0.22367000579833984,-0.427046000957489
1788165227916247600,12.98424755859375,0.6138550043106079,0.36690399050712585,-0.3799009919166565
1788165227926325200,12.9943251953125,0.6527479887008667,0.27975699305534363,-0.5542449951171875
1788165227936421600,13.004421630859374,0.2829119861125946,0.06525500118732452,-0.53472900390625
1788165227946512000,13.014511962890625,-0.4072229862213135,-0.10618799924850464,-0.5484390258789062
1788165227956602600,13.0246025390625,-1.0665580034255981,-0.31227898597717285,-0.7582240104675293
1788165227966691300,13.03469140625,-1.4420809745788574,-0.5395990014076233,-0.49929100275039673
1788165227976793000,13.04479296875,-1.378237009048462,-0.5573179721832275,-0.6517559885978699
1788165227986880500,13.054880615234374,-0.918724000453949,-0.4828439950942993,-0.7217640280723572
1788165227996968000,13.064968017578124,-0.17179100215435028,-0.537211000919342,-0.48953700065612793
1788165228007051000,13.075051025390625,0.3010300099849701,-0.667277991771698,-0.5551949739456177
1788165228017149000,13.08514892578125,0.46180498600006104,-0.757627010345459,-0.5015890002250671
1788165228027236600,13.095236572265625,0.2240619957447052,-0.8442310094833374,-0.3699429929256439
1788165228037322200,13.105322265625,-0.3634209930896759,-0.7861679792404175,-0.48824799060821533
1788165228047408400,13.115408447265626,-0.6072009801864624,-0.7169389724731445,-0.4586609899997711
1788165228057496600,13.12549658203125,-0.6080039739608765,-0.5394520163536072,-0.24644799530506134
1788165228067587000,13.135587158203125,-0.43982499837875366,-0.2800750136375427,-0.15224400162696838
1788165228077675500,13.145675537109375,-0.05925900116562843,-0.11579299718141556,-0.10140399634838104
1788165228087766000,13.15576611328125,0.11918199807405472,-0.029019000008702278,-0.04692799970507622
1788165228118005800,13.186005859375,-0.7815729975700378,-0.721002995967865,-0.4148240089416504
1788165228128090000,13.196090087890624,-0.8509680032730103,-1.0511189699172974,-0.4899669885635376
1788165228138179800,13.206179931640625,-0.09538999944925308,-1.1977260112762451,-0.6543369889259338
1788165228148269600,13.21626953125,0.40719500184059143,-0.9746189713478088,-0.6600589752197266
1788165228218888000,13.286887939453125,-1.6300450563430786,-1.1462340354919434,0.643123984336853
1788165228239071000,13.307071044921875,-1.6544820070266724,-0.8981299996376038,0.3659049868583679
1788165228249162000,13.317161865234375,-0.9531139731407166,-0.7743890285491943,0.13807399570941925
1788165228259249000,13.327248779296875,0.09520000219345093,-0.7390850186347961,0.3265269994735718
1788165228269331200,13.337331298828126,0.9407410025596619,-0.47504401206970215,0.4049830138683319
1788165228279418400,13.34741845703125,1.153236985206604,-0.15764200687408447,0.5237830281257629
1788165228289534000,13.357533935546876,0.9791749715805054,0.015376999974250793,0.9515380263328552
1788165228299616300,13.3676162109375,-0.0013210000470280647,0.1392419934272766,1.0481599569320679
1788165228329883000,13.3978828125,-0.9714459776878357,0.23917800188064575,1.0958689451217651
1788165228339967200,13.40796728515625,-0.4754450023174286,0.3505200147628784,0.731905996799469
1788165228350057700,13.4180576171875,-0.1108580008149147,0.44477298855781555,0.5001980066299438
1788165228360140800,13.428140869140625,0.18834200501441956,0.3580490052700043,0.03315100073814392
1788165228370231600,13.4382314453125,0.37994900345802307,0.09567300230264664,-0.27511098980903625
1788165228380307500,13.448307373046875,0.5442609786987305,-0.044828999787569046,-0.4143570065498352
1788165228390401500,13.458401611328124,0.7023710012435913,-0.15084199607372284,-0.4497939944267273
1788165228400488200,13.46848828125,0.8674700260162354,-0.24423199892044067,-0.4169450104236603
1788165228410571800,13.47857177734375,0.7692540287971497,-0.11629900336265564,-0.18841199576854706
1788165228420658400,13.488658447265625,0.28391700983047485,0.08796600252389908,0.002248999895527959
1788165228430755300,13.49875537109375,-0.5621330142021179,0.2826330065727234,0.0006629999843426049
1788165228440841200,13.50884130859375,-0.9724259972572327,0.3599480092525482,-0.21162499487400055
1788165228450930700,13.5189306640625,-1.0148160457611084,0.3032279908657074,-0.22967100143432617
1788165228461020200,13.529020263671875,-0.5183420181274414,0.19921499490737915,-0.14761599898338318
1788165228471104300,13.539104248046876,0.016964999958872795,0.2423669993877411,-0.2785530090332031
1788165228481188900,13.54918896484375,0.2903499901294708,0.12555600702762604,-0.0634469985961914
1788165228491275500,13.559275634765624,0.11837899684906006,-0.03481899946928024,0.03457200154662132
1788165228501357000,13.569357177734375,0.0028250000905245543,0.10707700252532959,-0.356456995010376
1788165228511442700,13.579442626953124,0.09883199632167816,0.0022799998987466097,-0.3229449987411499
1788165228521528600,13.589528564453126,0.3287709951400757,-0.07078199833631516,-0.3572930097579956
1788165228531619800,13.599619873046874,0.8473299741744995,-0.27980801463127136,-0.39879098534584045
1788165228541710300,13.60971044921875,1.077525019645691,-0.6767719984054565,0.02870899997651577
1788165228551804700,13.6198046875,0.8843290209770203,-0.8030099868774414,0.11119099706411362
1788165228561908200,13.629908203125,0.03415000066161156,-0.7785879969596863,0.12480899691581726
1788165228571997400,13.63999755859375,-0.719307005405426,-0.8646600246429443,0.21446800231933594
1788165228582091300,13.65009130859375,-1.3027889728546143,-0.8866400122642517,0.10632500052452087
1788165228592184300,13.660184326171875,-1.4012049436569214,-0.7226219773292542,-0.09013699740171432
1788165228602269400,13.67026953125,-0.8319219946861267,-0.5002070069313049,-0.2494090050458908
1788165228612358700,13.680358642578126,-0.29196199774742126,-0.14271199703216553,-0.49008598923683167
1788165228622460400,13.69046044921875,0.6155589818954468,0.07007700204849243,-0.7454379796981812
1788165228642633700,13.7106337890625,2.0283920764923096,-0.08041000366210938,-0.6764839887619019
1788165228652725000,13.72072509765625,2.216370105743408,-0.18784700334072113,-0.45979100465774536
1788165228662810400,13.730810302734374,1.931542992591858,-0.43163999915122986,0.026858000084757805
1788165228682992000,13.7509921875,-0.9406279921531677,-0.37181898951530457,0.5010520219802856
1788165228693084000,13.761083984375,-2.1069459915161133,-0.4050599932670593,0.7442020177841187
1788165228703177500,13.771177490234376,-2.1828219890594482,-0.18652500212192535,0.22471100091934204
1788165228713261300,13.78126123046875,-1.5216000080108643,-0.0030410001054406166,-0.26607099175453186
1788165228723354600,13.791354736328126,-0.6128479838371277,-0.0030060000717639923,-0.5531870126724243
1788165228743534600,13.81153466796875,0.3870429992675781,-0.5409510135650635,-1.0440289974212646
1788165228753628000,13.8216279296875,0.35614898800849915,-0.8243690133094788,-0.6309900283813477
1788165228763722000,13.831721923828125,0.2538979947566986,-0.7890260219573975,-0.3754419982433319
1788165228773813800,13.841813720703126,0.3253209888935089,-0.6845639944076538,0.29394200444221497
1788165228783903000,13.851903076171874,0.43718698620796204,-0.42653200030326843,0.8575140237808228
1788165228814183200,13.88218310546875,-0.41350099444389343,0.2099599987268448,0.5061050057411194
1788165228824276000,13.89227587890625,-1.160122036933899,0.05888700112700462,-0.1531369984149933
1788165228844452400,13.912452392578125,-1.3662110567092896,-0.32464200258255005,-0.4986580014228821
1788165228854529300,13.922529296875,-0.9365879893302917,-0.25117799639701843,-0.5895040035247803
1788165228864621300,13.932621337890625,-0.3073180019855499,-0.1207130029797554,-0.37577998638153076
1788165228874702000,13.9427021484375,0.2802860140800476,0.057068999856710434,-0.6253160238265991
1788165228884785200,13.95278515625,0.8756920099258423,-0.04059499874711037,-0.414561003446579
1788165228894875400,13.96287548828125,1.308454990386963,-0.24503499269485474,-0.05017499998211861
1788165228904970500,13.972970458984374,1.3248380422592163,-0.2001969963312149,-0.019895000383257866
1788165228915048200,13.983048095703126,0.9858629703521729,-0.22339800000190735,0.46640700101852417
1788165228925138400,13.993138427734374,0.6738860011100769,-0.14000199735164642,0.9518460035324097
1788165228935218400,14.003218505859374,0.21876199543476105,0.21212999522686005,0.8794990181922913
1788165228945308400,14.013308349609375,-0.18493999540805817,0.4192419946193695,0.8776410222053528
1788165228955394000,14.02339404296875,-0.5581409931182861,0.5020449757575989,0.8381400108337402
1788165228975558400,14.043558349609375,-0.6550449728965759,0.2512829899787903,-0.14767999947071075
1788165228985651000,14.05365087890625,-0.6854739785194397,0.08370000123977661,-0.31004101037979126
1788165228995740200,14.063740234375,-0.3285120129585266,-0.00937500037252903,-0.635200023651123
1788165229005836500,14.07383642578125,0.2622469961643219,-0.18769200146198273,-0.2520439922809601
1788165229015929000,14.08392919921875,0.724776029586792,-0.1023780032992363,0.10657799988985062
1788165229026018300,14.094018310546875,1.155696988105774,0.26177799701690674,0.17068900167942047
1788165229036105200,14.104105224609375,1.3885879516601562,0.4990150034427643,0.9042199850082397
1788165229046199600,14.114199462890625,0.9427379965782166,0.6892610192298889,1.2320929765701294
1788165229056283000,14.124282958984375,-0.023357000201940536,0.7400590181350708,1.356721043586731
1788165229066370800,14.134370849609375,-0.8132269978523254,0.6027169823646545,1.2821539640426636
1788165229076459300,14.144459228515625,-1.560202956199646,0.4563570022583008,0.26418599486351013
1788165229086555000,14.154554931640625,-1.7875020503997803,0.2840929925441742,-0.25437599420547485
1788165229096646700,14.164646728515624,-1.5074939727783203,0.14484399557113647,-0.5577340126037598
1788165229106741500,14.174741455078125,-0.972599983215332,0.09143699705600739,-1.1920650005340576
1788165229116831000,14.1848310546875,0.03838900104165077,-0.23424400389194489,-1.2495739459991455
1788165229126918700,14.194918701171876,0.6321759819984436,-0.46886101365089417,-0.9711980223655701
1788165229137011700,14.20501171875,1.4201849699020386,-0.4765079915523529,-0.8102080225944519
1788165229147098000,14.21509814453125,1.984002947807312,-0.7238810062408447,-0.39488399028778076
1788165229157178600,14.2251787109375,1.9324389696121216,-0.7968090176582336,-0.0088900001719594
1788165229167267600,14.235267578125,1.427037000656128,-0.5702289938926697,0.2719939947128296
1788165229177349600,14.245349609375,0.6189280152320862,-0.18543800711631775,0.38029399514198303
1788165229187440600,14.255440673828126,-0.4011380076408386,0.37652701139450073,-0.15302200615406036
1788165229197533700,14.26553369140625,-1.13304603099823,0.5980430245399475,-0.5661249756813049
1788165229207640300,14.275640380859375,-1.3837790489196777,0.2797519862651825,-0.35993000864982605
1788165229217729300,14.285729248046875,-1.1196930408477783,0.13393700122833252,-0.8817499876022339
1788165229227821800,14.29582177734375,-0.23469600081443787,-0.23160700500011444,-0.7848680019378662
1788165229237909000,14.305908935546874,0.697318971157074,-0.5501959919929504,-0.3409059941768646
1788165229247993900,14.315993896484375,0.7755230069160461,-0.5006669759750366,-0.6191189885139465
1788165229258078200,14.326078125,0.6883760094642639,-0.4574599862098694,-0.5233500003814697
1788165229268154600,14.336154541015626,0.10549700260162354,-0.6075339913368225,-0.2152789980173111
1788165229278241000,14.346240966796875,-0.1294420063495636,-0.6773300170898438,-0.19692300260066986
1788165229288327400,14.356327392578125,-0.6505990028381348,-0.5734440088272095,0.13336800038814545
1788165229298412800,14.366412841796874,-1.1658990383148193,-0.33515799045562744,0.5387880206108093
1788165229308503600,14.376503662109375,-1.5028589963912964,0.0712909996509552,0.3210799992084503
1788165229318588200,14.386588134765624,-1.5746769905090332,0.20930799841880798,0.1901790052652359
1788165229328671700,14.396671630859375,-1.4529279470443726,0.12844200432300568,0.009770999662578106
1788165229338758400,14.40675830078125,-1.1579240560531616,-0.02515999972820282,-0.3764210045337677
1788165229348850000,14.416849853515625,-0.6378470063209534,-0.30847498774528503,-0.32919299602508545
1788165229358936800,14.426936767578125,-0.41985300183296204,-0.41995200514793396,-0.289561003446579
1788165229369028900,14.43702880859375,-0.24779100716114044,-0.42493000626564026,-0.1901790052652359
1788165229379117000,14.447116943359376,0.1350959986448288,-0.47734999656677246,0.03634500131011009
1788165229389206500,14.45720654296875,0.5690770149230957,-0.36868301033973694,0.07837899774312973
1788165229399298600,14.467298583984375,0.6641409993171692,-0.15387900173664093,0.3489280045032501
1788165229409404400,14.477404296875,0.3430419862270355,-0.02653300017118454,0.4555569887161255
1788165229419496400,14.487496337890626,0.2726399898529053,0.09649199992418289,0.3136709928512573
1788165229429587500,14.49758740234375,0.06299400329589844,0.06835199892520905,0.30870598554611206
1788165229439684000,14.50768408203125,-0.18774600327014923,0.1864819973707199,0.20907799899578094
1788165229449769500,14.51776953125,-0.11928600072860718,0.34019899368286133,0.27003300189971924
1788165229459859200,14.527859130859374,-0.257874995470047,0.3612639904022217,0.18367999792099
1788165229469950500,14.537950439453125,-0.6154410243034363,0.3687739968299866,0.1634169965982437
1788165229480033800,14.54803369140625,-0.9606080055236816,0.24405600130558014,-0.039122000336647034
1788165229490127000,14.558127197265625,-0.8908740282058716,-0.10441800206899643,-0.14358699321746826
1788165229500214300,14.56821435546875,-0.33729299902915955,-0.25750499963760376,-0.018960999324917793
1788165229510305300,14.57830517578125,0.26686200499534607,-0.24540600180625916,-0.12627999484539032
1788165229520393700,14.588393798828125,0.40047699213027954,-0.06579499691724777,-0.0704059973359108
1788165229530485500,14.598485595703124,0.3732979893684387,0.11290799826383591,0.24413999915122986
1788165229540563700,14.608563720703126,-0.10105500370264053,0.31504398584365845,0.1474439948797226
1788165229550664200,14.618664306640625,-0.632220983505249,0.42173099517822266,0.46175599098205566
1788165229560756000,14.628755859375,-0.9264580011367798,0.5606579780578613,0.13045500218868256
1788165229570853000,14.63885302734375,-0.6671350002288818,0.5346090197563171,0.008899999782443047
1788165229580935000,14.648934814453124,0.17011100053787231,0.40704599022865295,0.26101699471473694
1788165229591032300,14.6590322265625,1.0016239881515503,0.35940098762512207,-0.30412399768829346
1788165229601121800,14.669121826171875,1.7046300172805786,0.22088100016117096,-0.4571700096130371
1788165229611212000,14.6792119140625,1.7772459983825684,-0.05612799897789955,-0.21190199255943298
1788165229621304300,14.68930419921875,0.9229559898376465,-0.1893489956855774,-0.43323299288749695
1788165229631401500,14.6994013671875,-0.27467501163482666,-0.28589099645614624,-0.3109639883041382
1788165229641491000,14.709490966796874,-0.8768159747123718,-0.3850409984588623,0.009592000395059586
1788165229651590700,14.719590576171875,-0.7894870042800903,-0.18363499641418457,-0.17908799648284912
1788165229661682400,14.729682373046876,0.09099400043487549,0.07603900134563446,-0.05871500074863434
1788165229671775700,14.739775634765625,0.36281299591064453,0.4824579954147339,-0.10169599950313568
1788165229681867000,14.749866943359375,0.05699700117111206,0.8383129835128784,-0.24910399317741394
1788165229691963100,14.759963134765625,-0.6494020223617554,0.8133959770202637,-0.8656219840049744
1788165229702049300,14.77004931640625,-0.9277939796447754,0.49437299370765686,-1.4728389978408813
1788165229712145000,14.780144775390625,-1.0763649940490723,-0.012543999589979649,-1.0786069631576538
1788165229722232800,14.79023291015625,-0.5490130186080933,-0.011896000243723392,-0.8837609887123108
1788165229732328400,14.800328369140624,0.6240059733390808,0.14733900129795074,-0.45728400349617004
1788165229742414600,14.81041455078125,1.0931090116500854,0.07752899825572968,0.458407998085022
1788165229752527600,14.820527587890625,0.624809980392456,0.2599110007286072,0.8508120179176331
1788165229762622000,14.8306220703125,-0.23831799626350403,0.48326799273490906,0.24282999336719513
1788165229772710100,14.840710205078125,-0.9942150115966797,0.32600298523902893,-0.04934199899435043
1788165229782808300,14.850808349609375,-1.3248300552368164,0.1357640027999878,-0.35597100853919983
1788165229792899800,14.86089990234375,-0.9142439961433411,0.0011309999972581863,-0.7021679878234863
1788165229802988000,14.870988037109376,-0.08098600059747696,-0.04246800020337105,-0.6828089952468872
1788165229813077000,14.881076904296876,0.92194002866745,0.024960000067949295,-0.3441779911518097
1788165229823166700,14.891166748046874,1.3386759757995605,0.0867059975862503,-0.10710500180721283
1788165229833261600,14.901261474609376,1.3014090061187744,0.08648499846458435,0.12049700319766998
1788165229843345700,14.911345703125,1.1713600158691406,-0.15431100130081177,0.28948700428009033
1788165229853437400,14.9214375,0.3252840042114258,-0.2633399963378906,0.3768799901008606
1788165229863518500,14.9315185546875,-0.5026080012321472,-0.28440800309181213,0.4584279954433441
1788165229873612800,14.94161279296875,-1.2869809865951538,-0.07493200153112411,-0.26347899436950684
1788165229883705900,14.951705810546875,-0.7521089911460876,0.1598069965839386,-0.33538100123405457
1788165229893804800,14.9618046875,0.1505099982023239,0.6559990048408508,-0.21850800514221191
1788165229903888100,14.97188818359375,1.2789690494537354,1.0385229587554932,-0.4988439977169037
1788165229913978000,14.98197802734375,1.589576005935669,1.0150439739227295,-0.6136339902877808
1788165229924068000,14.992068115234375,1.019569993019104,0.5710980296134949,-0.6437720060348511
1788165229934150400,15.002150390625,-0.5619159936904907,-0.014336000196635723,-0.8237149715423584
1788165229944235800,15.01223583984375,-1.1614500284194946,-0.8244209885597229,-0.5186330080032349
1788165229954387200,15.02238720703125,-0.7825260162353516,-1.1518000364303589,-0.3984780013561249
1788165229964466200,15.032466064453125,-0.3128339946269989,-0.7924619913101196,-0.28003600239753723
1788165229974551800,15.0425517578125,0.2901430130004883,-0.37091100215911865,0.23468899726867676
1788165229984653600,15.052653564453125,-0.09583599865436554,0.18558700382709503,-0.31636300683021545
1788165229994740200,15.062740234375,-0.3201580047607422,0.12572099268436432,-0.46515899896621704
1788165230004823800,15.07282373046875,-0.2162889987230301,0.029911000281572342,-0.4453839957714081
1788165230014919400,15.08291943359375,0.3226419985294342,0.047481000423431396,-0.6355550289154053
1788165230024998700,15.09299853515625,0.9385899901390076,0.03821500018239021,-0.2500630021095276
1788165230035088100,15.103088134765626,1.2580469846725464,0.11354299634695053,0.2634910047054291
1788165230045172200,15.113172119140625,1.0464260578155518,0.28491199016571045,0.33054599165916443
1788165230055283000,15.123282958984374,0.48843899369239807,0.16521300375461578,0.42443400621414185
1788165230065368300,15.133368408203125,0.00003600000127335079,0.018410999327898026,0.31997400522232056
1788165230075442700,15.143442626953124,-0.3756459951400757,-0.33156898617744446,-0.13693499565124512
1788165230085532700,15.15353271484375,-0.5002049803733826,-0.656673014163971,-0.48714199662208557
1788165230095610400,15.1636103515625,-0.613277018070221,-0.9073479771614075,-0.7160360217094421
1788165230105699300,15.17369921875,-0.8892750144004822,-0.6526979804039001,-1.046623945236206
1788165230115790300,15.183790283203125,-0.9471709728240967,-0.24751000106334686,-0.8637830018997192
1788165230125877200,15.193877197265625,-0.6223289966583252,0.1813569962978363,-0.9291920065879822
1788165230135971300,15.203971435546874,0.2643600106239319,0.11919700354337692,-0.49969300627708435
1788165230146059000,15.21405908203125,1.0460150241851807,-0.02964800037443638,-0.030396999791264534
1788165230156145400,15.2241455078125,1.5859700441360474,0.1116970032453537,0.2194879949092865
1788165230166230300,15.234230224609375,1.3135780096054077,0.21084299683570862,0.6026260256767273
1788165230176334000,15.244333984375,0.596019983291626,0.2879199981689453,0.7945399880409241
1788165230186424300,15.25442431640625,-1.0361260175704956,0.08495800197124481,0.3629649877548218
1788165230196510500,15.264510498046874,-1.8872400522232056,-0.3600020110607147,-0.11239200085401535
1788165230206596900,15.274596923828126,-1.9394140243530273,-0.5689889788627625,-0.594061017036438
1788165230216692700,15.284692626953126,-0.9902539849281311,-0.3848859965801239,-0.88605797290802
1788165230226787300,15.294787353515625,0.35030099749565125,-0.1556120067834854,-0.7972840070724487
1788165230236866800,15.30486669921875,1.1776419878005981,-0.04170500114560127,-0.7551190257072449
1788165230246954800,15.314954833984375,1.4898960590362549,-0.14344599843025208,-0.4171999990940094
1788165230257040000,15.325039794921874,0.7323200106620789,-0.19423499703407288,-0.12619000673294067
1788165230267122000,15.335121826171875,-0.14093300700187683,-0.17099499702453613,-0.38117000460624695
1788165230277208300,15.345208251953125,-0.9073879718780518,-0.342864990234375,-0.14380399882793427
1788165230287295000,15.355294921875,-1.3664000034332275,-0.5149779915809631,0.11923100054264069
1788165230297384000,15.365384033203124,-1.3322980403900146,-0.4538469910621643,-0.10460399836301804
1788165230307469600,15.375469482421876,-1.1413370370864868,-0.37840399146080017,-0.26601600646972656
1788165230317552400,15.385552490234375,-0.6778150200843811,-0.3644599914550781,0.08359000086784363
1788165230327638300,15.39563818359375,-0.008488999679684639,-0.2640100121498108,-0.2031800001859665
1788165230337719600,15.405719482421874,0.28016799688339233,-0.2666949927806854,-0.4039370119571686
1788165230347809800,15.415809814453125,0.3460969924926758,-0.5793830156326294,-0.06914599984884262
1788165230357890300,15.425890380859375,-0.15288099646568298,-0.6012799739837646,0.1979690045118332
1788165230367978200,15.435978271484375,-0.01659799925982952,-0.37015798687934875,0.6159129738807678
1788165230378076200,15.446076171875,0.3029229938983917,-0.06508799642324448,0.9302300214767456
1788165230388167400,15.45616748046875,-0.22050200402736664,0.2124129980802536,0.8330550193786621
1788165230398262500,15.466262451171875,-1.0433189868927002,0.3258650004863739,0.6585429906845093
1788165230408358400,15.4763583984375,-1.5473350286483765,0.18493600189685822,-0.15663599967956543
1788165230418458600,15.486458740234376,-1.79476797580719,-0.36403200030326843,-0.2689400017261505
1788165230428541400,15.49654150390625,-1.4781399965286255,-0.6378960013389587,-0.4908069968223572
1788165230438634200,15.50663427734375,-0.25003600120544434,-0.5290830135345459,-0.4385730028152466
1788165230448719600,15.5167197265625,0.9974550008773804,-0.4315379858016968,0.16381999850273132
1788165230458801200,15.52680126953125,1.6440140008926392,-0.17758400738239288,0.433025985956192
1788165230468886500,15.536886474609375,1.5875519514083862,0.08472999930381775,0.4944300055503845
1788165230478979600,15.5469794921875,0.7740470170974731,-0.023854000493884087,0.7061750292778015
1788165230489058600,15.55705859375,-0.008666000328958035,-0.1137320026755333,0.5934439897537231
1788165230499143400,15.567143310546875,-0.5483940243721008,-0.3151110112667084,0.31597900390625
1788165230509231000,15.577231201171875,-0.5168070197105408,-0.3564789891242981,0.29229798913002014
1788165230519319000,15.587319091796875,-0.7122640013694763,-0.15321500599384308,-0.005582000128924847
1788165230529404000,15.59740380859375,-0.3624979853630066,0.3473939895629883,-0.28765401244163513
1788165230539497500,15.60749755859375,-0.04201199859380722,0.5872430205345154,-0.3257089853286743
1788165230549587200,15.617587158203126,-0.11320699751377106,0.451337993144989,-0.6923149824142456
1788165230559682000,15.62768212890625,-0.06940499693155289,0.009194999933242798,-0.4695799946784973
1788165230569770500,15.6377705078125,-0.1576949954032898,-0.0667790025472641,-0.647704005241394
1788165230579860700,15.64786083984375,-0.10024499893188477,-0.13282400369644165,-0.5778859853744507
1788165230589952300,15.6579521484375,0.09189999848604202,-0.2254830002784729,-0.20133300125598907
1788165230600047400,15.66804736328125,-0.3794519901275635,0.1463399976491928,-0.14764100313186646
1788165230610124800,15.678124755859375,-0.6411319971084595,0.35905200242996216,-0.2172520011663437
1788165230620218400,15.68821826171875,-1.0401450395584106,-0.09770499914884567,-0.20369699597358704
1788165230630314500,15.698314453125,-1.1560449600219727,-0.5485349893569946,-0.4708549976348877
1788165230640408300,15.708408203125,-1.0268110036849976,-0.6507999897003174,-0.6485549807548523
1788165230650498300,15.718498291015624,-0.5466560125350952,-0.8441659808158875,-0.300790011882782
1788165230660590600,15.728590576171875,-0.14640699326992035,-0.8147370219230652,-0.38440999388694763
1788165230670688300,15.738688232421875,0.4270220100879669,-0.6649489998817444,-0.04584600031375885
1788165230680789200,15.748789306640624,0.8761839866638184,-0.6607009768486023,0.302047997713089
1788165230690886400,15.758886474609374,0.34051498770713806,-0.31864500045776367,0.29390498995780945
1788165230700979000,15.76897900390625,-0.005824999883770943,-0.3508630096912384,0.567762017250061
1788165230711064800,15.77906494140625,-0.22263899445533752,-0.34661000967025757,0.6121699810028076
1788165230721156400,15.78915625,-0.5949069857597351,-0.3673110008239746,0.3751859962940216
1788165230731242000,15.799241943359375,-0.6595219969749451,-0.28224098682403564,0.32225799560546875
1788165230741326300,15.809326416015624,-0.896710991859436,0.25961199402809143,-0.07942300289869308
1788165230751412700,15.819412841796876,-0.28164801001548767,0.23738199472427368,-0.010459000244736671
1788165230761510000,15.829510009765626,-0.1998710036277771,0.2569659948348999,-0.07683300226926804
1788165230771593700,15.83959375,0.18077799677848816,0.2845650017261505,-0.3449400067329407
1788165230781687300,15.849687255859376,0.7433149814605713,0.15516899526119232,-0.06399700045585632
1788165230791772700,15.859772705078125,1.332489013671875,0.2512100040912628,0.21393999457359314
1788165230801874700,15.869874755859374,0.7217490077018738,0.2885909974575043,0.35471200942993164
1788165230811957000,15.87995703125,0.2691349983215332,0.356779009103775,0.33536699414253235
1788165230822048300,15.89004833984375,-0.40209901332855225,0.3832769989967346,0.44795501232147217
1788165230832128300,15.900128173828126,-1.2689640522003174,0.5945720076560974,0.12438499927520752
1788165230842221800,15.910221923828125,-1.7307699918746948,0.6868410110473633,-0.2127230018377304
1788165230852300500,15.920300537109375,-1.431628942489624,0.540378987789154,-0.3310059905052185
1788165230862392600,15.930392578125,-0.26180699467658997,0.3163659870624542,-0.49983200430870056
1788165230872470300,15.94047021484375,0.4336569905281067,0.2508910000324249,-0.3758299946784973
1788165230882569700,15.95056982421875,1.3137890100479126,0.14982600510120392,-0.4593850076198578
1788165230892650000,15.96064990234375,1.3010029792785645,-0.04082699865102768,-0.08598899841308594
1788165230902747600,15.97074755859375,0.7032439708709717,-0.1707260012626648,0.21651199460029602
1788165230912830000,15.980829833984375,0.8152989745140076,-0.42434999346733093,0.1912979930639267
1788165230922921500,15.99092138671875,0.4066689908504486,-0.5600519776344299,0.2857219874858856
1788165230933002800,16.001002685546876,-0.14078199863433838,-0.35526999831199646,0.27580899000167847
1788165230943098000,16.01109814453125,-0.5854669809341431,-0.17658500373363495,-0.040681999176740646
1788165230953186800,16.021186767578126,-1.0518380403518677,-0.019675999879837036,-0.2051669955253601
1788165230963282700,16.03128271484375,-0.6576679944992065,-0.23820200562477112,-0.4222410023212433
1788165230973373700,16.041373779296876,-0.18549199402332306,-0.2373650074005127,-0.8522210121154785
1788165230983467500,16.051467529296875,0.516435980796814,-0.1737779974937439,-0.68401700258255
1788165230993547500,16.061547607421875,1.0782220363616943,0.053040001541376114,-0.3972190022468567
1788165231003636200,16.07163623046875,0.9451159834861755,0.29850301146507263,0.021013999357819557
1788165231013727500,16.0817275390625,0.445715993642807,0.29910600185394287,0.34189799427986145
1788165231023824400,16.091824462890624,-0.27831700444221497,0.3038559854030609,0.1203719973564148
1788165231033902600,16.101902587890624,-0.9459440112113953,0.10557299852371216,0.16096900403499603
1788165231043997700,16.111997802734376,-0.9937999844551086,0.09932500123977661,-0.12794999778270721
1788165231054087700,16.122087646484374,-0.2584350109100342,0.0028589998837560415,-0.38099899888038635
1788165231064182000,16.13218212890625,0.2464669942855835,-0.7138339877128601,-0.3972100019454956
1788165231074269400,16.14226953125,0.4973050057888031,-1.1512229442596436,-0.4045259952545166
1788165231084366300,16.152366455078123,0.595104992389679,-1.2237670421600342,-0.34898900985717773
1788165231094451700,16.16245166015625,0.3980860114097595,-1.205070972442627,-0.13251100480556488
1788165231104552400,16.172552490234374,0.16919000446796417,-1.189579963684082,0.2139739990234375
1788165231114638800,16.182638916015627,0.03862300142645836,-1.0218390226364136,0.32521000504493713
1788165231124730600,16.192730712890626,-0.11373399943113327,-0.63646399974823,0.566868007183075
1788165231134815000,16.20281494140625,-0.21842199563980103,-0.26134800910949707,0.6654070019721985
1788165231144910000,16.21291015625,-0.6428220272064209,0.14556699991226196,0.39350199699401855
1788165231154997500,16.22299755859375,0.1521189957857132,-0.14930100739002228,0.26826199889183044
1788165231165082600,16.23308251953125,1.0112099647521973,-0.7503799796104431,0.07063300162553787
1788165231175169500,16.24316943359375,1.3042919635772705,-1.3488960266113281,0.07322599738836288
1788165231185250600,16.25325048828125,0.9312019944190979,-1.4036259651184082,0.03817100077867508
1788165231195343600,16.263343505859375,1.236933946609497,-1.6561939716339111,0.23243699967861176
1788165231205430300,16.27343017578125,0.5098339915275574,-1.8993079662322998,0.6781179904937744
1788165231215511800,16.28351171875,-1.3953109979629517,-1.5756210088729858,0.5262889862060547
1788165231225605000,16.293605224609376,-2.523952007293701,-1.0571540594100952,0.5316359996795654
1788165231235697200,16.303697265625,-2.7398900985717773,-0.7675909996032715,0.27237099409103394
1788165231245785600,16.31378564453125,-1.8143750429153442,-0.3762719929218292,-0.3096129894256592
1788165231255872800,16.323872802734375,0.12216699868440628,-0.5017889738082886,-0.5084390044212341
1788165231265959200,16.333959228515624,1.3344860076904297,-1.0368659496307373,-0.24002699553966522
1788165231276044800,16.344044921875,1.6160629987716675,-1.0787149667739868,0.10704100131988525
1788165231286125000,16.354125,2.0846478939056396,-1.2794530391693115,0.49569201469421387
1788165231296207400,16.364207275390626,1.3005379438400269,-1.6105289459228516,0.9708750247955322
1788165231306302000,16.374302001953126,0.4543839991092682,-1.485116958618164,0.8992869853973389
1788165231316391700,16.3843916015625,-0.3088900148868561,-1.3026169538497925,1.0354880094528198
1788165231326472700,16.39447265625,-0.9629020094871521,-1.0780309438705444,0.892458975315094
1788165231336564000,16.40456396484375,-1.2278800010681152,-0.7281919717788696,0.39600899815559387
1788165231346647600,16.4146474609375,-0.9128919839859009,-0.6060439944267273,-0.12031199783086777
1788165231356737500,16.424737548828126,-0.40466898679733276,-0.6556529998779297,-0.4173299968242645
1788165231366825700,16.43482568359375,0.18400700390338898,-1.0886889696121216,-0.5450339913368225
1788165231376914700,16.444914794921875,0.5585439801216125,-1.391008973121643,-0.609254002571106
1788165231387001600,16.455001708984376,0.40120500326156616,-1.668045997619629,-0.44453299045562744
1788165231397078800,16.465078857421876,0.1559779942035675,-1.9287259578704834,-0.12760600447654724
1788165231407171300,16.47517138671875,-0.48366600275039673,-1.8612079620361328,0.2066670060157776
1788165231417250800,16.485250732421875,-1.2836649417877197,-1.2309730052947998,0.06254299730062485
1788165231427342300,16.49534228515625,-1.475517988204956,-0.8552960157394409,0.24898600578308105
1788165231437426200,16.50542626953125,-1.3732099533081055,-0.6709499955177307,0.15898600220680237
1788165231447516200,16.51551611328125,-0.8413569927215576,-0.40951499342918396,-0.1987600028514862
1788165231457600500,16.5256005859375,0.04177499935030937,-0.4652029871940613,-0.381972998380661
1788165231467692500,16.535692626953125,0.48347800970077515,-0.7281550168991089,-0.31591299176216125
1788165231477779000,16.545779052734375,1.0084099769592285,-0.9930170178413391,-0.04171900078654289
1788165231487873800,16.555873779296874,1.0852240324020386,-1.5047099590301514,0.5042150020599365
1788165231497959400,16.56595947265625,0.635250985622406,-1.8462940454483032,0.84415602684021
1788165231508049000,16.576048828125,0.39792799949645996,-1.9019089937210083,1.0504380464553833
1788165231518136300,16.58613623046875,0.1431560069322586,-1.725154995918274,1.0015859603881836
1788165231528224500,16.596224609375,0.002707999898120761,-1.2831549644470215,0.6038780212402344
1788165231538303500,16.606303466796874,-0.28326699137687683,-0.9747580289840698,0.35139399766921997
1788165231548397000,16.61639697265625,-0.06837300211191177,-0.7303860187530518,0.035227999091148376
1788165231558478800,16.626478759765625,0.1290310025215149,-0.7424830198287964,-0.050553999841213226
1788165231568567300,16.6365673828125,0.1570339947938919,-0.8912929892539978,-0.02386399917304516
1788165231578652700,16.646652587890625,0.17065300047397614,-1.103279948234558,-0.1159610003232956
1788165231588741000,16.6567412109375,-0.07347699999809265,-1.4648959636688232,0.23306000232696533
1788165231598826200,16.666826171875,-0.2636519968509674,-1.4456470012664795,0.030053000897169113
1788165231619006700,16.6870068359375,-0.748075008392334,-0.9046000242233276,-0.5070409774780273
1788165231629106400,16.6971064453125,-0.7129799723625183,-0.8478379845619202,-0.7227849960327148
1788165231639189800,16.707189697265626,-0.4854530096054077,-0.99543297290802,-0.65767502784729
1788165231649279700,16.71727978515625,-0.10823400318622589,-0.8441810011863708,-0.8156599998474121
1788165231659364600,16.727364501953126,0.5261139869689941,-0.7509520053863525,-0.5820890069007874
1788165231669466400,16.73746630859375,0.9120389819145203,-0.6021040081977844,-0.2670289874076843
1788165231679551000,16.747551025390624,1.1934870481491089,-0.49751999974250793,0.08849500119686127
1788165231689640400,16.757640380859375,1.3922369480133057,-0.36361199617385864,0.2599619925022125
1788165231699726300,16.767726318359376,1.163864016532898,-0.29378899931907654,0.29079800844192505
1788165231709824300,16.77782421875,0.9627469778060913,-0.6142510175704956,0.520147979259491
1788165231719901400,16.7879013671875,0.3155690133571625,-0.9072020053863525,0.3174329996109009
1788165231729993200,16.7979931640625,-0.3906640112400055,-1.094241976737976,-0.06096800044178963
1788165231740075300,16.8080751953125,-0.837228000164032,-1.527250051498413,-0.06877300143241882
1788165231750164000,16.8181640625,-1.0316439867019653,-1.777127981185913,-0.2727220058441162
1788165231760249000,16.8282490234375,-0.8936120271682739,-1.8578310012817383,-0.1836639940738678
1788165231770343000,16.838343017578126,-0.6145709753036499,-1.7643460035324097,-0.18173100054264069
1788165231780432600,16.8484326171875,-0.4030050039291382,-1.6913659572601318,-0.08331800252199173
1788165231790530000,16.858530029296876,-0.26266199350357056,-1.5157079696655273,0.017616000026464462
1788165231800624000,16.8686240234375,-0.2336149960756302,-1.4741389751434326,0.0643329992890358
1788165231810724400,16.878724365234376,-0.08639299869537354,-1.4723379611968994,0.19818100333213806
1788165231820809700,16.888809814453126,0.012451999820768833,-1.457247018814087,0.3748449981212616
1788165231830893300,16.898893310546875,-0.04929500073194504,-1.1727700233459473,0.3500710129737854
1788165231840982500,16.908982421875,-0.6076890230178833,-0.9259139895439148,0.4332849979400635
1788165231851077000,16.9190771484375,-1.4754530191421509,-0.8746349811553955,0.1206350028514862
1788165231861164800,16.929164794921874,-1.708130955696106,-1.2949310541152954,0.07346100360155106
1788165231871256000,16.939256103515625,-1.510880947113037,-1.3642510175704956,-0.37275299429893494
1788165231881344300,16.94934423828125,-0.7213389873504639,-1.3674609661102295,-0.43391600251197815
1788165231891439400,16.959439453125,-0.006819000001996756,-1.6072700023651123,0.1352500021457672
1788165231901527600,16.969527587890624,0.35097000002861023,-1.5838730335235596,0.545727014541626
1788165231911622400,16.979622314453124,0.5884109735488892,-1.5269279479980469,0.890591025352478
1788165231921714700,16.989714599609375,0.28672999143600464,-1.3917449712753296,1.0330009460449219
1788165231931813000,16.999813232421875,-0.4482640027999878,-1.1389000415802002,1.1632879972457886
1788165231941908000,17.009907958984375,-0.855584979057312,-0.7023019790649414,1.0706249475479126
1788165231951996400,17.019996337890625,-0.7850319743156433,-0.4240190088748932,0.8216599822044373
1788165231962081000,17.0300810546875,-0.06256300210952759,-0.3639979958534241,0.8124729990959167
1788165231972169500,17.04016943359375,0.5513259768486023,-0.2295829951763153,0.7492750287055969
1788165231982250200,17.050250244140624,1.0623270273208618,-0.12665300071239471,0.6418349742889404
1788165231992338400,17.06033837890625,0.9606350064277649,-0.25038599967956543,0.49799400568008423
1788165232002419200,17.070419189453126,0.6869009733200073,-0.48236900568008423,0.20609399676322937
1788165232012514600,17.0805146484375,0.08996699750423431,-1.0824849605560303,0.3911980092525482
1788165232022600200,17.09060009765625,-0.4401949942111969,-1.111217975616455,0.024284999817609787
1788165232032698000,17.100697998046876,-0.7255849838256836,-0.9025499820709229,0.24992799758911133
1788165232042783200,17.110783203125,-1.0002260208129883,-0.5842450261116028,0.3484629988670349
1788165232052874800,17.120874755859376,-1.316167950630188,-0.16508899629116058,0.3071480095386505
1788165232062961200,17.130961181640625,-1.6270400285720825,0.23058800399303436,0.11271099746227264
1788165232083143400,17.151143310546875,-1.8927040100097656,0.02687700092792511,-0.18778899312019348
1788165232093241300,17.161241455078127,-1.375980019569397,-0.1557610034942627,-0.15388000011444092
1788165232103324000,17.171323974609376,-0.6248679757118225,-0.16025599837303162,-0.007941000163555145
1788165232113422300,17.18142236328125,0.14753000438213348,-0.09354300051927567,0.01747399941086769
1788165232123505400,17.19150537109375,0.9607359766960144,-0.08648300170898438,0.27548301219940186
1788165232133595000,17.201594970703123,1.5286550521850586,-0.040778998285532,0.3335169851779938
1788165232143675400,17.21167529296875,2.136362075805664,-0.038704998791217804,0.34728699922561646
1788165232153770500,17.2217705078125,2.0183091163635254,0.16962499916553497,0.1448030024766922
