time,seconds_elapsed,z,y,x
1788165215050621700,0.11862158203125,0.021449999883770943,0.08195000141859055,-0.2670249938964844
1788165215060711700,0.128711669921875,0.023924998939037323,0.09776250272989273,-0.2780250012874603
1788165215070807300,0.138807373046875,0.03244999796152115,0.09652499854564667,-0.26455000042915344
1788165215080901000,0.148901123046875,0.05073750019073486,0.06847500056028366,-0.2400749921798706
1788165215090991900,0.158991943359375,0.06916250288486481,0.04895000159740448,-0.21449999511241913
1788165215101078800,0.169078857421875,0.10449999570846558,0.07342500239610672,-0.19249999523162842
1788165215111174400,0.17917431640625,0.14973749220371246,0.10518749803304672,-0.1825999915599823
1788165215121269200,0.189269287109375,0.17902499437332153,0.13571250438690186,-0.1825999915599823
1788165215131366400,0.199366455078125,0.15950000286102295,0.07218749821186066,-0.21449999511241913
1788165215141465000,0.209465087890625,0.14973749220371246,0.01347499992698431,-0.32807499170303345
1788165215151559200,0.21955908203125,0.14121249318122864,0.03423750028014183,-0.5246999859809875
1788165215161650700,0.229650634765625,0.11550000309944153,0.11728750169277191,-0.7459374666213989
1788165215171746000,0.23974609375,0.07768750190734863,0.1564749926328659,-0.9743250012397766
1788165215181848600,0.2498486328125,0.0471624992787838,0.14547500014305115,-1.217424988746643
1788165215191934700,0.259934814453125,0.0849749967455864,0.18947499990463257,-1.496000051498413
1788165215202025500,0.270025390625,0.16802500188350677,0.14300000667572021,-1.707337498664856
1788165215212116000,0.280115966796875,0.2157374918460846,0.17104999721050262,-1.8088124990463257
1788165215222210000,0.2902099609375,0.29878750443458557,0.3385249972343445,-1.773337483406067
1788165215232301000,0.300301025390625,0.3965499997138977,0.49486249685287476,-1.6828625202178955
1788165215242399000,0.31039892578125,0.3513124883174896,0.4923875033855438,-1.6193374395370483
1788165215252494000,0.320494140625,0.3830749988555908,0.5656750202178955,-1.6145249605178833
1788165215262588400,0.33058837890625,0.406312495470047,0.4875749945640564,-1.6670500040054321
1788165215272679200,0.34067919921875,0.32436248660087585,0.4020499885082245,-1.8013875484466553
1788165215282770200,0.350770263671875,0.21449999511241913,0.4875749945640564,-1.9676250219345093
1788165215292864800,0.36086474609375,0.08992499858140945,0.3885749876499176,-2.1434874534606934
1788165215302958600,0.37095849609375,-0.18012499809265137,0.14547500014305115,-2.367062568664551
1788165215313056500,0.381056396484375,-0.6443250179290771,-0.0170499999076128,-2.613874912261963
1788165215323156500,0.391156494140625,-0.9998999834060669,0,-2.8094000816345215
1788165215333246700,0.401246826171875,-1.0439000129699707,0.07342500239610672,-2.9242124557495117
1788165215343346200,0.41134619140625,-0.8447999954223633,0.4300999939441681,-2.8679749965667725
1788165215353431800,0.421431884765625,-0.4587000012397766,0.9444875121116638,-2.6065874099731445
1788165215363526100,0.431526123046875,-0.031075000762939453,1.5210249423980713,-2.2107250690460205
1788165215373616600,0.44161669921875,0.28654998540878296,1.8741250038146973,-1.7465250492095947
1788165215383705300,0.451705322265625,0.4758875072002411,2.006124973297119,-1.2346124649047852
1788165215393799000,0.461798828125,0.5663625001907349,2.1038875579833984,-0.6994624733924866
1788165215403897000,0.47189697265625,0.644462525844574,2.034174919128418,-0.09473749995231628
1788165215413979400,0.4819794921875,0.6567000150680542,1.485687494277954,0.5429875254631042
1788165215424073700,0.49207373046875,0.5578374862670898,1.0030624866485596,1.108662486076355
1788165215434160000,0.50216015625,0.4197874963283539,1.1801625490188599,1.503287434577942
1788165215444254200,0.512254150390625,0.2890250086784363,2.1624624729156494,1.719575047492981
1788165215454346500,0.522346435546875,0.22426250576972961,3.5283875465393066,1.7439124584197998
1788165215464444000,0.53244384765625,0.37331250309944153,3.9755375385284424,1.4202375411987305
1788165215474532900,0.542532958984375,0.5736500024795532,4.007299900054932,0.9241374731063843
1788165215484627500,0.55262744140625,0.5578374862670898,4.5545501708984375,0.7983250021934509
1788165215494725000,0.56272509765625,0.43312498927116394,5.073887348175049,0.6687999963760376
1788165215504819700,0.57281982421875,0.3513124883174896,5.588137626647949,0.6162750124931335
1788165215514909700,0.58290966796875,0.3353624939918518,6.150099754333496,0.6847500205039978
1788165215525002800,0.593002685546875,0.3293125033378601,6.632724761962891,0.8362749814987183
1788165215535088000,0.603088134765625,0.40755000710487366,6.6192498207092285,1.0036125183105469
1788165215545186300,0.613186279296875,0.4515500068664551,6.125762462615967,1.125849962234497
1788165215555269000,0.62326904296875,0.17297500371932983,5.495325088500977,1.2284250259399414
1788165215565374700,0.633374755859375,-0.27541249990463257,4.680362701416016,1.1966625452041626
1788165215575458000,0.6434580078125,-0.5552250146865845,4.103825092315674,0.9218000173568726
1788165215585557500,0.6535576171875,-0.4782249927520752,4.4299750328063965,0.06778749823570251
1788165215595647700,0.663647705078125,-0.37441250681877136,4.747600078582764,-0.7189875245094299
1788165215605743900,0.673743896484375,-0.6028000116348267,4.734125137329102,-0.9010375142097473
1788165215615825200,0.6838251953125,-0.8801375031471252,4.778124809265137,-0.7042750120162964
1788165215625921000,0.693921142578125,-1.0366125106811523,4.845362663269043,-0.34636250138282776
1788165215636002000,0.704001953125,-1.0096625089645386,4.61326265335083,-0.045787498354911804
1788165215646096000,0.714095947265625,-0.9521874785423279,4.4422125816345215,-0.060499999672174454
1788165215656186600,0.7241865234375,-0.9559000134468079,4.365212440490723,-0.30855000019073486
1788165215666272300,0.734272216796875,-0.8668000102043152,4.23692512512207,-0.47712498903274536
1788165215676362500,0.744362548828125,-0.7495124936103821,4.081824779510498,-0.4478375017642975
1788165215686452200,0.7544521484375,-0.7628499865531921,3.919300079345703,-0.2523125112056732
1788165215696543200,0.764543212890625,-0.8826124668121338,3.755537509918213,0.020075000822544098
1788165215706636500,0.774636474609375,-1.0756624937057495,3.6469125747680664,0.25107499957084656
1788165215716725000,0.78472509765625,-1.3334749937057495,3.381812572479248,0.295074999332428
1788165215726815000,0.79481494140625,-1.5643374919891357,2.890662431716919,0.005499999970197678
1788165215736910600,0.80491064453125,-1.6058624982833862,2.3310375213623047,-0.5296499729156494
1788165215747008800,0.8150087890625,-1.428762435913086,1.7410249710083008,-1.0060875415802002
1788165215757098500,0.825098388671875,-1.2075250148773193,1.3609750270843506,-1.1844249963760376
1788165215767190000,0.83518994140625,-1.0719499588012695,1.1631125211715698,-1.0610874891281128
1788165215777281800,0.84528173828125,-1.0841875076293945,1.1008249521255493,-0.7189875245094299
1788165215787375400,0.855375244140625,-1.1929500102996826,1.2218250036239624,-0.3305499851703644
1788165215797459200,0.865459228515625,-1.296762466430664,1.4136375188827515,-0.03726249933242798
1788165215807551500,0.875551513671875,-1.5215749740600586,1.4759249687194824,0.09102500230073929
1788165215817638000,0.885637939453125,-1.6779124736785889,1.4489749670028687,0.0873124971985817
1788165215827723000,0.895722900390625,-1.615625023841858,1.3048750162124634,0.09102500230073929
1788165215837815000,0.90581494140625,-1.4140499830245972,1.185112476348877,0.32436248660087585
1788165215847900400,0.915900390625,-1.0731874704360962,1.1448249816894531,0.6602749824523926
1788165215857985000,0.925985107421875,-0.8765624761581421,1.119112491607666,1.025612473487854
1788165215868068600,0.936068603515625,-0.8936125040054321,0.9945374727249146,1.2639000415802002
1788165215878160100,0.94616015625,-1.0719499588012695,0.6854375004768372,1.3347125053405762
1788165215888250600,0.956250732421875,-1.2075250148773193,0.27857500314712524,1.2760000228881836
1788165215898333700,0.966333740234375,-1.1539000272750854,0.08195000141859055,1.2552374601364136
1788165215908424400,0.976424560546875,-0.9766625165939331,0.11976250261068344,1.388474941253662
1788165215918517000,0.98651708984375,-0.7420874834060669,0.3726249933242798,1.624287486076355
1788165215928604200,0.996604248046875,-0.5149375200271606,0.6231499910354614,1.8441499471664429
1788165215938694000,1.00669384765625,-0.37564998865127563,0.7282000184059143,1.9309124946594238
1788165215948780300,1.0167802734375,-0.2778874933719635,0.7147250175476074,1.8343875408172607
1788165215958878700,1.026878662109375,-0.20336249470710754,0.5559124946594238,1.645050048828125
1788165215968966400,1.03696630859375,-0.13007499277591705,0.3433375060558319,1.4910500049591064
1788165215979052300,1.04705224609375,-0.0798875018954277,0.1405249983072281,1.428762435913086
1788165215989132800,1.0571328125,-0.03726249933242798,-0.0010999999940395355,1.3969999551773071
1788165215999225000,1.06722509765625,0.0494999997317791,0.00976249948143959,1.383525013923645
1788165216009312500,1.0773125,0.12278749793767929,0.17971250414848328,1.4775749444961548
1788165216019398700,1.087398681640625,0.23526249825954437,0.5363875031471252,1.6315749883651733
1788165216029485000,1.097485107421875,0.34031251072883606,0.8210124969482422,1.8184374570846558
1788165216039576600,1.10757666015625,0.414837509393692,1.0165375471115112,2.039674997329712
1788165216049660400,1.117660400390625,0.43683749437332153,1.1448249816894531,2.15806245803833
1788165216059749600,1.12774951171875,0.4600749909877777,1.0800625085830688,2.2008249759674072
1788165216069840400,1.13784033203125,0.47464999556541443,0.983537495136261,2.176487445831299
1788165216079929000,1.14792919921875,0.47107499837875366,0.7134875059127808,1.9846749305725098
1788165216090026000,1.15802587890625,0.4796000123023987,0.37386250495910645,1.698812484741211
1788165216100114000,1.168114013671875,0.5284125208854675,0.17476250231266022,1.4544750452041626
1788165216110200300,1.178200439453125,0.6664624810218811,0.11852499842643738,1.362762451171875
1788165216120297700,1.188297607421875,0.8449375033378601,-0.013337500393390656,1.2234749794006348
1788165216130378000,1.1983779296875,0.8949875235557556,-0.1648624986410141,0.850849986076355
1788165216140471300,1.20847119140625,0.9682750105857849,-0.1966249942779541,0.5747500061988831
1788165216150559000,1.21855908203125,1.0733250379562378,0.0147124994546175,0.5197499990463257
1788165216160643300,1.228643310546875,1.2443749904632568,0.26028749346733093,0.5832750201225281
1788165216170738700,1.23873876953125,1.3604249954223633,0.26276248693466187,0.5979874730110168
1788165216180834000,1.248833984375,1.3994749784469604,0.08799999952316284,0.44288748502731323
1788165216190933200,1.258933349609375,1.2969000339508057,-0.13557499647140503,0.17902499437332153
1788165216201026000,1.269026123046875,1.0940874814987183,-0.18933749198913574,-0.028737500309944153
1788165216211114200,1.2791142578125,1.0403250455856323,0.0672374963760376,0.018975000828504562
1788165216221206500,1.28920654296875,1.055037498474121,0.28833749890327454,0.19978749752044678
1788165216231293400,1.29929345703125,0.993987500667572,0.571862518787384,0.303600013256073
1788165216241387000,1.309386962890625,0.8888000249862671,0.7429124712944031,0.32436248660087585
1788165216251473000,1.319472900390625,0.819225013256073,0.7232499718666077,0.2961750030517578
1788165216261563100,1.329563232421875,0.7251750230789185,0.9065374732017517,0.2400749921798706
1788165216271647000,1.33964697265625,0.6848874688148499,1.0861124992370605,0.2303124964237213
1788165216281741800,1.349741943359375,0.5138375163078308,1.1155375242233276,0.20707499980926514
1788165216291838000,1.359837890625,0.33660000562667847,1.2498749494552612,0.28036248683929443
1788165216301922300,1.36992236328125,0.09968750178813934,1.4319249391555786,0.4721750020980835
1788165216312028000,1.38002783203125,-0.23512500524520874,1.5980249643325806,0.7495124936103821
1788165216322120200,1.3901201171875,-0.6102250218391418,1.6273125410079956,1.0011374950408936
1788165216332210200,1.400210205078125,-0.867900013923645,1.6372125148773193,1.2186625003814697
1788165216342296000,1.410296142578125,-1.1892374753952026,1.9426000118255615,1.3432375192642212
1788165216352388400,1.420388427734375,-1.475100040435791,2.221174955368042,1.3199999332427979
1788165216362477600,1.4304775390625,-1.7719625234603882,2.4385623931884766,1.1136125326156616
1788165216372569000,1.440569091796875,-1.9199124574661255,2.3970375061035156,0.7422249913215637
1788165216382657300,1.4506572265625,-2.0249624252319336,1.8741250038146973,0.3268375098705292
1788165216392748500,1.46074853515625,-2.1190125942230225,0.909012496471405,-0.0030249999836087227
1788165216402836700,1.470836669921875,-2.2570624351501465,0.16128750145435333,0.04207500070333481
1788165216412919300,1.480919189453125,-2.773787498474121,0.08552499860525131,0.38788750767707825
1788165216423008000,1.491008056640625,-3.2918875217437744,0.4973374903202057,0.47093749046325684
1788165216433097700,1.50109765625,-3.0083625316619873,1.1301125288009644,0.028737500309944153
1788165216443189800,1.511189697265625,-2.7713124752044678,1.6640249490737915,-0.4258374869823456
1788165216453273600,1.521273681640625,-2.864262580871582,2.3970375061035156,-0.5198875069618225
1788165216463363600,1.531363525390625,-2.8043124675750732,3.0237624645233154,-0.40507498383522034
1788165216473457400,1.54145751953125,-2.420687437057495,3.045762538909912,-0.34031251072883606
1788165216483544800,1.551544921875,-2.2875874042510986,3.142287492752075,-0.3513124883174896
1788165216493638700,1.561638671875,-2.198349952697754,3.392812490463257,-0.33783748745918274
1788165216503731200,1.571731201171875,-1.8636749982833862,3.302337408065796,-0.2913624942302704
1788165216513825800,1.58182568359375,-1.1977624893188477,1.2339249849319458,-0.1069749966263771
1788165216523923200,1.591923095703125,-0.6065124869346619,0.07699999958276749,0.2498375028371811
1788165216534010400,1.60201025390625,-0.46722498536109924,0.07218749821186066,0.7567999958992004
1788165216544100600,1.6121005859375,-0.5735124945640564,-0.13557499647140503,1.034137487411499
1788165216554184400,1.622184326171875,-0.8386124968528748,-0.9773499965667725,0.7885624766349792
1788165216564267000,1.63226708984375,-1.317525029182434,-2.9638125896453857,-0.3536500036716461
1788165216574356700,1.642356689453125,-1.7634375095367432,-3.7005374431610107,-1.4385249614715576
1788165216584446000,1.652446044921875,-2.1788249015808105,-3.797062397003174,-2.1862499713897705
1788165216594527500,1.662527587890625,-2.4219250679016113,-4.049924850463867,-2.3878250122070312
1788165216614705700,1.68270556640625,-2.3999249935150146,-4.567887306213379,-1.3848999738693237
1788165216624787200,1.692787109375,-2.183774948120117,-4.209974765777588,-1.1356124877929688
1788165216634878700,1.702878662109375,-2.0395374298095703,-3.0566248893737793,-1.095324993133545
1788165216644961800,1.7129619140625,-1.786674976348877,-1.3377374410629272,-0.8765624761581421
1788165216655051000,1.723051025390625,-1.2711875438690186,-0.09281250089406967,-0.6274124979972839
1788165216665132500,1.733132568359375,-0.7005624771118164,0.46681249141693115,-0.5761250257492065
1788165216675220500,1.743220458984375,-0.03231250122189522,0.38981249928474426,-0.6542249917984009
1788165216685311000,1.75331103515625,0.39160001277923584,0.10999999940395355,-0.6676999926567078
1788165216695396600,1.763396728515625,0.38788750767707825,0.06476250290870667,-0.5344625115394592
1788165216705497000,1.7734970703125,0.0812624990940094,0.01718750037252903,-0.49293750524520874
1788165216715579100,1.7835791015625,-0.3353624939918518,0.4263874888420105,-0.5761250257492065
1788165216725669600,1.793669677734375,-0.27059999108314514,1.251112461090088,-0.5809375047683716
1788165216735755800,1.803755859375,0.08868750184774399,1.621262550354004,-0.6627500057220459
1788165216745846500,1.813846435546875,0.5919374823570251,1.517449975013733,-0.97308748960495
1788165216755931100,1.82393115234375,1.037850022315979,0.9383000135421753,-1.4385249614715576
1788165216766012400,1.834012451171875,0.9035124778747559,0.7464874982833862,-1.8833374977111816
1788165216776094000,1.844093994140625,0.284074991941452,1.1203500032424927,-1.8588625192642212
1788165216786186000,1.85418603515625,-0.06778749823570251,1.714074969291687,-1.4141875505447388
1788165216796270800,1.864270751953125,0.06792499870061874,2.0574123859405518,-0.8314625024795532
1788165216806360600,1.874360595703125,0.058024998754262924,1.8913124799728394,-0.44536250829696655
1788165216816442400,1.8844423828125,0.22302499413490295,1.4502124786376953,-0.09721250087022781
1788165216826525700,1.894525634765625,0.44165000319480896,0.9444875121116638,0.20336249470710754
1788165216836606000,1.90460595703125,0.043449997901916504,0.6451500058174133,0.71527498960495
1788165216846688500,1.9146884765625,-0.696987509727478,0.568149983882904,1.225950002670288
1788165216856776400,1.9247763671875,-0.73232501745224,0.6109125018119812,1.8050999641418457
1788165216866868200,1.9348681640625,0.3891249895095825,1.2425874471664429,2.2632498741149902
1788165216876955400,1.944955322265625,1.7183375358581543,2.256512403488159,0.6542249917984009
1788165216887044000,1.955044189453125,1.7513375282287598,1.7727874517440796,-0.116737499833107
1788165216897126700,1.965126708984375,1.1796125173568726,0.7001500129699707,0.1373624950647354
1788165216917298700,1.985298583984375,0.7239375114440918,-0.3114374876022339,0.8618500232696533
1788165216927388200,1.99538818359375,0.6164125204086304,-0.21986250579357147,0.7947499752044678
1788165216937477400,2.005477294921875,0.4636499881744385,-0.3651999831199646,0.5369374752044678
1788165216947572000,2.015572021484375,0.42707499861717224,-0.686537504196167,0.33783748745918274
1788165216957660200,2.02566015625,0.4723125100135803,-0.7977749705314636,0.319412499666214
1788165216967749600,2.03574951171875,0.7947499752044678,-0.8025875091552734,0.4526500105857849
1788165216977831000,2.045830810546875,0.9365124702453613,-0.7940624952316284,0.8167499899864197
1788165216987916800,2.055916748046875,0.7727500200271606,-0.6169624924659729,1.2772375345230103
1788165216998004000,2.06600390625,0.5418875217437744,-0.4581499993801117,1.4983375072479248
1788165217008082400,2.07608251953125,0.7154124975204468,-0.6657750010490417,1.5655750036239624
1788165217020196400,2.0881962890625,1.1600874662399292,-1.285212516784668,1.817199945449829
1788165217030282000,2.098281982421875,1.9090499877929688,-1.0518749952316284,2.2632498741149902
1788165217040366600,2.10836669921875,3.0964999198913574,0.28600001335144043,2.7787375450134277
1788165217050460000,2.1184599609375,4.600474834442139,2.361562490463257,3.395699977874756
1788165217060549000,2.128549072265625,5.234487533569336,3.9815874099731445,4.085949897766113
1788165217070629000,2.138629150390625,5.144012451171875,5.109224796295166,4.238712310791016
1788165217080729300,2.148729248046875,4.414712429046631,2.184462547302246,2.55887508392334
1788165217090819600,2.158819580078125,3.081787586212158,-0.29315000772476196,1.1636625528335571
1788165217100920300,2.16892041015625,2.2107250690460205,0.1405249983072281,1.0488499402999878
1788165217111002600,2.179002685546875,1.7758125066757202,1.0042999982833862,0.84232497215271
1788165217121091000,2.189091064453125,1.5314749479293823,0.9713000059127808,0.5821750164031982
1788165217131179300,2.19917919921875,1.4056625366210938,1.214400053024292,0.5014625191688538
1788165217141267200,2.20926708984375,1.4301375150680542,1.3659249544143677,0.2864125072956085
1788165217151352800,2.219352783203125,1.4214749336242676,1.5527875423431396,0.058024998754262924
1788165217161449700,2.22944970703125,1.0782749652862549,1.1093499660491943,-0.3548874855041504
1788165217171534800,2.239534912109375,0.494174987077713,0.3946250081062317,-0.871749997138977
1788165217181632800,2.2496328125,0.023924998939037323,0.08799999952316284,-1.0976624488830566
1788165217191723800,2.259723876953125,-0.5502749681472778,0.20776249468326569,-0.9267500042915344
1788165217201817000,2.269817138671875,-1.1061874628067017,0.6769124865531921,-0.632224977016449
1788165217211908600,2.27990869140625,-1.571624994277954,1.0837750434875488,-0.19359999895095825
1788165217221992400,2.289992431640625,-1.8844374418258667,1.4502124786376953,-0.017737500369548798
1788165217232082000,2.30008203125,-1.8941999673843384,1.5870250463485718,-0.303600013256073
1788165217242174500,2.310174560546875,-1.7096749544143677,1.7825499773025513,-0.8875625133514404
1788165217252256800,2.3202568359375,-1.7536749839782715,1.9108375310897827,-1.2773749828338623
1788165217262356500,2.3303564453125,-1.987012505531311,1.863124966621399,-1.2601875066757202
1788165217272431600,2.340431640625,-2.241112470626831,1.8497874736785889,-1.130662441253662
1788165217292607200,2.360607177734375,-3.1721251010894775,3.5454375743865967,-0.6297500133514404
1788165217302709500,2.37070947265625,-3.5715625286102295,3.974299907684326,0.1788875013589859
1788165217312800300,2.38080029296875,-3.438462495803833,3.5429625511169434,1.1587125062942505
1788165217322901800,2.39090185546875,-3.070650100708008,3.403675079345703,1.88319993019104
1788165217332986600,2.400986572265625,-2.624737501144409,3.1997625827789307,2.1482999324798584
1788165217343083000,2.4110830078125,-2.3278748989105225,2.2114124298095703,2.0299124717712402
1788165217353172500,2.42117236328125,-1.8599624633789062,0.006187499966472387,1.296762466430664
1788165217363262200,2.43126220703125,-1.0951875448226929,-0.6804875135421753,0.1093124970793724
1788165217373350400,2.441350341796875,-0.6737499833106995,-0.7280625104904175,-0.9022749662399292
1788165217383449300,2.451449462890625,-0.5307499766349792,-1.3315500020980835,-1.4299999475479126
1788165217393538000,2.4615380859375,-0.5087500214576721,-1.3034999370574951,-1.487475037574768
1788165217403634400,2.471634521484375,-0.8020374774932861,-0.8820624947547913,-1.0525624752044678
1788165217413719800,2.4817197265625,-0.8765624761581421,-0.7830625176429749,-0.6126999855041504
1788165217423826700,2.49182666015625,-0.7580375075340271,-0.8428750038146973,-0.44165000319480896
1788165217433918500,2.50191845703125,-0.6993250250816345,-1.123924970626831,-0.4465999901294708
1788165217444010200,2.51201025390625,-0.5552250146865845,-1.5795999765396118,-0.3488374948501587
1788165217454096400,2.522096435546875,-0.34622499346733093,-2.10622501373291,-0.26936250925064087
1788165217464187400,2.5321875,-0.11178749799728394,-2.421375036239624,-0.3536500036716461
1788165217474271500,2.542271484375,0.07150000333786011,-2.760999917984009,-0.5931749939918518
1788165217484367600,2.55236767578125,0.29878750443458557,-3.666300058364868,-0.8949875235557556
1788165217494451500,2.562451416015625,0.4954124987125397,-3.5747249126434326,-1.0268499851226807
1788165217504541700,2.572541748046875,0.7386500239372253,-2.8770499229431152,-0.9340375065803528
1788165217514626300,2.582626220703125,0.9975624680519104,-2.3273251056671143,-0.5748875141143799
1788165217524712000,2.5927119140625,0.9169874787330627,-1.784887433052063,-0.0019249999895691872
1788165217534793700,2.602793701171875,0.6957499980926514,-1.3975499868392944,0.37441250681877136
1788165217544888800,2.612888916015625,0.41731250286102295,-0.940637469291687,0.2815999984741211
1788165217554963700,2.622963623046875,0.1387374997138977,-0.7647749781608582,0.19112500548362732
1788165217565055000,2.633054931640625,-0.1373624950647354,-1.1874500513076782,0.3768875002861023
1788165217575135000,2.643135009765625,-0.6859874725341797,-1.644362449645996,0.6260374784469604
1788165217585232600,2.653232666015625,-1.1281875371932983,-1.5160750150680542,0.47341248393058777
1788165217595312600,2.663312744140625,-1.3334749937057495,-0.7182999849319458,0.016499999910593033
1788165217605406000,2.673406005859375,-1.3677124977111816,0.0037124999798834324,-0.1313125044107437
1788165217615487200,2.6834873046875,-1.296762466430664,0.2712875008583069,-0.026262499392032623
1788165217625575400,2.693575439453125,-1.266237497329712,0.9114875197410583,0.18383750319480896
1788165217635655700,2.70365576171875,-1.054900050163269,1.268162488937378,0.37441250681877136
1788165217645750800,2.713750732421875,-0.8130375146865845,1.1386375427246094,0.3096500039100647
1788165217655837700,2.723837646484375,-0.640749990940094,0.3763374984264374,0.22536249458789825
1788165217665929000,2.733928955078125,-0.5539875030517578,0.17104999721050262,-0.16431249678134918
1788165217676012800,2.7440126953125,-0.5917999744415283,-0.3431999981403351,-0.23154999315738678
1788165217686108000,2.75410791015625,-0.5295125246047974,-0.630299985408783,-0.15331250429153442
1788165217696182800,2.764182861328125,-0.40012499690055847,-0.5852000117301941,-0.06544999778270721
1788165217706267400,2.774267333984375,-0.3279374837875366,-0.2626250088214874,-0.06778749823570251
1788165217716348200,2.78434814453125,-0.08607500046491623,-0.3493874967098236,-0.17778749763965607
1788165217726441700,2.794441650390625,0.060499999672174454,-0.17586250603199005,-0.09473749995231628
1788165217736532500,2.804532470703125,0.116737499833107,-0.023099999874830246,-0.0006874999962747097
1788165217746614800,2.81461474609375,0.16802500188350677,0.2773374915122986,0.03478749841451645
1788165217756708400,2.824708251953125,0.1765500009059906,0.3702875077724457,-0.018975000828504562
1788165217766804200,2.83480419921875,0.05197500064969063,0.0147124994546175,-0.17902499437332153
1788165217776890000,2.84489013671875,-0.04455000162124634,-0.503250002861023,-0.31831249594688416
1788165217786981600,2.854981689453125,0.025162499397993088,-0.808775007724762,-0.3488374948501587
1788165217797069000,2.865069091796875,0.17531250417232513,-0.8648750185966492,-0.284074991941452
1788165217807157000,2.875156982421875,0.3488374948501587,-0.6609625220298767,-0.16431249678134918
1788165217817239300,2.8852392578125,0.4721750020980835,-0.3749625086784363,-0.08978749811649323
1788165217827334400,2.89533447265625,0.3305499851703644,-0.04386249929666519,-0.16431249678134918
1788165217837415400,2.90541552734375,0.005499999970197678,0.10876250267028809,-0.3708375096321106
1788165217847500000,2.9155,-0.3096500039100647,0.45333749055862427,-0.5016000270843506
1788165217857595600,2.925595703125,-0.5564625263214111,1.1045374870300293,-0.5858874917030334
1788165217867686700,2.935686767578125,-0.8007999658584595,1.4257375001907349,-0.6199874877929688
1788165217877780000,2.945780029296875,-0.8790374994277954,0.590149998664856,-0.8094624876976013
1788165217887868000,2.955867919921875,-0.6065124869346619,-0.7255874872207642,-1.0683749914169312
1788165217897954000,2.9659541015625,-0.38788750767707825,-1.4317874908447266,-1.4642374515533447
1788165217908046800,2.976046875,-0.21931250393390656,-1.6125999689102173,-1.8148624897003174
1788165217918135800,2.9861357421875,-0.05678749829530716,-1.5771249532699585,-2.0739123821258545
1788165217928227300,2.996227294921875,-0.14836250245571136,-1.6248375177383423,-1.9724375009536743
1788165217938320100,3.006320068359375,-0.012787500396370888,-1.4720749855041504,-1.4777125120162964
1788165217948404500,3.016404541015625,0.2377374917268753,-0.9761124849319458,-1.2711875438690186
1788165217958492200,3.0264921875,0.5589374899864197,-0.7293000221252441,-1.1514250040054321
1788165217968578300,3.036578369140625,0.8252750039100647,-0.5644375085830688,-0.8875625133514404
1788165217978664000,3.046663818359375,0.7434625029563904,-0.39214998483657837,-0.5126000046730042
1788165217988749300,3.056749267578125,0.3940750062465668,-0.18314999341964722,-0.14602500200271606
1788165217998826800,3.06682666015625,0.11178749799728394,-0.04152499884366989,0.0775500014424324
1788165218008920600,3.076920654296875,0.022687500342726707,-0.14162500202655792,0.08002500236034393
1788165218019013600,3.087013671875,0.015262499451637268,-0.3176249861717224,-0.016499999910593033
1788165218029100500,3.0971005859375,-0.03849999979138374,-0.23457500338554382,-0.25478750467300415
1788165218039185700,3.107185546875,0.13378749787807465,-0.9956374764442444,-0.48317500948905945
1788165218049279000,3.117279052734375,0.09350000321865082,-0.734250009059906,-0.1765500009059906
1788165218059364600,3.127364501953125,-0.12278749793767929,-0.5424374938011169,0.13255000114440918
1788165218069457200,3.13745703125,-0.6590374708175659,-0.5057250261306763,0.23883749544620514
1788165218079552500,3.147552490234375,-1.0598499774932861,-0.6437749862670898,0.15207499265670776
1788165218089637000,3.15763720703125,-1.104949951171875,-0.7770124673843384,0.43793749809265137
1788165218099725800,3.167725830078125,-1.1636625528335571,-1.4049749374389648,0.824037492275238
1788165218109820400,3.1778203125,-1.3432375192642212,-2.152562379837036,1.2319999933242798
1788165218119906300,3.18790625,-1.1489499807357788,-1.4990249872207642,1.0988999605178833
1788165218129989600,3.19798974609375,-0.46117499470710754,-0.8685874938964844,0.7042750120162964
1788165218140079600,3.20807958984375,0.13750000298023224,-0.5741999745368958,0.5039374828338623
1788165218150166300,3.218166259765625,0.31459999084472656,-0.32615000009536743,0.7885624766349792
1788165218160250400,3.22825048828125,0.26455000042915344,0.25052499771118164,0.9583749771118164
1788165218170342700,3.2383427734375,0.2523125112056732,0.8907250165939331,0.854562520980835
1788165218180436200,3.248436279296875,0.5016000270843506,0.8760125041007996,0.8386124968528748
1788165218190523000,3.25852294921875,1.0195624828338623,0.00976249948143959,0.9693750143051147
1788165218200617000,3.268616943359375,1.2273249626159668,-1.0126874446868896,1.3469499349594116
1788165218210710500,3.27871044921875,1.2626625299453735,-1.3609750270843506,1.5692875385284424
1788165218220803000,3.288802978515625,1.0720875263214111,-1.1397374868392944,1.6853375434875488
1788165218230891000,3.29889111328125,0.9437999725341797,-0.29067498445510864,2.445162534713745
1788165218240977700,3.308977783203125,1.1331374645233154,1.1643500328063965,2.833737373352051
1788165218251064600,3.319064697265625,1.283424973487854,1.9438375234603882,2.607687473297119
1788165218261149200,3.329149169921875,1.4422374963760376,1.268162488937378,1.7403374910354614
1788165218271233500,3.339233642578125,1.5802874565124512,1.1581624746322632,1.1599500179290771
1788165218281327400,3.349327392578125,1.6255249977111816,0.725724995136261,0.6432250142097473
1788165218291420700,3.359420654296875,1.5180000066757202,0.19552500545978546,-0.10449999570846558
1788165218301509400,3.36950927734375,1.3811874389648438,0.054999999701976776,-0.8204625248908997
1788165218311600000,3.37960009765625,1.229662537574768,0.3726249933242798,-1.383662462234497
1788165218321688300,3.389688232421875,0.9523249864578247,1.0813000202178955,-1.8503375053405762
1788165218331778800,3.39977880859375,0.5761250257492065,1.8398874998092651,-2.2657248973846436
1788165218341874700,3.409874755859375,0.1704999953508377,2.3823249340057373,-2.6773998737335205
1788165218351958300,3.419958251953125,-0.20336249470710754,3.0494749546051025,-2.9596874713897705
1788165218362046700,3.430046630859375,-0.5784624814987183,3.164287567138672,-2.6651625633239746
1788165218372136400,3.440136474609375,-0.566224992275238,0.9455875158309937,-1.35794997215271
1788165218382223600,3.4502236328125,-0.018837500363588333,-0.7562500238418579,-0.3536500036716461
1788165218392315400,3.4603154296875,0.1522125005722046,-1.1874500513076782,0.21559999883174896
1788165218402402000,3.470402099609375,-0.12031249701976776,-0.4164874851703644,0.0835999995470047
1788165218412493000,3.4804931640625,-0.391462504863739,0.18576249480247498,-0.19373749196529388
1788165218422586400,3.49058642578125,-0.7042750120162964,0.8515374660491943,-0.18754999339580536
1788165218432678700,3.5006787109375,-0.8460375070571899,1.0335874557495117,0.1545500010251999
1788165218442769200,3.51076904296875,-0.7738500237464905,1.022587537765503,0.4123624861240387
1788165218452861200,3.520861083984375,-0.6872249841690063,0.7539125084877014,0.382937490940094
1788165218462944300,3.5309443359375,-0.6627500057220459,0.41304999589920044,0.2864125072956085
1788165218473036300,3.541036376953125,-0.7910374999046326,0.3018124997615814,0.391462504863739
1788165218483130600,3.551130615234375,-0.8740875124931335,0.5143874883651733,0.5906999707221985
1788165218493225000,3.561224853515625,-0.8838499784469604,1.014062523841858,0.7995625138282776
1788165218503312400,3.5713125,-0.5942749977111816,1.5467374324798584,0.9645624756813049
1788165218513410600,3.58141064453125,-0.005499999970197678,1.3402124643325806,1.1807124614715576
1788165218523496000,3.591495849609375,0.005499999970197678,0.7746750116348267,1.0280874967575073
1788165218533584600,3.601584716796875,-1.0696125030517578,0.41909998655319214,0.8300874829292297
1788165218543675100,3.611675048828125,-1.5338125228881836,0.16747500002384186,0.5161749720573425
1788165218553768200,3.621768310546875,-1.5998125076293945,0.43133750557899475,0.3891249895095825
1788165218563856600,3.631856689453125,-1.563099980354309,1.0592999458312988,0.5124624967575073
1788165218573945900,3.64194580078125,-1.2955249547958374,1.268162488937378,0.5295125246047974
1788165218584029700,3.65202978515625,-1.034137487411499,1.219349980354309,0.37812501192092896
1788165218594116900,3.662116943359375,-0.911899983882904,1.2546875476837158,0.30717501044273376
1788165218604192800,3.67219287109375,-1.174662470817566,1.1398749351501465,0.2303124964237213
1788165218614283500,3.682283447265625,-1.881962537765503,0.7196750044822693,0.31088748574256897
1788165218624370200,3.6923701171875,-2.1373000144958496,0.21876250207424164,0.3951750099658966
1788165218634463500,3.70246337890625,-2.1373000144958496,0.15523749589920044,0.5026999711990356
1788165218644542200,3.712542236328125,-1.8404375314712524,-0.19910000264644623,0.3891249895095825
1788165218654649300,3.7226494140625,-1.3982374668121338,-0.404387503862381,0.18136249482631683
1788165218664732000,3.73273193359375,-1.020662546157837,-0.6144874691963196,-0.018975000828504562
1788165218674815000,3.74281494140625,-1.1856625080108643,-0.8636375069618225,-0.40507498383522034
1788165218684901000,3.752901123046875,-1.4642374515533447,-1.118975043296814,-0.6334624886512756
1788165218694985700,3.76298583984375,-1.5960999727249146,-1.3842124938964844,-0.5761250257492065
1788165218705070600,3.773070556640625,-1.4202375411987305,-1.714074969291687,-0.5491750240325928
1788165218715151000,3.783151123046875,-1.1244750022888184,-1.8459374904632568,-0.5101249814033508
1788165218725238800,3.79323876953125,-0.9803749918937683,-1.7201249599456787,-0.358599990606308
1788165218735330300,3.803330322265625,-0.9596124887466431,-1.031112551689148,-0.21326249837875366
1788165218745415700,3.813415771484375,-0.8142749667167664,-0.15262499451637268,-0.05926249921321869
1788165218755505400,3.82350537109375,-0.5282750129699707,0.18205000460147858,-0.043449997901916504
1788165218765589000,3.833589111328125,-0.2461249977350235,0.018424998968839645,-0.1069749966263771
1788165218775677000,3.843677001953125,-0.060362499207258224,-0.11481250077486038,-0.14231249690055847
1788165218785766400,3.853766357421875,0.06668750196695328,-0.059812501072883606,0.03849999979138374
1788165218795849000,3.863848876953125,0.14121249318122864,0.13571250438690186,0.1350249946117401
1788165218805936600,3.8739365234375,0.17173749208450317,0.18947499990463257,0.2046000063419342
1788165218816017400,3.884017333984375,0.19731250405311584,0.2798124849796295,0.39765000343322754
1788165218826102000,3.89410205078125,0.06902500241994858,0.2895750105381012,0.44288748502731323
1788165218836186000,3.90418603515625,-0.18383750319480896,0.19923749566078186,0.4281750023365021
1788165218846276000,3.914276123046875,-0.41222500801086426,-0.17215000092983246,0.5504124760627747
1788165218856372000,3.9243720703125,-0.4501749873161316,-0.329862505197525,0.6982250213623047
1788165218866471000,3.934470947265625,-0.4489375054836273,-0.2699125111103058,0.7202249765396118
1788165218886644700,3.954644775390625,-0.4366999864578247,-0.48496249318122864,0.37070000171661377
1788165218896737800,3.96473779296875,-0.09955000132322311,-0.7220125198364258,0.4123624861240387
1788165218906836500,3.97483642578125,0.13997499644756317,-0.7585874795913696,0.7115625143051147
1788165218916933000,3.98493310546875,-0.6077499985694885,-1.481837511062622,1.2869999408721924
1788165218927016000,3.995015869140625,-0.7420874834060669,-2.553375005722046,1.698812484741211
1788165218937099300,4.005099365234375,-0.9193249940872192,-2.4483249187469482,1.5827624797821045
1788165218947178000,4.015177978515625,-1.134374976158142,-1.9314625263214111,1.5888124704360962
1788165218957265700,4.025265625,-1.471524953842163,-1.0506374835968018,1.829437494277954
1788165218967348200,4.03534814453125,-1.511812448501587,0.34952500462532043,2.211824893951416
1788165218977440300,4.045440185546875,-1.6486250162124634,1.8900749683380127,2.7286875247955322
1788165218987526000,4.05552587890625,-1.7586250305175781,3.0970499515533447,3.1293625831604004
1788165218997618400,4.065618408203125,-1.8599624633789062,3.5026750564575195,3.2381250858306885
1788165219007703600,4.07570361328125,-2.277824878692627,3.313337564468384,2.9155499935150146
1788165219017800400,4.085800537109375,-2.426874876022339,3.4501500129699707,2.594212532043457
1788165219027882000,4.095882080078125,-2.5808749198913574,3.500200033187866,2.153249979019165
1788165219037971000,4.105970947265625,-2.646737575531006,3.307149887084961,1.4825249910354614
1788165219048057900,4.116057861328125,-2.3278748989105225,3.2168123722076416,1.051187515258789
1788165219058144500,4.12614453125,-2.4428250789642334,2.9419500827789307,0.7189875245094299
1788165219068226300,4.136226318359375,-2.8545000553131104,2.07212495803833,0.2778874933719635
1788165219078315500,4.1463154296875,-2.6834499835968018,1.6077874898910522,-0.10202500224113464
1788165219088399600,4.156399658203125,-2.3475375175476074,1.4624500274658203,-0.284074991941452
1788165219098489600,4.166489501953125,-2.0897250175476074,1.5125000476837158,-0.6957499980926514
1788165219108572000,4.176572021484375,-1.773337483406067,1.0825375318527222,-1.0060875415802002
1788165219118659600,4.18665966796875,-1.3382874727249146,0.4068624973297119,-1.0720875263214111
1788165219128743400,4.196743408203125,-0.9571374654769897,0.25052499771118164,-1.1233749389648438
1788165219138834000,4.206833984375,-0.6089875102043152,0.3653374910354614,-1.3714250326156616
1788165219148919800,4.216919921875,-0.36217498779296875,0.651199996471405,-1.492287516593933
1788165219159012900,4.227012939453125,-0.1985500007867813,1.1911624670028687,-1.9284374713897705
1788165219169101800,4.237101806640625,0.439175009727478,1.1875874996185303,-1.7280999422073364
1788165219199379500,4.26737939453125,2.3720123767852783,-0.9809250235557556,-1.5985749959945679
1788165219209461200,4.277461181640625,2.2950124740600586,-0.7732999920845032,-1.8418124914169312
1788165219219551500,4.287551513671875,2.022624969482422,-1.0543500185012817,-2.1984875202178955
1788165219239723500,4.3077236328125,1.3224749565124512,-2.0047500133514404,-2.3500125408172607
1788165219269983200,4.337983154296875,0.9290875196456909,-1.556362509727478,-0.6835125088691711
1788165219300255200,4.368255126953125,0.35612499713897705,-0.4446749985218048,0.1691250056028366
1788165219310342700,4.3783427734375,0.18878750503063202,0.17352500557899475,0.15578749775886536
1788165219320435500,4.388435546875,0.09955000132322311,0.41538751125335693,0.05926249921321869
1788165219350694700,4.418694580078125,0.762987494468689,1.0617749691009521,0.382937490940094
1788165219360788700,4.428788818359375,0.7519875168800354,0.1685750037431717,0.1863124966621399
1788165219380965000,4.448965087890625,0.42707499861717224,-1.1642124652862549,0.02983750030398369
1788165219391054600,4.4590546875,0.5246999859809875,-1.7066500186920166,-0.2400749921798706
1788165219411234600,4.479234619140625,1.2566125392913818,-3.3389124870300293,-0.7556999921798706
1788165219421332500,4.48933251953125,1.2809499502182007,-4.341975212097168,-0.6689375042915344
1788165219431418600,4.499418701171875,0.736175000667572,-5.318087577819824,-0.635937511920929
1788165219441504000,4.50950390625,0.2730749845504761,-6.256387233734131,-0.613937497138977
1788165219471761000,4.539760986328125,-1.1758999824523926,-5.4328999519348145,-1.0586124658584595
1788165219491932400,4.559932373046875,-1.5533374547958374,-3.048099994659424,-0.7299875020980835
1788165219502023000,4.57002294921875,-1.234475016593933,-2.158750057220459,-0.30855000019073486
1788165219512102400,4.580102294921875,-0.6675624847412109,-1.2424499988555908,-0.10326249897480011
1788165219522198800,4.59019873046875,0.1313125044107437,-1.0774500370025635,0.009074999950826168
1788165219532285200,4.60028515625,0.44907498359680176,0.006187499966472387,0.14354999363422394
1788165219552465400,4.62046533203125,-0.03478749841451645,2.141700029373169,-0.06173750013113022
1788165219562559500,4.6305595703125,-0.2718375027179718,3.0017623901367188,-0.14973749220371246
1788165219582738000,4.650738037109375,-0.7482749819755554,4.901599884033203,-0.2180749922990799
1788165219602914600,4.67091455078125,-1.2637624740600586,6.521487236022949,0.31817498803138733
1788165219623092700,4.6910927734375,-1.1318999528884888,8.340612411499023,1.0146124362945557
1788165219633191700,4.701191650390625,-0.8703749775886536,9.195862770080566,0.7495124936103821
1788165219643285000,4.711284912109375,-0.19607499241828918,9.711349487304688,0.22288750112056732
1788165219693724000,4.761723876953125,0.06173750013113022,-3.7835874557495117,-0.22550000250339508
1788165219703817700,4.771817626953125,0.06778749823570251,-4.317500114440918,-0.8729875087738037
1788165219713898500,4.7818984375,-0.10326249897480011,-2.779287576675415,-1.0660375356674194
1788165219734082800,4.802082763671875,-0.31817498803138733,0.7721999883651733,-0.42941248416900635
1788165219794626300,4.862626220703125,0.5308874845504761,-0.16238750517368317,0.24131250381469727
1788165219804716300,4.87271630859375,0.07273750007152557,0.26633748412132263,0.4366999864578247
1788165219834984400,4.902984375,-1.4238125085830688,2.9052374362945557,0.7385125160217285
1788165219845119500,4.913119384765625,-1.229662537574768,4.85993766784668,1.1464749574661255
1788165219855199500,4.923199462890625,-0.7727500200271606,5.898475170135498,1.1636625528335571
1788165219865288700,4.933288818359375,-0.4049375057220459,5.98152494430542,0.9229000210762024
1788165219875375400,4.943375244140625,-0.13378749787807465,4.495975017547607,0.5467000007629395
1788165219885465600,4.953465576171875,0.036024998873472214,1.9388874769210815,0.2424124926328659
1788165219905660000,4.973659912109375,0.5113624930381775,-0.7158250212669373,-0.055687498301267624
1788165219915742500,4.983742431640625,0.5479375123977661,-1.215499997138977,-0.20102499425411224
1788165219925834000,4.993833984375,0.5064125061035156,-2.444612503051758,-0.5626500248908997
1788165219986332200,5.054332275390625,1.670762538909912,-3.9143500328063965,-0.6384124755859375
1788165219996420000,5.064420166015625,2.0604374408721924,-1.3084499835968018,-0.0849749967455864
1788165220067051300,5.13505126953125,0.38788750767707825,-2.278512477874756,-0.7592750191688538
1788165220077143300,5.145143310546875,0.2498375028371811,-0.8282999992370605,-0.40383750200271606
1788165220087235300,5.1552353515625,-0.05431250110268593,0.4251500070095062,-0.1069749966263771
1788165220097334300,5.165334228515625,-0.18878750503063202,0.40562498569488525,-0.3328875005245209
1788165220107431400,5.175431396484375,-0.27541249990463257,-0.1551000028848648,-0.5369374752044678
1788165220157871900,5.225871826171875,1.138087511062622,5.677374839782715,2.2020626068115234
1788165220188121900,5.256121826171875,1.816100001335144,2.643850088119507,0.5369374752044678
1788165220218378000,5.2863779296875,1.6718624830245972,-2.2442750930786133,-1.0928499698638916
1788165220238561300,5.306561279296875,1.8833374977111816,-2.607137441635132,-1.6829999685287476
1788165220248646400,5.316646484375,2.057962417602539,-2.33956241607666,-1.811287522315979
1788165220268820000,5.336820068359375,2.1422500610351562,-2.462899923324585,-1.461762547492981
1788165220278899700,5.346899658203125,1.3591874837875366,-2.3981375694274902,-1.2101374864578247
1788165220309164500,5.37716455078125,-0.6480374932289124,-1.0543500185012817,-0.5796999931335449
1788165220319246600,5.38724658203125,-0.42336249351501465,-0.025575000792741776,0.25341248512268066
1788165220369687000,5.43768701171875,-0.3291749954223633,2.1502249240875244,1.520337462425232
1788165220379779300,5.447779296875,-0.31212499737739563,1.8191249370574951,1.8441499471664429
1788165220399962000,5.467962158203125,-1.203950047492981,5.002937316894531,2.563687562942505
1788165220410039600,5.47803955078125,-1.195425033569336,5.386562347412109,1.9431500434875488
1788165220420130600,5.488130615234375,-1.0891374349594116,5.239987373352051,1.051187515258789
1788165220430225200,5.49822509765625,-1.0366125106811523,4.913700103759766,0.19483749568462372
1788165220440316700,5.508316650390625,-0.8130375146865845,3.8570125102996826,-0.3843125104904175
1788165220450405600,5.518405517578125,-0.7372750043869019,0.6243875026702881,-0.3170749843120575
1788165220470587400,5.53858740234375,-0.8716124892234802,-0.07204999774694443,0.4269374907016754
1788165220510958600,5.57895849609375,-0.36465001106262207,2.1221749782562256,0.2424124926328659
1788165220531139800,5.599139892578125,-0.6004624962806702,2.0134124755859375,0.3011249899864197
1788165220561407200,5.6294072265625,-0.2730749845504761,0.8918250203132629,0.2498375028371811
1788165220581587500,5.64958740234375,-0.31212499737739563,-0.3176249861717224,0.021312499418854713
1788165220591674600,5.659674560546875,-0.23154999315738678,-0.6437749862670898,-0.027499999850988388
1788165220621944800,5.68994482421875,0.15950000286102295,-0.6792500019073486,0.09831249713897705
1788165220642115300,5.710115234375,-0.1288374960422516,-0.2761000096797943,0.026262499392032623
1788165220662289200,5.7302890625,-0.24736249446868896,0.27486249804496765,-0.47341248393058777
1788165220672384300,5.74038427734375,-0.16802500188350677,0.2102375030517578,-0.3843125104904175
1788165220682475300,5.750475341796875,0.029975000768899918,-0.00976249948143959,-0.1985500007867813
1788165220702651100,5.770651123046875,0.1190750002861023,0.21381250023841858,0.3158375024795532
1788165220712736800,5.78073681640625,0.2853125035762787,0.2932874858379364,0.37812501192092896
1788165220732924000,5.800923828125,0.27678748965263367,0.35062500834465027,0.37812501192092896
1788165220743008000,5.811008056640625,-0.15936249494552612,0.3653374910354614,0.2876499891281128
1788165220753098500,5.821098388671875,-0.635937511920929,-0.29067498445510864,-0.2120250016450882
1788165220773287000,5.841286865234375,-0.7275124788284302,-1.3657875061035156,-0.4283125102519989
1788165220783379500,5.85137939453125,-0.5527499914169312,-0.7672500014305115,-0.09102500230073929
1788165220793468200,5.86146826171875,-0.6065124869346619,-0.3786749839782715,-0.11302500218153
1788165220803552500,5.871552490234375,-0.6737499833106995,-0.45938751101493835,-0.19607499241828918
1788165220813642500,5.881642578125,-0.7006999850273132,-0.7500625252723694,-0.24626250565052032
1788165220823735600,5.891735595703125,-0.439175009727478,-0.5754374861717224,-0.3255999982357025
1788165220833830000,5.901829833984375,-0.4221250116825104,-0.492249995470047,-0.3207874894142151
1788165220843925500,5.911925537109375,-0.705512523651123,-0.6755374670028687,-0.35378751158714294
1788165220864092200,5.932092041015625,-1.658387541770935,-0.4104374945163727,-0.31831249594688416
1788165220874182400,5.942182373046875,-1.5570499897003174,-0.5289624929428101,-0.2975499927997589
1788165220894363000,5.96236279296875,-0.48922500014305115,-0.047575000673532486,-0.015262499451637268
1788165220904448800,5.97244873046875,0.06173750013113022,0.6634374856948853,0.15207499265670776
1788165220954878200,6.022878173828125,-1.9236249923706055,4.2516374588012695,-0.469837486743927
1788165220975057000,6.043056884765625,-2.28401255607605,2.5338499546051025,-0.014024999924004078
1788165220985137400,6.053137451171875,-1.7451499700546265,1.4844499826431274,-0.05321250110864639
1788165220995244800,6.063244873046875,-1.1184250116348267,0.48510000109672546,0.022549999877810478
1788165221005326600,6.07332666015625,-0.49665001034736633,-0.520437479019165,-0.1522125005722046
1788165221035595000,6.103594970703125,-0.026262499392032623,-3.2986249923706055,-0.8497499823570251
1788165221045682000,6.113681884765625,-0.4086500108242035,-4.475074768066406,-0.8082249760627747
1788165221055768800,6.123768798828125,-0.7862250208854675,-3.744537591934204,-0.41359999775886536
1788165221065856800,6.133856689453125,-1.2321374416351318,-2.685237407684326,-0.5211250185966492
1788165221096119000,6.164119140625,-1.1171875,-2.5228500366210938,-1.0500874519348145
1788165221106214100,6.174214111328125,-0.7397499680519104,-2.032937526702881,-0.5651249885559082
1788165221116299500,6.184299560546875,-0.2535499930381775,-1.6248375177383423,-0.014162499457597733
1788165221136480000,6.20447998046875,0.08373750001192093,-1.801937460899353,0.5161749720573425
1788165221146561500,6.2145615234375,0.09473749995231628,-2.379849910736084,0.824037492275238
1788165221156647400,6.2246474609375,0.141075000166893,-2.9137625694274902,1.1624250411987305
1788165221186914300,6.254914306640625,-0.148499995470047,-0.9748749732971191,0.9754250049591064
1788165221217189400,6.285189453125,0.255887508392334,0.27857500314712524,0.10559999942779541
1788165221227267000,6.29526708984375,0.3793624937534332,0.2956250011920929,0.19965000450611115
1788165221237353500,6.305353515625,0.49293750524520874,0.3310999870300293,0.29864999651908875
1788165221267605800,6.335605712890625,0.6847500205039978,-1.0348249673843384,0.32065001130104065
1788165221277695200,6.3456953125,0.6529874801635742,-1.2692625522613525,0.2681249976158142
1788165221287783000,6.355782958984375,0.6701750159263611,-1.376787543296814,0.17159999907016754
1788165221297874200,6.365874267578125,0.6909375190734863,-1.3842124938964844,0.05555000156164169
1788165221328142000,6.39614208984375,0.5724124908447266,-0.6107749938964844,0.03355000168085098
1788165221338240800,6.40624072265625,0.5442249774932861,-0.4311999976634979,0.09955000132322311
1788165221348328200,6.416328125,0.5564625263214111,-0.31638750433921814,0.12388750165700912
1788165221358411500,6.42641162109375,0.5429875254631042,-0.22714999318122864,0.07878749817609787
1788165221388667000,6.4566669921875,0.5381749868392944,-0.5131499767303467,-0.07026249915361404
1788165221398759200,6.46675927734375,0.5211250185966492,-0.5900124907493591,-0.08621250092983246
1788165221408842000,6.476842041015625,0.4355999827384949,-0.4166249930858612,-0.08868750184774399
1788165221418932500,6.486932373046875,0.34264999628067017,-0.1050499975681305,-0.04468749836087227
1788165221429015800,6.497015869140625,0.2437874972820282,0.1247124969959259,0.015262499451637268
1788165221439107300,6.507107421875,0.17159999907016754,0.2125750035047531,0.05555000156164169
1788165221449193200,6.517193115234375,0.1508374959230423,0.08676250278949738,0.06655000150203705
1788165221459281700,6.52728173828125,0.13626250624656677,-0.13433749973773956,0.040837500244379044
1788165221469367300,6.5373671875,0.1447875052690506,-0.20886249840259552,0.009074999950826168
1788165221479458300,6.547458251953125,0.17159999907016754,-0.1746249943971634,0.007837500423192978
1788165221499654700,6.567654541015625,0.14726249873638153,0.018287500366568565,0.03231250122189522
1788165221509740500,6.577740478515625,0.12278749793767929,0.16128750145435333,0.07383749634027481
1788165221519831000,6.5878310546875,0.12773749232292175,0.18933749198913574,0.10202500224113464
1788165221529911600,6.59791162109375,0.13983750343322754,0.08428750187158585,0.1093124970793724
1788165221590442200,6.658442138671875,0.34017500281333923,-2.4923250675201416,0.35241249203681946
1788165221610622200,6.678622314453125,0.5699374675750732,-1.9364124536514282,-0.07273750007152557
1788165221620722000,6.688721923828125,0.4819374978542328,-1.1618750095367432,-0.11797499656677246
1788165221630813700,6.698813720703125,0.2974124848842621,-0.6437749862670898,-0.17173749208450317
1788165221640922400,6.70892236328125,0.1508374959230423,-0.19538749754428864,-0.17778749763965607
1788165221671184000,6.739183837890625,0.16183750331401825,0.6096749901771545,0.031075000762939453
1788165221681279500,6.749279541015625,0.16060000658035278,0.5889124870300293,0.1153625026345253
1788165221701467000,6.769466796875,-0.27059999108314514,0.5717250108718872,0.3218874931335449
1788165221711555000,6.77955517578125,-0.4258374869823456,0.9345874786376953,0.43793749809265137
1788165221741838600,6.809838623046875,-0.3610749840736389,0.678012490272522,0.4464625120162964
1788165221751926000,6.819926025390625,-0.15578749775886536,0.2040500044822693,0.31088748574256897
1788165221762012000,6.830011962890625,-0.04455000162124634,-0.09157499670982361,0.1788875013589859
1788165221772099800,6.840099853515625,-0.0006874999962747097,-0.6437749862670898,0.03726249933242798
1788165221782192400,6.8501923828125,-0.028737500309944153,-0.6670125126838684,-0.11921250075101852
1788165221832637000,6.900636962890625,0.16802500188350677,-0.3651999831199646,-0.060499999672174454
1788165221842736000,6.910736083984375,0.09955000132322311,-0.6107749938964844,-0.1742125004529953
1788165221852828200,6.920828125,0.09102500230073929,-0.4629625082015991,-0.19731250405311584
1788165221873011200,6.94101123046875,0.25712499022483826,0.1050499975681305,0.0030249999836087227
1788165221893195000,6.961195068359375,0.3451249897480011,-0.14176249504089355,0.031075000762939453
1788165221953737700,7.02173779296875,0.048262499272823334,-0.6474875211715698,0.07631249725818634
1788165221973912000,7.041912109375,0.11055000126361847,-0.31033748388290405,0.08002500236034393
1788165222004187400,7.0721875,0.12031249701976776,-0.3676750063896179,-0.17778749763965607
1788165222014263800,7.082263916015625,0.1093124970793724,-0.39820000529289246,-0.21931250393390656
1788165222024367600,7.09236767578125,0.12402500212192535,-0.4398624897003174,-0.22055000066757202
1788165222034445000,7.102445068359375,0.18878750503063202,-0.669487476348877,-0.13626250624656677
1788165222054629000,7.122629150390625,0.21683749556541443,-1.3877874612808228,-0.04221250116825104
1788165222094969300,7.16296923828125,0.06655000150203705,-0.8857749700546265,-0.20350000262260437
1788165222105064200,7.173064208984375,-0.07878749817609787,-0.5864375233650208,-0.1069749966263771
1788165222115151400,7.1831513671875,-0.11797499656677246,-0.5669124722480774,0.006599999964237213
1788165222125244200,7.193244140625,-0.05555000156164169,-0.6987749934196472,0.08978749811649323
1788165222155509800,7.223509765625,0.11055000126361847,-0.7207750082015991,0.02983750030398369
1788165222195848400,7.263848388671875,-0.16307500004768372,-0.3811500072479248,0.06778749823570251
1788165222387537700,7.45553759765625,1.5936249494552612,0.38733750581741333,0.10078749805688858
1788165222427887900,7.495887939453125,1.174662470817566,0.5424374938011169,0.41346248984336853
1788165222437974300,7.505974365234375,0.9168499708175659,0.8577250242233276,0.649275004863739
1788165222458150100,7.526150146484375,0.6272749900817871,0.6487249732017517,0.5062749981880188
1788165222478332000,7.546331787109375,0.2974124848842621,-0.09157499670982361,0.1886499971151352
1788165222528776000,7.59677587890625,-0.5553625226020813,0.07328750193119049,-0.4503124952316284
1788165222538859000,7.60685888671875,-0.5796999931335449,0.0037124999798834324,-0.3867875039577484
1788165222548937700,7.616937744140625,-0.5699374675750732,-0.15633749961853027,-0.3305499851703644
1788165222559023000,7.627023193359375,-0.5126000046730042,-0.12828749418258667,-0.29631251096725464
1788165222579199200,7.64719921875,-0.49059998989105225,-0.7220125198364258,-0.8729875087738037
1788165222589301000,7.657301025390625,-0.29026249051094055,-0.16981250047683716,-0.2572624981403351
1788165222599379000,7.66737890625,0.1251250058412552,-0.1013374999165535,0.0017874999903142452
1788165222619564500,7.687564453125,-0.2560249865055084,0.6767749786376953,0.40988749265670776
1788165222659917300,7.727917236328125,0.2998875081539154,0.6132500171661377,-0.2180749922990799
1788165222710349000,7.77834912109375,-0.022687500342726707,-0.1368124932050705,0.07012499868869781
1788165222720437000,7.78843701171875,-0.04468749836087227,0.03904999792575836,0.10807500034570694
1788165222740619500,7.80861962890625,0.10559999942779541,0.7977749705314636,0.2106499969959259
1788165222760813800,7.828813720703125,0.1313125044107437,0.5766749978065491,0.28036248683929443
1788165222811271000,7.87927099609375,0.28517499566078186,-0.23828749358654022,0.015262499451637268
1788165222821362200,7.889362060546875,0.32065001130104065,-0.48496249318122864,-0.07026249915361404
1788165222841542000,7.9095419921875,0.36588749289512634,-0.4801499843597412,-0.05073750019073486
1788165222851632600,7.919632568359375,0.3231250047683716,-0.2993375062942505,-0.0006874999962747097
1788165222861723400,7.929723388671875,0.1765500009059906,-0.17710000276565552,0.02736249938607216
1788165222871807200,7.93980712890625,0.04702499881386757,-0.2601499855518341,0.028599999845027924
1788165222922250500,7.99025048828125,0.0017874999903142452,0.07081250101327896,-0.03244999796152115
1788165222942437000,8.01043701171875,0.06902500241994858,0.2358125001192093,-0.07026249915361404
1788165222952532000,8.020531982421875,0.07631249725818634,0.30662500858306885,-0.0812624990940094
1788165223002979800,8.070979736328125,-0.18507499992847443,-0.3811500072479248,-0.017737500369548798
1788165223013074400,8.081074462890625,-0.2217874974012375,-0.4006749987602234,-0.03849999979138374
1788165223023158300,8.091158203125,-0.23526249825954437,-0.32257500290870667,-0.05444999784231186
1788165223033256200,8.101256103515626,-0.21931250393390656,-0.22605000436306,-0.05197500064969063
1788165223103892000,8.17189208984375,0.009074999950826168,-0.5326749682426453,0.0042624999769032
1788165223134151200,8.202151123046875,-0.09844999760389328,-0.14781250059604645,-0.018975000828504562
1788165223154327300,8.222327392578125,-0.09226249903440475,-0.002474999986588955,-0.027499999850988388
1788165223275495700,8.34349560546875,0.10559999942779541,0.16499999165534973,0.1568875014781952
1788165223295669000,8.3636689453125,0.06159999966621399,0.15757499635219574,0.17036250233650208
1788165223305753300,8.37375341796875,0.045787498354911804,0.047712501138448715,0.17159999907016754
1788165223315841500,8.383841552734374,0.13612499833106995,-0.1331000030040741,0.1508374959230423
1788165223325937200,8.393937255859376,0.2046000063419342,-0.420199990272522,0.12759999930858612
1788165223336014000,8.40401416015625,0.1313125044107437,-0.6670125126838684,0.08483749628067017
1788165223346094600,8.414094482421875,0.031075000762939453,-1.0005874633789062,0.03478749841451645
1788165223356170200,8.424170166015625,-0.023924998939037323,-1.1923999786376953,-0.025162499397993088
1788165223366259000,8.434259033203125,-0.06792499870061874,-1.1581624746322632,-0.05073750019073486
1788165223467145200,8.535145263671875,-0.116737499833107,0.11481250077486038,-0.0471624992787838
1788165223507484200,8.575484130859374,-0.006737499963492155,0.4006749987602234,0.05912499874830246
1788165223567984600,8.635984619140626,0.4464625120162964,-0.0635249987244606,0.1190750002861023
1788165223578072800,8.64607275390625,0.30841249227523804,0.45196250081062317,0.04331250116229057
1788165223588160500,8.656160400390625,0.2424124926328659,0.9053000211715698,-0.0019249999895691872
1788165223648690400,8.7166904296875,-0.39531248807907104,0.8258249759674072,0.34017500281333923
1788165223658786000,8.7267861328125,-0.7409874796867371,1.189924955368042,0.5172749757766724
1788165223699146800,8.767146728515625,-0.11192499846220016,0.39214998483657837,-0.21326249837875366
1788165223719328800,8.787328857421874,-0.3770250082015991,-0.17104999721050262,-0.3782624900341034
1788165223739511800,8.80751171875,0.49293750524520874,-1.1826374530792236,-0.4636499881744385
1788165223749594600,8.8175947265625,0.933899998664856,-0.6792500019073486,0.020075000822544098
1788165223769770800,8.837770751953125,0.7970874905586243,0.04881250113248825,0.4281750023365021
1788165223779863300,8.84786328125,0.43174999952316284,0.1845249980688095,0.4195125102996826
1788165223800032300,8.8680322265625,0.006599999964237213,0.8625375032424927,0.9498500227928162
1788165223810118100,8.8781181640625,0.2681249976158142,0.18081249296665192,0.7653250098228455
1788165223820210400,8.88821044921875,0.49293750524520874,-0.22357499599456787,0.3964124917984009
1788165223840391200,8.90839111328125,-0.07397499680519104,0.3128125071525574,-0.15578749775886536
1788165223850471000,8.918470947265625,-0.683650016784668,0.9541124701499939,-0.27431249618530273
1788165223860572400,8.928572509765624,-1.0648000240325928,1.1483999490737915,-0.1447875052690506
1788165223870653700,8.93865380859375,-1.1906124353408813,0.9418749809265137,0.07136250287294388
1788165223880739000,8.948739013671876,-1.1906124353408813,0.9053000211715698,0.28146249055862427
1788165223890829600,8.95882958984375,-0.9817500114440918,0.6267250180244446,0.5429875254631042
1788165223900915000,8.9689150390625,-0.8485124707221985,0.9223499894142151,0.5050374865531921
1788165223911001000,8.9790009765625,-0.8815125226974487,2.815999984741211,0.30236250162124634
1788165223921092600,8.989092529296874,-0.792412519454956,2.911287546157837,0.10683749616146088
1788165223931173600,8.999173583984375,-0.7031750082969666,2.4507999420166016,-0.3573625087738037
1788165223941267000,9.009266845703126,-0.7288874983787537,1.8606499433517456,-0.6384124755859375
1788165223971526000,9.03952587890625,-0.6421250104904175,-0.5656750202178955,-0.4723125100135803
1788165223981618000,9.049617919921875,-0.561412513256073,-1.2388750314712524,-0.30250000953674316
1788165224001799700,9.069799560546874,0.10807500034570694,-1.6993625164031982,-0.2523125112056732
1788165224011887900,9.079887939453124,0.4147000014781952,-1.7043124437332153,-0.4441249966621399
1788165224021985500,9.089985595703125,0.5955125093460083,-1.6578375101089478,-0.7739874720573425
1788165224032068600,9.100068603515625,0.5673249959945679,-1.551550030708313,-1.0598499774932861
1788165224052247800,9.120247802734376,0.19717499613761902,-1.3487374782562256,-0.7166500091552734
1788165224062343400,9.130343505859376,0.09583749622106552,-0.7684875130653381,-0.36355000734329224
1788165224072430600,9.1404306640625,0.04207500070333481,-0.08304999768733978,-0.0849749967455864
1788165224082521000,9.15052099609375,-0.06063750013709068,0.282150000333786,0.07383749634027481
1788165224092607500,9.160607421875,-0.18878750503063202,0.40191251039505005,0.14231249690055847
1788165224112781800,9.18078173828125,-0.22550000250339508,0.4496249854564667,0.07631249725818634
1788165224122881500,9.190881591796876,-0.1704999953508377,0.3653374910354614,0.005362499970942736
1788165224193496800,9.261496826171875,0.1434125006198883,0.11481250077486038,0.0042624999769032
1788165224203588000,9.271588134765626,0.11288750171661377,0.15633749961853027,0.010312499478459358
1788165224233865500,9.301865478515625,0.02983750030398369,0.2040500044822693,0.18617500364780426
1788165224264128500,9.33212841796875,-0.012924999929964542,0.5289624929428101,0.24736249446868896
1788165224304488200,9.37248828125,0.10559999942779541,0.07328750193119049,0.1093124970793724
1788165224314573000,9.382572998046875,0.14588749408721924,-0.01952499896287918,0.09459999948740005
1788165224344823000,9.412822998046876,0.1825999915599823,-0.02694999985396862,0.11412499845027924
1788165224405330400,9.473330322265625,0.09583749622106552,-0.10147500038146973,0.06888750195503235
1788165224415420400,9.48342041015625,0.0798875018954277,-0.10257499665021896,0.03231250122189522
1788165224425529600,9.493529541015626,0.06655000150203705,-0.1307625025510788,0.014024999924004078
1788165224486049300,9.55404931640625,0.07383749634027481,-0.010999999940395355,0.011549999937415123
1788165224496139800,9.564139892578124,0.060362499207258224,0.01223750039935112,0.0017874999903142452
1788165224607112000,9.67511181640625,0.1788875013589859,0.26633748412132263,0.1153625026345253
1788165224728192000,9.79619189453125,0.03712499886751175,0.15757499635219574,0.17765000462532043
1788165224738270500,9.8062705078125,0.03464999794960022,0.20886249840259552,0.1849374920129776
1788165224758441700,9.826441650390626,0.028599999845027924,0.20762500166893005,0.19841249287128448
1788165224768531700,9.83653173828125,0.022549999877810478,0.15386250615119934,0.18383750319480896
1788165224778612200,9.8466123046875,0.0017874999903142452,0.09776250272989273,0.16183750331401825
1788165224788695600,9.856695556640625,-0.03244999796152115,0.05128749832510948,0.133650004863739
1788165224919857700,9.987857666015625,-0.09968750178813934,-0.047712501138448715,-0.08373750001192093
1788165225071154400,10.139154541015625,-0.1326874941587448,-0.042762499302625656,-0.03492499887943268
1788165225091325000,10.159324951171875,-0.1106875017285347,0.13186250627040863,-0.006874999962747097
1788165225141763000,10.20976318359375,-0.06063750013709068,0.05857500061392784,0.048124998807907104
1788165225172037600,10.24003759765625,-0.06544999778270721,-0.06476250290870667,0.04455000162124634
1788165225202309400,10.270309326171875,-0.06187500059604645,-0.17833749949932098,0.013887500390410423
1788165225232584400,10.30058447265625,-0.07768750190734863,-0.17833749949932098,-0.0789249986410141
1788165225242673700,10.310673583984375,-0.05939999967813492,-0.15633749961853027,-0.08249999582767487
1788165225252771600,10.320771484375,-0.05321250110864639,-0.16005000472068787,-0.10326249897480011
1788165225272943000,10.340943115234374,-0.043449997901916504,-0.17833749949932098,-0.09968750178813934
1788165225303208200,10.371208251953124,-0.03492499887943268,-0.06476250290870667,-0.14726249873638153
1788165225333479000,10.40147900390625,-0.04221250116825104,-0.0635249987244606,-0.30250000953674316
1788165225343560400,10.411560546875,-0.05444999784231186,-0.11357499659061432,-0.3770250082015991
1788165225383955700,10.451955810546876,-0.19744999706745148,-0.13199999928474426,-0.36726251244544983
1788165225394048800,10.462048828125,-0.22673749923706055,-0.13323749601840973,-0.32202500104904175
1788165225404134000,10.4721337890625,-0.24997499585151672,-0.1685750037431717,-0.3367374837398529
1788165225414227000,10.48222705078125,-0.27445000410079956,-0.25657498836517334,-0.3623124957084656
1788165225424302800,10.492302734375,-0.27678748965263367,-0.3335750102996826,-0.36602500081062317
1788165225434390500,10.502390625,-0.2854500114917755,-0.4006749987602234,-0.39160001277923584
1788165225444483600,10.512483642578125,-0.2952125072479248,-0.432574987411499,-0.414837509393692
1788165225454576000,10.522576171875,-0.2657875120639801,-0.3763374984264374,-0.39531248807907104
1788165225464662300,10.532662353515626,-0.22068749368190765,-0.2895750105381012,-0.39902499318122864
1788165225474751000,10.5427509765625,-0.16692499816417694,-0.2162874937057495,-0.44302499294281006
1788165225494921700,10.562921630859375,-0.07644999772310257,-0.2626250088214874,-0.454025000333786
1788165225535248100,10.603248046875,0.05912499874830246,-0.210099995136261,-0.4320249855518341
1788165225545330000,10.613329833984375,0.11893749982118607,-0.25286251306533813,-0.42707499861717224
1788165225565507800,10.6335078125,0.260699987411499,-0.7207750082015991,-0.5663625001907349
1788165225575593200,10.64359326171875,0.3596999943256378,-0.8687250018119812,-0.7471749782562256
1788165225585673500,10.653673583984375,0.4147000014781952,-0.9468249678611755,-0.8681749701499939
1788165225605844700,10.6738447265625,0.4305124878883362,-0.33605000376701355,-0.7936499714851379
1788165225615932000,10.683931884765625,0.39998748898506165,0.15028749406337738,-0.600600004196167
1788165225646186500,10.7141865234375,0.19593749940395355,0.3628624975681305,-0.22426250576972961
1788165225666359600,10.734359619140625,0.16541250050067902,0.07576250284910202,-0.2853125035762787
1788165225676451800,10.744451904296875,0.22522500157356262,0,-0.36726251244544983
1788165225686537700,10.754537841796875,0.27541249990463257,-0.05376249924302101,-0.478362500667572
1788165225706710000,10.7747099609375,0.31693750619888306,-0.01718750037252903,-0.5383124947547913
1788165225716803000,10.784802978515625,0.29122498631477356,0.08799999952316284,-0.5186499953269958
1788165225736968700,10.80496875,0.11288750171661377,0.6022499799728394,-0.3465000092983246
1788165225757145000,10.82514501953125,0.015124999918043613,0.6670125126838684,-0.4185499846935272
1788165225767233300,10.8352333984375,0.0518375001847744,0.5081999897956848,-0.5834124684333801
1788165225827767600,10.895767578125,0.10670000314712524,0.37014999985694885,-0.893750011920929
1788165225847942400,10.9159423828125,0.12388750165700912,0.5912500023841858,-0.9792749881744385
1788165225858029600,10.926029541015625,0.09459999948740005,0.7892500162124634,-0.8839874863624573
1788165225878208800,10.946208740234376,0.016362499445676804,1.105637550354004,-0.7214624881744385
1788165225898379300,10.966379150390624,0.08112499862909317,0.9871125221252441,-0.8509874939918518
1788165225948810000,11.01681005859375,0.48922500014305115,0.24681249260902405,-1.1430374383926392
1788165226049692200,11.117692138671876,0.4940375089645386,0.4507249891757965,-0.9780374765396118
1788165226090048500,11.158048583984375,0.33274999260902405,0.6804875135421753,-0.866937518119812
1788165226100129000,11.16812890625,0.29122498631477356,0.5350124835968018,-0.8339374661445618
1788165226160673800,11.228673828125,0.19346250593662262,0.17957499623298645,-0.45883750915527344
1788165226170771000,11.23877099609375,0.2264624983072281,0.1746249943971634,-0.454025000333786
1788165226180860200,11.248860107421875,0.2704625129699707,0.11976250261068344,-0.3806000053882599
1788165226211129300,11.27912939453125,0.14093749225139618,0.08910000324249268,-0.1839749962091446
1788165226241391600,11.3093916015625,0.2741749882698059,-0.0317624993622303,0.07259999960660934
1788165226291831300,11.359831298828125,0.20446249842643738,0.273624986410141,0.12636250257492065
1788165226312002800,11.3800029296875,0.14093749225139618,0.09157499670982361,0.19236250221729279
1788165226322083000,11.3900830078125,0.07741250097751617,-0.12099999934434891,0.2106499969959259
1788165226332179000,11.400178955078125,0.07259999960660934,-0.16499999165534973,0.23388749361038208
1788165226352356400,11.4203564453125,0.007837500423192978,-0.13199999928474426,0.20941250026226044
1788165226382628000,11.450628173828125,-0.08621250092983246,-0.08428750187158585,0.17641249299049377
1788165226402804200,11.47080419921875,-0.12168750166893005,-0.002474999986588955,0.031075000762939453
1788165226412904000,11.480904052734376,-0.16692499816417694,0.004812499973922968,-0.0019249999895691872
1788165226422999300,11.490999267578125,-0.22192500531673431,0.03423750028014183,0.03231250122189522
1788165226473443800,11.54144384765625,-0.20116250216960907,-0.29452499747276306,-0.09116250276565552
1788165226483535600,11.55153564453125,-0.15716250240802765,-0.24076250195503235,-0.11550000309944153
1788165226503711000,11.5717109375,-0.03368749842047691,-0.14904999732971191,-0.10339999943971634
1788165226513805600,11.5818056640625,0.11288750171661377,-0.19676250219345093,-0.026399999856948853
1788165226533981000,11.60198095703125,0.2545124888420105,-0.2932874858379364,-0.018975000828504562
1788165226544070400,11.6120703125,0.3474625051021576,-0.2932874858379364,0.021312499418854713
1788165226564232200,11.632232177734375,0.39256250858306885,-0.0929500013589859,0.09336250275373459
1788165226574316800,11.64231689453125,0.3877499997615814,-0.05252499878406525,0.1251250058412552
1788165226604576500,11.672576416015625,0.37674999237060547,-0.18700000643730164,0.15193749964237213
1788165226614659600,11.68265966796875,0.40851250290870667,-0.23704999685287476,0.11288750171661377
1788165226624805000,11.69280517578125,0.43174999952316284,-0.23952500522136688,0.040837500244379044
1788165226634888200,11.70288818359375,0.4647499918937683,-0.12099999934434891,0.021312499418854713
1788165226644969000,11.712968994140626,0.47203749418258667,-0.13323749601840973,0.0005499999970197678
1788165226665139200,11.73313916015625,0.4805625081062317,-0.20528750121593475,0.045649997889995575
1788165226675228000,11.743227783203125,0.47203749418258667,-0.2540999948978424,0.053075000643730164
1788165226685324500,11.753324462890625,0.46956250071525574,-0.28462499380111694,0.018837500363588333
1788165226705500700,11.773500732421875,0.49527499079704285,-0.07947500050067902,-0.03739999979734421
1788165226745854000,11.81385400390625,0.4305124878883362,-0.4118124842643738,-0.15826250612735748
1788165226766024200,11.834024169921875,0.40246251225471497,-0.4251500070095062,-0.23526249825954437
1788165226776112600,11.844112548828125,0.3669874966144562,-0.42281249165534973,-0.2512125074863434
1788165226786196500,11.854196533203124,0.3205125033855438,-0.3811500072479248,-0.23045000433921814
1788165226796282400,11.864282470703126,0.3180375099182129,-0.3665750026702881,-0.19744999706745148
1788165226806377200,11.874377197265625,0.260699987411499,-0.3713875114917755,-0.23278750479221344
1788165226816470300,11.88447021484375,0.23622499406337738,-0.4666749835014343,-0.24502499401569366
1788165226826563300,11.894563232421875,0.22769999504089355,-0.5376250147819519,-0.21326249837875366
1788165226846752800,11.914752685546874,0.1886499971151352,-0.45567500591278076,-0.11797499656677246
1788165226856835800,11.9248359375,0.14464999735355377,-0.3152875006198883,-0.04097500070929527
1788165226866927000,11.934927001953126,0.08346249908208847,-0.3348124921321869,-0.006874999962747097
1788165226877007600,11.945007568359374,0.06270000338554382,-0.35804998874664307,0.057887498289346695
1788165226887106300,11.955106201171875,0.030937500298023224,-0.4288625121116638,0.12388750165700912
1788165226897190400,11.9651904296875,-0.012924999929964542,-0.5473874807357788,0.13859999179840088
1788165226917375000,11.985375,-0.06435000151395798,-0.5498625040054321,0.22893749177455902
1788165226937553200,12.00555322265625,-0.11563749611377716,-0.6536750197410583,0.22536249458789825
1788165226947631600,12.015631591796875,-0.12416250258684158,-0.6682500243186951,0.2546499967575073
1788165226967800300,12.03580029296875,-0.15716250240802765,-0.8002499938011169,0.34017500281333923
1788165226977884200,12.04588427734375,-0.1999250054359436,-0.8197749853134155,0.4402749836444855
1788165227008139800,12.076139892578125,-0.30002498626708984,-0.861299991607666,0.4684624969959259
1788165227048497000,12.116496826171876,-0.5065500140190125,-1.3268749713897705,0.37193748354911804
1788165227058571800,12.12657177734375,-0.4137375056743622,-1.543025016784668,0.19965000450611115
1788165227068672800,12.1366728515625,-0.17063750326633453,-1.3402124643325806,-0.021449999883770943
1788165227078764300,12.146764404296874,0.0798875018954277,-1.0335874557495117,-0.2059749960899353
1788165227088855800,12.156855712890625,0.17765000462532043,-0.8051999807357788,-0.2316875010728836
1788165227098939000,12.16693896484375,0.20569999516010284,-0.47891250252723694,-0.164450004696846
1788165227109030400,12.177030517578125,0.23622499406337738,-0.15152500569820404,-0.09844999760389328
1788165227119112400,12.187112548828125,0.2887499928474426,0.15757499635219574,-0.03987500071525574
1788165227129204000,12.197203857421876,0.34375,0.4226749837398529,0.005362499970942736
1788165227139282700,12.20728271484375,0.33880001306533813,0.5229125022888184,-0.009212499484419823
1788165227149378600,12.217378662109375,0.3022249937057495,0.6047250032424927,-0.04963750019669533
1788165227159463200,12.227463134765625,0.21051250398159027,0.6632999777793884,-0.06668750196695328
1788165227169561300,12.237561279296875,0.057887498289346695,0.5802500247955322,-0.08868750184774399
1788165227179647200,12.247647216796874,-0.09363749623298645,0.4641999900341034,-0.08139999955892563
1788165227189744000,12.257744140625,-0.2316875010728836,0.340862512588501,-0.043449997901916504
1788165227199826700,12.26782666015625,-0.35749998688697815,0.1050499975681305,-0.026399999856948853
1788165227209918500,12.27791845703125,-0.45649999380111694,-0.16376249492168427,-0.025162499397993088
1788165227220000000,12.288,-0.5285499691963196,-0.3726249933242798,-0.006874999962747097
1788165227230083600,12.29808349609375,-0.5895999670028687,-0.5791500210762024,-0.0031624999828636646
1788165227250260200,12.31826025390625,-0.644599974155426,-0.669487476348877,-0.020212499424815178
1788165227270442000,12.33844189453125,-0.6238374710083008,-0.43738749623298645,-0.12292499840259552
1788165227280520700,12.348520751953124,-0.5785999894142151,-0.28476250171661377,-0.1326874941587448
1788165227290613800,12.35861376953125,-0.565262496471405,-0.20528750121593475,-0.1522125005722046
1788165227300701700,12.36870166015625,-0.5603125095367432,-0.16376249492168427,-0.18892499804496765
1788165227310796800,12.378796875,-0.5480750203132629,-0.09171249717473984,-0.22550000250339508
1788165227320880600,12.388880615234376,-0.534600019454956,-0.07699999958276749,-0.27197501063346863
1788165227330977300,12.398977294921876,-0.509024977684021,-0.07328750193119049,-0.2877874970436096
1788165227341061400,12.409061279296875,-0.445499986410141,0.04399999976158142,-0.26221248507499695
1788165227351188700,12.419188720703126,-0.390500009059906,0.0635249987244606,-0.23649999499320984
1788165227361275600,12.429275634765625,-0.3452624976634979,0.08676250278949738,-0.18892499804496765
1788165227371370500,12.43937060546875,-0.3111625015735626,0.210099995136261,-0.08373750001192093
1788165227381456600,12.44945654296875,-0.31968748569488525,0.18809999525547028,-0.03368749842047691
1788165227391552000,12.459552001953124,-0.32573750615119934,0.04152499884366989,-0.06063750013709068
1788165227401632500,12.469632568359375,-0.32573750615119934,-0.07218749821186066,-0.09239999949932098
1788165227411725000,12.47972509765625,-0.36973750591278076,-0.26028749346733093,-0.14492499828338623
1788165227421816600,12.489816650390624,-0.3856875002384186,-0.340862512588501,-0.18521249294281006
1788165227441992700,12.50999267578125,-0.4064500033855438,-0.24681249260902405,-0.2022625058889389
1788165227452087600,12.520087646484376,-0.38926249742507935,-0.15399999916553497,-0.2120250016450882
1788165227472267300,12.540267333984374,-0.3367374837398529,0.004812499973922968,-0.18521249294281006
1788165227482350300,12.550350341796875,-0.3049750030040741,0.010999999940395355,-0.18521249294281006
1788165227492450600,12.560450439453126,-0.2512125074863434,0.04399999976158142,-0.19249999523162842
1788165227502531300,12.57053125,-0.2059749960899353,0.042762499302625656,-0.20473749935626984
1788165227512623600,12.58062353515625,-0.15839999914169312,0.10009999573230743,-0.19868749380111694
1788165227522711000,12.5907109375,-0.1266375035047531,0.2063875049352646,-0.16197499632835388
1788165227532808400,12.600808349609375,-0.12911249697208405,0.21615000069141388,-0.116737499833107
1788165227542902300,12.61090234375,-0.11316250264644623,0.2125750035047531,-0.09363749623298645
1788165227552999000,12.6209990234375,-0.08139999955892563,0.2003374993801117,-0.09968750178813934
1788165227563123700,12.631123779296875,-0.08992499858140945,0.07204999774694443,-0.1387374997138977
1788165227573215500,12.641215576171875,-0.09363749623298645,-0.006187499966472387,-0.15097500383853912
1788165227583313400,12.6513134765625,-0.10216250270605087,-0.020762499421834946,-0.14973749220371246
1788165227593409500,12.661409423828125,-0.1266375035047531,-0.05623750016093254,-0.15826250612735748
1788165227603491300,12.6714912109375,-0.1326874941587448,-0.05128749832510948,-0.16926249861717224
1788165227613589200,12.68158935546875,-0.1424500048160553,-0.05252499878406525,-0.1779250055551529
1788165227623667700,12.691667724609376,-0.1742125004529953,-0.13805000483989716,-0.18768750131130219
1788165227633758500,12.701758544921875,-0.19744999706745148,-0.17104999721050262,-0.20721249282360077
1788165227643847700,12.71184765625,-0.20239999890327454,-0.11604999750852585,-0.2316875010728836
1788165227653948000,12.721947998046875,-0.22687499225139618,-0.0929500013589859,-0.2657875120639801
1788165227664028400,12.7320283203125,-0.2414499968290329,-0.03423750028014183,-0.2890250086784363
1788165227674117400,12.742117431640626,-0.26468750834465027,0.02928750030696392,-0.279262512922287
1788165227684199700,12.75219970703125,-0.334262490272522,0.0035749999806284904,-0.2755500078201294
1788165227694295800,12.7622958984375,-0.39902499318122864,0.02681249938905239,-0.2609750032424927
1788165227704374500,12.77237451171875,-0.45649999380111694,0.08181250095367432,-0.24997499585151672
1788165227714477300,12.782477294921875,-0.509024977684021,0.12086249887943268,-0.25478750467300415
1788165227724561400,12.7925615234375,-0.5237374901771545,0.23457500338554382,-0.24997499585151672
1788165227734652700,12.802652587890625,-0.5310249924659729,0.32010000944137573,-0.24997499585151672
1788165227744736800,12.81273681640625,-0.5200250148773193,0.3493874967098236,-0.27445000410079956
1788165227754828000,12.822828125,-0.4955500066280365,0.37619999051094055,-0.2609750032424927
1788165227764919000,12.8329189453125,-0.4907374978065491,0.3273875117301941,-0.2217874974012375
1788165227775017500,12.843017578125,-0.4809750020503998,0.23691250383853912,-0.18150000274181366
1788165227785109800,12.85310986328125,-0.46873748302459717,0.19181250035762787,-0.14368750154972076
1788165227795204900,12.863204833984375,-0.47850000858306885,0.1331000030040741,-0.14121249318122864
1788165227805282600,12.873282470703124,-0.4712125062942505,0.09886249899864197,-0.17173749208450317
1788165227815379000,12.88337890625,-0.454025000333786,0.11233749985694885,-0.19497500360012054
1788165227825461200,12.893461181640625,-0.43821248412132263,0.08786249905824661,-0.20102499425411224
1788165227835543800,12.903543701171875,-0.42473748326301575,0.0317624993622303,-0.19126249849796295
1788165227845627100,12.913627197265624,-0.40273749828338623,0.0340999998152256,-0.17297500371932983
1788165227855724300,12.923724365234374,-0.3867875039577484,0.0340999998152256,-0.15344999730587006
1788165227865810400,12.933810546875,-0.36726251244544983,0.0170499999076128,-0.13750000298023224
1788165227875906000,12.943906005859375,-0.3550249934196472,0.0170499999076128,-0.13516250252723694
1788165227885983700,12.953983642578125,-0.3502124845981598,0.007287499960511923,-0.13516250252723694
1788165227916247600,12.98424755859375,-0.2964499890804291,-0.007424999959766865,-0.07397499680519104
1788165227926325200,12.9943251953125,-0.2451625019311905,0.023099999874830246,-0.028875000774860382
1788165227936421600,13.004421630859374,-0.19868749380111694,-0.0037124999798834324,-0.004399999976158142
1788165227946512000,13.014511962890625,-0.15234999358654022,-0.05623750016093254,-0.019112499430775642
1788165227956602600,13.0246025390625,-0.08992499858140945,-0.030524998903274536,-0.03244999796152115
1788165227966691300,13.03469140625,-0.0471624992787838,0.0035749999806284904,-0.0471624992787838
1788165227976793000,13.04479296875,-0.008112499490380287,0.03657500073313713,-0.06544999778270721
1788165227986880500,13.054880615234374,0.04936249926686287,0.1293874979019165,-0.05444999784231186
1788165227996968000,13.064968017578124,0.10064999759197235,0.15757499635219574,-0.020212499424815178
1788165228007051000,13.075051025390625,0.1457500010728836,0.08786249905824661,-0.0019249999895691872
1788165228017149000,13.08514892578125,0.19222499430179596,-0.0147124994546175,0.020075000822544098
1788165228027236600,13.095236572265625,0.19346250593662262,-0.1467124968767166,0.03231250122189522
1788165228037322200,13.105322265625,0.19346250593662262,-0.18328750133514404,0.05431250110268593
1788165228047408400,13.115408447265626,0.20817500352859497,-0.11604999750852585,0.09707500040531158
1788165228057496600,13.12549658203125,0.22027499973773956,-0.07095000147819519,0.13241249322891235
1788165228067587000,13.135587158203125,0.2410375028848648,-0.045237500220537186,0.1434125006198883
1788165228077675500,13.145675537109375,0.2642749845981598,0.0035749999806284904,0.1629374921321869
1788165228087766000,13.15576611328125,0.29356250166893005,0.0035749999806284904,0.16541250050067902
1788165228118005800,13.186005859375,0.34498751163482666,-0.010999999940395355,0.0028874999843537807
1788165228128090000,13.196090087890624,0.368087500333786,0.08181250095367432,-0.06187500059604645
1788165228138179800,13.206179931640625,0.35227498412132263,0.10009999573230743,-0.0728750005364418
1788165228148269600,13.21626953125,0.30346250534057617,0.13186250627040863,-0.026399999856948853
1788165228218888000,13.286887939453125,-0.013062499463558197,0.3334375023841858,-0.1326874941587448
1788165228239071000,13.307071044921875,-0.09735000133514404,0.5081999897956848,-0.18150000274181366
1788165228249162000,13.317161865234375,-0.1046374961733818,0.5961999893188477,-0.1779250055551529
1788165228259249000,13.327248779296875,-0.12540000677108765,0.5814874768257141,-0.16692499816417694
1788165228269331200,13.337331298828126,-0.14135000109672546,0.4263874888420105,-0.1461624950170517
1788165228279418400,13.34741845703125,-0.14492499828338623,0.28462499380111694,-0.11316250264644623
1788165228289534000,13.357533935546876,-0.1779250055551529,0.1293874979019165,-0.07644999772310257
1788165228299616300,13.3676162109375,-0.23416249454021454,0.08786249905824661,-0.07039999961853027
1788165228329883000,13.3978828125,-0.38692501187324524,0.329862505197525,-0.16568750143051147
1788165228339967200,13.40796728515625,-0.39902499318122864,0.3419624865055084,-0.17173749208450317
1788165228350057700,13.4180576171875,-0.4064500033855438,0.2626250088214874,-0.17668749392032623
1788165228360140800,13.428140869140625,-0.39668750762939453,0.18933749198913574,-0.1839749962091446
1788165228370231600,13.4382314453125,-0.37950000166893005,0.14038750529289246,-0.19497500360012054
1788165228380307500,13.448307373046875,-0.3587374985218048,0.11604999750852585,-0.20102499425411224
1788165228390401500,13.458401611328124,-0.3392125070095062,0.1331000030040741,-0.20102499425411224
1788165228400488200,13.46848828125,-0.3269749879837036,0.15633749961853027,-0.1742125004529953
1788165228410571800,13.47857177734375,-0.3244999945163727,0.11852499842643738,-0.14492499828338623
1788165228420658400,13.488658447265625,-0.32945001125335693,0.11962500214576721,-0.10573749989271164
1788165228430755300,13.49875537109375,-0.33192500472068787,0.1929125040769577,-0.0728750005364418
1788165228440841200,13.50884130859375,-0.30992498993873596,0.29809999465942383,-0.05816249921917915
1788165228450930700,13.5189306640625,-0.27073749899864197,0.3689124882221222,-0.06187500059604645
1788165228461020200,13.529020263671875,-0.23045000433921814,0.345674991607666,-0.09116250276565552
1788165228471104300,13.539104248046876,-0.16940000653266907,0.26138749718666077,-0.08139999955892563
1788165228481188900,13.54918896484375,-0.13887499272823334,0.18809999525547028,-0.016637500375509262
1788165228491275500,13.559275634765624,-0.13516250252723694,0.11604999750852585,0.02488750033080578
1788165228501357000,13.569357177734375,-0.11316250264644623,0.1368124932050705,0.04441250115633011
1788165228511442700,13.579442626953124,-0.09116250276565552,0.14409999549388885,0.020075000822544098
1788165228521528600,13.589528564453126,-0.05087500065565109,0.1331000030040741,-0.019112499430775642
1788165228531619800,13.599619873046874,0.006462499964982271,0.12828749418258667,-0.019112499430775642
1788165228541710300,13.60971044921875,0.02722499892115593,0.07562500238418579,0.020075000822544098
1788165228551804700,13.6198046875,0.038224998861551285,-0.03423750028014183,0.048124998807907104
1788165228561908200,13.629908203125,0.05664999783039093,-0.01718750037252903,0.08483749628067017
1788165228571997400,13.63999755859375,0.057887498289346695,-0.035475000739097595,0.07259999960660934
1788165228582091300,13.65009130859375,0.0541750006377697,-0.12347500026226044,0.005362499970942736
1788165228592184300,13.660184326171875,0.05898749828338623,-0.10628750175237656,-0.016637500375509262
1788165228602269400,13.67026953125,0.04688749834895134,-0.050187498331069946,0.015124999918043613
1788165228612358700,13.680358642578126,0.04441250115633011,-0.008662499487400055,0.028599999845027924
1788165228622460400,13.69046044921875,0.07741250097751617,0.0695749968290329,0.06159999966621399
1788165228642633700,13.7106337890625,0.14451250433921814,0.05486249923706055,0.11893749982118607
1788165228652725000,13.72072509765625,0.17270000278949738,-0.05376249924302101,0.12759999930858612
1788165228662810400,13.730810302734374,0.14698749780654907,-0.19304999709129333,0.14217500388622284
1788165228682992000,13.7509921875,0.04193750023841858,-0.16376249492168427,0.15070000290870667
1788165228693084000,13.761083984375,0.0016499999910593033,-0.057475000619888306,0.06159999966621399
1788165228703177500,13.771177490234376,0.016224998980760574,0.08304999768733978,-0.04221250116825104
1788165228713261300,13.78126123046875,0.055412501096725464,0.1868624985218048,-0.1143999993801117
1788165228723354600,13.791354736328126,0.10298749804496765,0.1746249943971634,-0.1363999992609024
1788165228733448700,13.80144873046875,0.14698749780654907,0.18933749198913574,-0.10821250081062317
1788165228743534600,13.81153466796875,0.16169999539852142,0.17957499623298645,-0.055687498301267624
1788165228753628000,13.8216279296875,0.12870000302791595,0.10381250083446503,-0.03244999796152115
1788165228763722000,13.831721923828125,0.08470000326633453,0.09157499670982361,-0.009349999949336052
1788165228773813800,13.841813720703126,0.013887500390410423,0.042762499302625656,0.0005499999970197678
1788165228783903000,13.851903076171874,-0.07411249727010727,-0.01966249942779541,0.0016499999910593033
1788165228814183200,13.88218310546875,-0.1143999993801117,0.15262499451637268,0.10793749988079071
1788165228824276000,13.89227587890625,-0.09116250276565552,0.18205000460147858,0.057887498289346695
1788165228844452400,13.912452392578125,-0.05458749830722809,0.032999999821186066,-0.12292499840259552
1788165228854529300,13.922529296875,-0.04606249928474426,-0.045237500220537186,-0.1779250055551529
1788165228864621300,13.932621337890625,-0.05211250111460686,-0.13199999928474426,-0.19126249849796295
1788165228874702000,13.9427021484375,-0.03739999979734421,-0.08676250278949738,-0.1289750039577484
1788165228884785200,13.95278515625,-0.03258749842643738,0.02199999988079071,-0.028875000774860382
1788165228894875400,13.96287548828125,-0.05939999967813492,0.0317624993622303,0.04441250115633011
1788165228904970500,13.972970458984374,-0.07039999961853027,0.007287499960511923,0.08841250091791153
1788165228915048200,13.983048095703126,-0.09735000133514404,-0.006187499966472387,0.11783749610185623
1788165228925138400,13.993138427734374,-0.14368750154972076,-0.050187498331069946,0.1311749964952469
1788165228935218400,14.003218505859374,-0.17311249673366547,0,0.14588749408721924
1788165228945308400,14.013308349609375,-0.19016249477863312,0.06228749826550484,0.133650004863739
1788165228955394000,14.02339404296875,-0.19263750314712524,0.01952499896287918,0.050599999725818634
1788165228965486000,14.033486083984375,-0.14258749783039093,0.023099999874830246,-0.03987500071525574
1788165228975558400,14.043558349609375,-0.09982500225305557,-0.0147124994546175,-0.08621250092983246
1788165228985651000,14.05365087890625,-0.06916250288486481,-0.09418749809265137,-0.12168750166893005
1788165228995740200,14.063740234375,-0.020349999889731407,-0.04152499884366989,-0.09473749995231628
1788165229005836500,14.07383642578125,0.007699999958276749,-0.045237500220537186,-0.04468749836087227
1788165229015929000,14.08392919921875,0.007699999958276749,-0.08676250278949738,-0.020212499424815178
1788165229026018300,14.094018310546875,0.030937500298023224,-0.03671250119805336,0.026124998927116394
1788165229036105200,14.104105224609375,0.007699999958276749,-0.07699999958276749,0.0798875018954277
1788165229046199600,14.114199462890625,-0.04729999974370003,-0.10271249711513519,0.13612499833106995
1788165229056283000,14.124282958984375,-0.11082500219345093,-0.05623750016093254,0.18741250038146973
1788165229066370800,14.134370849609375,-0.1816374957561493,-0.057475000619888306,0.1751749962568283
1788165229076459300,14.144459228515625,-0.1975875049829483,-0.02694999985396862,0.12870000302791595
1788165229086555000,14.154554931640625,-0.171875,-0.037950001657009125,0.057887498289346695
1788165229096646700,14.164646728515624,-0.11316250264644623,-0.15028749406337738,-0.03616249933838844
1788165229106741500,14.174741455078125,-0.022824998944997787,-0.10628750175237656,-0.06187500059604645
1788165229116831000,14.1848310546875,0.040699999779462814,-0.08923749625682831,-0.03492499887943268
1788165229126918700,14.194918701171876,0.06998749822378159,-0.15399999916553497,-0.014162499457597733
1788165229137011700,14.20501171875,0.10051249712705612,-0.14423750340938568,0.012649999931454659
1788165229147098000,14.21509814453125,0.0919874981045723,-0.17723749577999115,0.057887498289346695
1788165229157178600,14.2251787109375,0.047987498342990875,-0.25533750653266907,0.10793749988079071
1788165229167267600,14.235267578125,0.0016499999910593033,-0.25905001163482666,0.1751749962568283
1788165229177349600,14.245349609375,-0.04606249928474426,-0.28600001335144043,0.19841249287128448
1788165229187440600,14.255440673828126,-0.04606249928474426,-0.2102375030517578,0.19717499613761902
1788165229197533700,14.26553369140625,-0.004537499975413084,-0.0611874982714653,0.17393749952316284
1788165229207640300,14.275640380859375,0.012649999931454659,-0.04399999976158142,0.07383749634027481
1788165229217729300,14.285729248046875,0.07864999771118164,0.032862499356269836,-0.014162499457597733
1788165229227821800,14.29582177734375,0.14093749225139618,0.08910000324249268,-0.04839999973773956
1788165229237909000,14.305908935546874,0.1555124968290329,-0.02447500079870224,-0.08387500047683716
1788165229247993900,14.315993896484375,0.18851250410079956,-0.0611874982714653,-0.08139999955892563
1788165229258078200,14.326078125,0.2190375030040741,-0.037950001657009125,-0.030112499371170998
1788165229268154600,14.336154541015626,0.2129874974489212,-0.01966249942779541,-0.0031624999828636646
1788165229278241000,14.346240966796875,0.21422499418258667,-0.01718750037252903,-0.004399999976158142
1788165229288327400,14.356327392578125,0.17874999344348907,0.0170499999076128,-0.030112499371170998
1788165229298412800,14.366412841796874,0.12251249700784683,0.03904999792575836,-0.05087500065565109
1788165229308503600,14.376503662109375,0.09693749994039536,0.11357499659061432,-0.043449997901916504
1788165229318588200,14.386588134765624,0.06641250103712082,0.1428624987602234,-0.03616249933838844
1788165229328671700,14.396671630859375,0.04688749834895134,0.10009999573230743,-0.03863750025629997
1788165229338758400,14.40675830078125,0.057750001549720764,0.11481250077486038,-0.055687498301267624
1788165229348850000,14.416849853515625,0.05898749828338623,0.0658624991774559,-0.06668750196695328
1788165229358936800,14.426936767578125,0.060224998742341995,0.0170499999076128,-0.06297499686479568
1788165229369028900,14.43702880859375,0.06764999777078629,0.04028749838471413,-0.03987500071525574
1788165229379117000,14.447116943359376,0.06641250103712082,0.05004999786615372,-0.026399999856948853
1788165229389206500,14.45720654296875,0.06998749822378159,0.042762499302625656,-0.006874999962747097
1788165229399298600,14.467298583984375,0.06998749822378159,0.028049999848008156,0.0005499999970197678
1788165229409404400,14.477404296875,0.060224998742341995,0.042762499302625656,0.004124999977648258
1788165229419496400,14.487496337890626,0.05169999971985817,0.07204999774694443,0.02241249941289425
1788165229429587500,14.49758740234375,0.028462499380111694,0.07204999774694443,0.02983750030398369
1788165229439684000,14.50768408203125,0.007699999958276749,0.1331000030040741,0.04441250115633011
1788165229449769500,14.51776953125,-0.015537500381469727,0.12581250071525574,0.04207500070333481
1788165229459859200,14.527859130859374,-0.03987500071525574,0.07081250101327896,0.0028874999843537807
1788165229469950500,14.537950439453125,-0.04853750020265579,0.07686249911785126,-0.05444999784231186
1788165229480033800,14.54803369140625,-0.03753750026226044,0.13557499647140503,-0.11192499846220016
1788165229490127000,14.558127197265625,-0.03382499888539314,0.16733749210834503,-0.18521249294281006
1788165229500214300,14.56821435546875,-0.022824998944997787,0.13557499647140503,-0.23526249825954437
1788165229510305300,14.57830517578125,0.007699999958276749,0.15262499451637268,-0.20473749935626984
1788165229520393700,14.588393798828125,0.02722499892115593,0.17215000092983246,-0.12416250258684158
1788165229530485500,14.598485595703124,0.018699999898672104,0.08662500232458115,-0.06421250104904175
1788165229540563700,14.608563720703126,0.006462499964982271,0.09404999762773514,-0.022687500342726707
1788165229550664200,14.618664306640625,-0.05458749830722809,0.1013374999165535,-0.009349999949336052
1788165229560756000,14.628755859375,-0.12058749794960022,0.09404999762773514,-0.043449997901916504
1788165229570853000,14.63885302734375,-0.16335000097751617,0.1746249943971634,-0.07397499680519104
1788165229580935000,14.648934814453124,-0.19511249661445618,0.16238750517368317,-0.10821250081062317
1788165229591032300,14.6590322265625,-0.1621125042438507,0.18081249296665192,-0.10821250081062317
1788165229601121800,14.669121826171875,-0.1120624989271164,0.170912504196167,-0.04963750019669533
1788165229611212000,14.6792119140625,-0.10339999943971634,-0.030662499368190765,-0.03987500071525574
1788165229621304300,14.68930419921875,-0.0826374962925911,-0.10752499848604202,-0.023924998939037323
1788165229631401500,14.6994013671875,-0.08758749812841415,-0.02694999985396862,0.0028874999843537807
1788165229641491000,14.709490966796874,-0.12911249697208405,0.023099999874830246,-0.03616249933838844
1788165229651590700,14.719590576171875,-0.14135000109672546,0.14904999732971191,-0.08621250092983246
1788165229661682400,14.729682373046876,-0.1266375035047531,0.18809999525547028,-0.09116250276565552
1788165229671775700,14.739775634765625,-0.12787500023841858,0.15015000104904175,-0.06544999778270721
1788165229681867000,14.749866943359375,-0.1363999992609024,0.14162500202655792,0.02241249941289425
1788165229691963100,14.759963134765625,-0.13158750534057617,0.15386250615119934,0.04936249926686287
1788165229702049300,14.77004931640625,-0.09129999577999115,0.19910000264644623,0.016362499445676804
1788165229712145000,14.780144775390625,-0.09129999577999115,0.170912504196167,-0.09844999760389328
1788165229722232800,14.79023291015625,-0.0668250024318695,0.17710000276565552,-0.2059749960899353
1788165229732328400,14.800328369140624,-0.01677500084042549,0.1685750037431717,-0.196212500333786
1788165229742414600,14.81041455078125,-0.030112499371170998,0.11233749985694885,-0.09116250276565552
1788165229752527600,14.820527587890625,-0.05829999968409538,0.042762499302625656,0.004124999977648258
1788165229762622000,14.8306220703125,-0.04729999974370003,0.11481250077486038,0.08717499673366547
1788165229772710100,14.840710205078125,-0.05335000157356262,0.15015000104904175,0.08717499673366547
1788165229782808300,14.850808349609375,-0.06311249732971191,0.07686249911785126,-0.019112499430775642
1788165229792899800,14.86089990234375,-0.05829999968409538,0.07452499866485596,-0.10216250270605087
1788165229802988000,14.870988037109376,-0.04963750019669533,0.13186250627040863,-0.10821250081062317
1788165229813077000,14.881076904296876,-0.03863750025629997,0.11604999750852585,-0.07039999961853027
1788165229823166700,14.891166748046874,-0.028875000774860382,0.09404999762773514,-0.006874999962747097
1788165229833261600,14.901261474609376,-0.015537500381469727,0.08057499676942825,0.07012499868869781
1788165229843345700,14.911345703125,-0.021587500348687172,0.0635249987244606,0.14588749408721924
1788165229853437400,14.9214375,-0.04853750020265579,-0.03423750028014183,0.1691250056028366
1788165229863518500,14.9315185546875,-0.08387500047683716,-0.13323749601840973,0.1396999955177307
1788165229873612800,14.94161279296875,-0.06806249916553497,-0.0147124994546175,0.10312499850988388
1788165229883705900,14.951705810546875,-0.03863750025629997,0.15015000104904175,0.07507500052452087
1788165229893804800,14.9618046875,-0.014299999922513962,0.13186250627040863,0.02983750030398369
1788165229903888100,14.97188818359375,0.03464999794960022,0.09281250089406967,0.04441250115633011
1788165229913978000,14.98197802734375,0.07741250097751617,0.010999999940395355,0.11288750171661377
1788165229924068000,14.992068115234375,0.08717499673366547,-0.14300000667572021,0.1373624950647354
1788165229934150400,15.002150390625,0.11151249706745148,-0.11371249705553055,0.1116499975323677
1788165229944235800,15.01223583984375,0.113987497985363,-0.06599999964237213,0.018837500363588333
1788165229954387200,15.02238720703125,0.12498749792575836,-0.035475000739097595,-0.08744999766349792
1788165229964466200,15.032466064453125,0.13474999368190765,0.04028749838471413,-0.08387500047683716
1788165229974551800,15.0425517578125,0.12498749792575836,-0.040424998849630356,-0.031212499365210533
1788165229984653600,15.052653564453125,0.14451250433921814,0.025575000792741776,0.06764999777078629
1788165229994740200,15.062740234375,0.1494625061750412,0.1073874980211258,0.15936249494552612
1788165230004823800,15.07282373046875,0.13846249878406525,0.047575000673532486,0.13859999179840088
1788165230014919400,15.08291943359375,0.15427500009536743,-0.020762499421834946,0.07383749634027481
1788165230024998700,15.09299853515625,0.14451250433921814,-0.07218749821186066,0.0798875018954277
1788165230035088100,15.103088134765626,0.10917499661445618,-0.1662375032901764,0.12017499655485153
1788165230045172200,15.113172119140625,0.09446249902248383,-0.16747500002384186,0.1788875013589859
1788165230055283000,15.123282958984374,0.08470000326633453,-0.11728750169277191,0.19346250593662262
1788165230065368300,15.133368408203125,0.08951249718666077,-0.12347500026226044,0.12636250257492065
1788165230075442700,15.143442626953124,0.12870000302791595,-0.10999999940395355,0.06888750195503235
1788165230085532700,15.15353271484375,0.1629374921321869,-0.08799999952316284,0.035887498408555984
1788165230095610400,15.1636103515625,0.18851250410079956,-0.15152500569820404,0.0016499999910593033
1788165230105699300,15.17369921875,0.21051250398159027,-0.0989999994635582,0.009074999950826168
1788165230115790300,15.183790283203125,0.22151249647140503,-0.0635249987244606,0.03959999978542328
1788165230125877200,15.193877197265625,0.2287999987602234,0.032862499356269836,0.06283749639987946
1788165230135971300,15.203971435546874,0.23003749549388885,0.07328750193119049,0.0835999995470047
1788165230146059000,15.21405908203125,0.20198750495910645,0.02433750033378601,0.06764999777078629
1788165230156145400,15.2241455078125,0.1909874975681305,-0.062424998730421066,0.06641250103712082
1788165230166230300,15.234230224609375,0.15070000290870667,-0.0989999994635582,0.11769999563694
1788165230176334000,15.244333984375,0.09446249902248383,-0.23100000619888306,0.1471250057220459
1788165230186424300,15.25442431640625,0.06517499685287476,-0.12828749418258667,0.15812499821186066
1788165230196510500,15.264510498046874,0.052937500178813934,0.0035749999806284904,0.11288750171661377
1788165230206596900,15.274596923828126,0.07741250097751617,0.02433750033378601,-0.03244999796152115
1788165230216692700,15.284692626953126,0.13474999368190765,0.05486249923706055,-0.16197499632835388
1788165230226787300,15.294787353515625,0.17503750324249268,0.002337499987334013,-0.1742125004529953
1788165230236866800,15.30486669921875,0.1812250018119812,0.0010999999940395355,-0.08016250282526016
1788165230246954800,15.314954833984375,0.15193749964237213,-0.050187498331069946,0.04207500070333481
1788165230257040000,15.325039794921874,0.09941250085830688,-0.10876250267028809,0.10188750177621841
1788165230267122000,15.335121826171875,0.04922499880194664,-0.0952875018119812,0.08841250091791153
1788165230277208300,15.345208251953125,0.006462499964982271,-0.0635249987244606,0.045649997889995575
1788165230287295000,15.355294921875,-0.019112499430775642,-0.047712501138448715,-0.031212499365210533
1788165230297384000,15.365384033203124,0.010174999944865704,0.0695749968290329,-0.07644999772310257
1788165230307469600,15.375469482421876,0.04675000160932541,0.21367499232292175,-0.0471624992787838
1788165230317552400,15.385552490234375,0.057750001549720764,0.22591249644756317,-0.021449999883770943
1788165230327638300,15.39563818359375,0.07493750005960464,0.19415000081062317,0.0005499999970197678
1788165230337719600,15.405719482421874,0.08470000326633453,0.14409999549388885,0.038362499326467514
1788165230347809800,15.415809814453125,0.06270000338554382,0.020762499421834946,0.05664999783039093
1788165230357890300,15.425890380859375,0.04922499880194664,-0.01223750039935112,0.015124999918043613
1788165230367978200,15.435978271484375,0.03217500075697899,0.004812499973922968,-0.025162499397993088
1788165230378076200,15.446076171875,0.007699999958276749,-0.032999999821186066,-0.020349999889731407
1788165230388167400,15.45616748046875,-0.027775000780820847,-0.05871250107884407,0.015124999918043613
1788165230398262500,15.466262451171875,-0.06187500059604645,-0.06971249729394913,0.023649999871850014
1788165230408358400,15.4763583984375,-0.05087500065565109,0.023099999874830246,0.010312499478459358
1788165230418458600,15.486458740234376,-0.0411125011742115,0.07562500238418579,-0.04592499881982803
1788165230428541400,15.49654150390625,-0.024062499403953552,0.07328750193119049,-0.14973749220371246
1788165230438634200,15.50663427734375,0.01746249943971634,0.09404999762773514,-0.1802625060081482
1788165230448719600,15.5167197265625,0.025987500324845314,0.0035749999806284904,-0.1522125005722046
1788165230458801200,15.52680126953125,0.012649999931454659,-0.11495000123977661,-0.1046374961733818
1788165230468886500,15.536886474609375,-0.01677500084042549,-0.11852499842643738,0.010312499478459358
1788165230478979600,15.5469794921875,-0.06558749824762344,-0.10395000129938126,0.09941250085830688
1788165230489058600,15.55705859375,-0.1083500012755394,-0.11371249705553055,0.10188750177621841
1788165230499143400,15.567143310546875,-0.1303499937057495,-0.06476250290870667,0.07383749634027481
1788165230509231000,15.577231201171875,-0.13158750534057617,-0.06476250290870667,0.02241249941289425
1788165230519319000,15.587319091796875,-0.12182500213384628,-0.09652499854564667,-0.05692499876022339
1788165230529404000,15.59740380859375,-0.07535000145435333,-0.09776250272989273,-0.09968750178813934
1788165230539497500,15.60749755859375,-0.03629999980330467,-0.06847500056028366,-0.06544999778270721
1788165230549587200,15.617587158203126,-0.009349999949336052,-0.045237500220537186,-0.023924998939037323
1788165230559682000,15.62768212890625,-0.024062499403953552,-0.10628750175237656,-0.03368749842047691
1788165230569770500,15.6377705078125,-0.027775000780820847,-0.11495000123977661,-0.055687498301267624
1788165230579860700,15.64786083984375,-0.01677500084042549,-0.059950001537799835,-0.0471624992787838
1788165230589952300,15.6579521484375,-0.021587500348687172,-0.1625249981880188,-0.0789249986410141
1788165230600047400,15.66804736328125,-0.019112499430775642,-0.1467124968767166,-0.05692499876022339
1788165230610124800,15.678124755859375,-0.007012499962002039,0.02928750030696392,0.04688749834895134
1788165230620218400,15.68821826171875,-0.004537499975413084,0.07081250101327896,0.06407500058412552
1788165230630314500,15.698314453125,-0.009349999949336052,0.04386249929666519,-0.014162499457597733
1788165230640408300,15.708408203125,0.0028874999843537807,0.0340999998152256,-0.09844999760389328
1788165230650498300,15.718498291015624,-0.007012499962002039,0.018287500366568565,-0.12773749232292175
1788165230660590600,15.728590576171875,-0.019112499430775642,0.057337500154972076,-0.10339999943971634
1788165230670688300,15.738688232421875,-0.014299999922513962,0.06710000336170197,-0.06792499870061874
1788165230680789200,15.748789306640624,-0.03135000169277191,-0.02199999988079071,-0.0471624992787838
1788165230690886400,15.758886474609374,-0.03382499888539314,0.014574999921023846,-0.014162499457597733
1788165230700979000,15.76897900390625,-0.06311249732971191,0.014574999921023846,-0.006874999962747097
1788165230711064800,15.77906494140625,-0.08153750002384186,-0.030662499368190765,-0.03616249933838844
1788165230721156400,15.78915625,-0.08387500047683716,-0.015949999913573265,-0.07768750190734863
1788165230731242000,15.799241943359375,-0.09982500225305557,-0.03671250119805336,-0.10092499852180481
1788165230741326300,15.809326416015624,-0.08635000139474869,-0.02199999988079071,-0.09968750178813934
1788165230751412700,15.819412841796876,-0.08511249721050262,-0.03671250119805336,-0.09116250276565552
1788165230761510000,15.829510009765626,-0.08030000329017639,-0.01347499992698431,-0.06063750013709068
1788165230771593700,15.83959375,-0.06806249916553497,0.08786249905824661,-0.03739999979734421
1788165230781687300,15.849687255859376,-0.06435000151395798,0.07933750003576279,-0.023924998939037323
1788165230791772700,15.859772705078125,-0.06435000151395798,-0.047712501138448715,-0.020349999889731407
1788165230801874700,15.869874755859374,-0.07782500237226486,-0.07699999958276749,0.009074999950826168
1788165230811957000,15.87995703125,-0.09129999577999115,-0.09047500044107437,0.031075000762939453
1788165230822048300,15.89004833984375,-0.1143999993801117,-0.15895000100135803,-0.004399999976158142
1788165230832128300,15.900128173828126,-0.11935000121593475,-0.13571250438690186,-0.06311249732971191
1788165230842221800,15.910221923828125,-0.11563749611377716,-0.06476250290870667,-0.10587500035762787
1788165230852300500,15.920300537109375,-0.12182500213384628,0.1050499975681305,-0.10339999943971634
1788165230862392600,15.930392578125,-0.08030000329017639,0.1588124930858612,-0.09597499668598175
1788165230872470300,15.94047021484375,-0.05953750014305115,0.1428624987602234,-0.08387500047683716
1788165230882569700,15.95056982421875,-0.024062499403953552,0.06833750009536743,-0.023924998939037323
1788165230892650000,15.96064990234375,-0.019112499430775642,-0.10271249711513519,0.02736249938607216
1788165230902747600,15.97074755859375,-0.04358749836683273,-0.1307625025510788,0.053075000643730164
1788165230912830000,15.980829833984375,-0.06806249916553497,-0.10752499848604202,0.07864999771118164
1788165230922921500,15.99092138671875,-0.1143999993801117,-0.11123749613761902,0.06407500058412552
1788165230933002800,16.001002685546876,-0.13763749599456787,-0.13571250438690186,0.040837500244379044
1788165230943098000,16.01109814453125,-0.11563749611377716,-0.059950001537799835,0.057887498289346695
1788165230953186800,16.021186767578126,-0.08882500231266022,0.05609999969601631,0.05912499874830246
1788165230963282700,16.03128271484375,-0.04358749836683273,0.11110000312328339,0.055412501096725464
1788165230973373700,16.041373779296876,0.014987500384449959,0.14657500386238098,0.040837500244379044
1788165230983467500,16.051467529296875,0.06998749822378159,0.08304999768733978,0.026124998927116394
1788165230993547500,16.061547607421875,0.10175000131130219,-0.03423750028014183,0.05912499874830246
1788165231003636200,16.07163623046875,0.10422500222921371,-0.08923749625682831,0.1373624950647354
1788165231013727500,16.0817275390625,0.07122500240802765,-0.16747500002384186,0.16417500376701355
1788165231023824400,16.091824462890624,0.047987498342990875,-0.11976250261068344,0.15936249494552612
1788165231033902600,16.101902587890624,0.023649999871850014,-0.028187500312924385,0.09088750183582306
1788165231043997700,16.111997802734376,0.016224998980760574,0.13557499647140503,-0.004399999976158142
1788165231054087700,16.122087646484374,0.05169999971985817,0.24791249632835388,-0.06668750196695328
1788165231064182000,16.13218212890625,0.08951249718666077,0.18314999341964722,-0.0752125009894371
1788165231074269400,16.14226953125,0.16651250422000885,0.13805000483989716,-0.03616249933838844
1788165231084366300,16.152366455078123,0.19827499985694885,0.13557499647140503,0.016362499445676804
1788165231094451700,16.16245166015625,0.20198750495910645,0.09404999762773514,0.07012499868869781
1788165231104552400,16.172552490234374,0.17379999160766602,0.032862499356269836,0.09693749994039536
1788165231114638800,16.182638916015627,0.12498749792575836,-0.0012374999932944775,0.10064999759197235
1788165231124730600,16.192730712890626,0.06393750011920929,0.002337499987334013,0.08841250091791153
1788165231134815000,16.20281494140625,0.02241249941289425,-0.007424999959766865,0.0798875018954277
1788165231144910000,16.21291015625,0.01746249943971634,0.15015000104904175,0.10793749988079071
1788165231154997500,16.22299755859375,0.02474999986588955,0.26510000228881836,0.10683749616146088
1788165231165082600,16.23308251953125,0.0541750006377697,0.2723875045776367,0.07012499868869781
1788165231175169500,16.24316943359375,0.10546249896287918,0.16733749210834503,0.03464999794960022
1788165231185250600,16.25325048828125,0.15070000290870667,0.2003374993801117,0.0541750006377697
1788165231195343600,16.263343505859375,0.15427500009536743,0.1073874980211258,0.06641250103712082
1788165231205430300,16.27343017578125,0.12127500027418137,-0.059950001537799835,0.10064999759197235
1788165231215511800,16.28351171875,0.07617499679327011,-0.12594999372959137,0.1373624950647354
1788165231225605000,16.293605224609376,0.018699999898672104,-0.008662499487400055,0.11769999563694
1788165231235697200,16.303697265625,-0.03753750026226044,0.11604999750852585,0.038362499326467514
1788165231245785600,16.31378564453125,-0.027775000780820847,0.234437495470047,-0.043449997901916504
1788165231255872800,16.323872802734375,0.035750001668930054,0.2564375102519989,-0.05087500065565109
1788165231265959200,16.333959228515624,0.06517499685287476,0.2149125039577484,0.01759999990463257
1788165231276044800,16.344044921875,0.07975000143051147,0.170912504196167,0.09212499856948853
1788165231286125000,16.354125,0.07246249914169312,0.07686249911785126,0.17765000462532043
1788165231296207400,16.364207275390626,0.008937500417232513,-0.04166249930858612,0.22522500157356262
1788165231306302000,16.374302001953126,-0.04853750020265579,-0.07947500050067902,0.19965000450611115
1788165231316391700,16.3843916015625,-0.0826374962925911,-0.04166249930858612,0.15812499821186066
1788165231326472700,16.39447265625,-0.1083500012755394,0.02928750030696392,0.10312499850988388
1788165231336564000,16.40456396484375,-0.09487500041723251,0.14904999732971191,0.07493750005960464
1788165231346647600,16.4146474609375,-0.0728750005364418,0.21738749742507935,0.07617499679327011
1788165231356737500,16.424737548828126,-0.03258749842643738,0.23691250383853912,0.07259999960660934
1788165231366825700,16.43482568359375,-0.011824999935925007,0.22591249644756317,0.07864999771118164
1788165231376914700,16.444914794921875,0.006462499964982271,0.1746249943971634,0.07012499868869781
1788165231387001600,16.455001708984376,0.02241249941289425,0.15633749961853027,0.089649997651577
1788165231397078800,16.465078857421876,0.008937500417232513,0.09033749997615814,0.10683749616146088
1788165231407171300,16.47517138671875,-0.015537500381469727,-0.0012374999932944775,0.09693749994039536
1788165231417250800,16.485250732421875,-0.03382499888539314,0.0340999998152256,0.07493750005960464
1788165231427342300,16.49534228515625,-0.0411125011742115,0.0658624991774559,0.07012499868869781
1788165231437426200,16.50542626953125,-0.05582499876618385,0.12209999561309814,0.05912499874830246
1788165231447516200,16.51551611328125,-0.028875000774860382,0.210099995136261,0.06888750195503235
1788165231457600500,16.5256005859375,0.01746249943971634,0.21738749742507935,0.10064999759197235
1788165231467692500,16.535692626953125,0.06393750011920929,0.2003374993801117,0.1311749964952469
1788165231477779000,16.545779052734375,0.11646249890327454,0.1551000028848648,0.1471250057220459
1788165231487873800,16.555873779296874,0.1237500011920929,0.0317624993622303,0.13859999179840088
1788165231497959400,16.56595947265625,0.10298749804496765,-0.03423750028014183,0.14093749225139618
1788165231508049000,16.576048828125,0.07975000143051147,-0.09418749809265137,0.1471250057220459
1788165231518136300,16.58613623046875,0.06517499685287476,-0.1467124968767166,0.14464999735355377
1788165231528224500,16.596224609375,0.0919874981045723,-0.2102375030517578,0.1494625061750412
1788165231538303500,16.606303466796874,0.12993749976158142,-0.22481249272823334,0.14093749225139618
1788165231548397000,16.61639697265625,0.19580000638961792,-0.21504999697208405,0.13612499833106995
1788165231558478800,16.626478759765625,0.23375000059604645,-0.22247499227523804,0.15193749964237213
1788165231568567300,16.6365673828125,0.23746250569820404,-0.2125750035047531,0.1691250056028366
1788165231578652700,16.646652587890625,0.22756250202655792,-0.20528750121593475,0.1629374921321869
1788165231588741000,16.6567412109375,0.17270000278949738,-0.19552500545978546,0.09941250085830688
1788165231598826200,16.666826171875,0.12870000302791595,-0.19071249663829803,0.018837500363588333
1788165231619006700,16.6870068359375,0.09569999575614929,-0.15399999916553497,-0.05444999784231186
1788165231629106400,16.6971064453125,0.13227500021457672,-0.06971249729394913,-0.03368749842047691
1788165231639189800,16.707189697265626,0.12017499655485153,-0.0635249987244606,-0.027637500315904617
1788165231649279700,16.71727978515625,0.1335124969482422,-0.0611874982714653,-0.009349999949336052
1788165231659364600,16.727364501953126,0.15303750336170197,-0.07576250284910202,0.0518375001847744
1788165231669466400,16.73746630859375,0.1629374921321869,-0.10518749803304672,0.10793749988079071
1788165231679551000,16.747551025390624,0.1494625061750412,-0.12594999372959137,0.1471250057220459
1788165231689640400,16.757640380859375,0.13722500205039978,-0.1405249983072281,0.1691250056028366
1788165231699726300,16.767726318359376,0.12017499655485153,-0.13199999928474426,0.1751749962568283
1788165231709824300,16.77782421875,0.08717499673366547,-0.18947499990463257,0.13612499833106995
1788165231719901400,16.7879013671875,0.08346249908208847,-0.19181250035762787,0.09583749622106552
1788165231729993200,16.7979931640625,0.09927500039339066,-0.10271249711513519,0.0798875018954277
1788165231740075300,16.8080751953125,0.10793749988079071,-0.050187498331069946,0.03959999978542328
1788165231750164000,16.8181640625,0.14327499270439148,-0.02694999985396862,-0.016637500375509262
1788165231760249000,16.8282490234375,0.1812250018119812,-0.0147124994546175,-0.05692499876022339
1788165231770343000,16.838343017578126,0.21051250398159027,-0.029424998909235,-0.05692499876022339
1788165231780432600,16.8484326171875,0.2190375030040741,-0.040424998849630356,-0.011687500402331352
1788165231790530000,16.858530029296876,0.21051250398159027,-0.042762499302625656,0.028599999845027924
1788165231800624000,16.8686240234375,0.18975000083446503,0.002337499987334013,0.0518375001847744
1788165231810724400,16.878724365234376,0.1592250019311905,0.010999999940395355,0.04441250115633011
1788165231820809700,16.888809814453126,0.12993749976158142,-0.05376249924302101,0.028599999845027924
1788165231830893300,16.898893310546875,0.12017499655485153,-0.09171249717473984,0.035887498408555984
1788165231840982500,16.908982421875,0.10546249896287918,-0.10271249711513519,0.04207500070333481
1788165231851077000,16.9190771484375,0.10793749988079071,-0.025712499395012856,0.028599999845027924
