time,seconds_elapsed,z,y,x
150196038143313,0.000000,-0.645355,0.820078,-1.855106
150196048144241,0.010001,0.102252,0.093986,-0.032468
150196058145257,0.020002,-0.219105,-0.199781,0.07392
150196068146185,0.030003,-0.245122,-0.202717,0.089402
150196078147344,0.040004,-0.022685,-0.024033,-0.002099
150196088148270,0.050005,0.264969,0.333835,-0.180994
150196098149276,0.060006,0.685859,0.461834,-0.822114
150196108150214,0.070007,0.293537,-0.070047,-0.638254
150196118151338,0.080008,-0.539433,-1.151501,-0.029674
150196128152338,0.090009,-0.93526,-1.370936,0.16682
150196138153495,0.100010,-1.155027,-0.958406,0.132766
150196148154418,0.110011,-0.067619,-0.372507,-0.25232
150196158155432,0.120012,0.348234,-0.258796,-0.033054
150196168156357,0.130013,0.51118,-0.283203,-0.085845
150196178157511,0.140014,0.163342,-0.294951,-0.488984
150196188158427,0.150015,0.461254,-0.02239,-0.790957
150196198159350,0.160016,0.857705,0.394465,-0.649626
150196208160367,0.170017,1.247998,0.462362,-0.30371
150196218161523,0.180018,1.135672,0.158935,0.131073
150196228162461,0.190019,0.566241,-0.262004,0.455347
150196238163461,0.200020,0.463453,-0.050832,-0.128182
150196248164401,0.210021,0.76972,0.769271,-1.517611
150196258165329,0.220022,1.535835,0.440201,-3.842301
150196268166557,0.230023,1.247161,0.312126,-3.33076
150196278167477,0.240024,1.939688,0.149887,-1.573339
150196288168401,0.250025,1.019509,-0.167593,-0.514959
150196298169567,0.260026,0.567976,0.173676,-0.23227
150196308170481,0.270027,1.116803,1.137646,-0.274628
150196318171471,0.280028,1.70122,1.550979,-0.031606
150196328172396,0.290029,1.303545,0.417954,1.285729
150196338173550,0.300030,0.408175,-0.669569,2.067287
150196348174471,0.310031,-0.147597,-1.055056,1.859183
150196358175473,0.320032,0.193985,-0.672424,1.024478
150196368176625,0.330033,1.044057,0.100067,0.145127
150196378177534,0.340034,1.697213,0.205948,-0.219921
150196388178457,0.350035,0.838892,-0.360843,0.024743
150196398179452,0.360036,-0.908005,-0.99202,0.192593
150196408180363,0.370037,-1.368671,-1.218234,0.153611
150196418181300,0.380038,-0.456509,-0.525315,-0.071715
150196428182438,0.390039,0.834183,-0.10619,0.017869
150196438183454,0.400040,1.152998,0.095187,-0.037536
150196448184373,0.410041,0.795086,0.145954,-0.200517
150196458185296,0.420042,-0.37029,-0.913367,0.175449
150196468186450,0.430043,-1.181874,-1.511497,0.089133
150196478187384,0.440044,-1.564357,-1.243793,-0.054506
150196488188396,0.450045,-0.82011,-0.876699,-0.228518
150196498189319,0.460046,0.115631,-0.748126,0.017265
150196508190471,0.470047,0.428541,-0.8062,0.239221
150196518191389,0.480048,-0.218305,-0.721182,0.488712
150196528192314,0.490049,-0.847113,-0.568132,0.508552
150196538193300,0.500050,-0.822757,-0.745329,0.404999
150196548194214,0.510051,-0.546619,-0.843784,0.1012
150196558195368,0.520052,-0.578641,-0.919149,-0.092572
150196568196289,0.530053,-0.657548,-0.866781,-0.27863
150196578197281,0.540054,-0.579553,-0.995935,-0.420145
150196588198419,0.550055,-0.040068,-0.577569,-0.172873
150196598199342,0.560056,-0.518458,-0.929402,-0.248713
150196608200255,0.570057,-0.618769,-0.666993,0.059833
150196618201184,0.580058,-1.078169,-0.511027,0.095133
150196628202186,0.590059,-1.165189,-0.70361,-0.710882
150196638203333,0.600060,-0.597488,-0.638757,-1.194551
150196648204255,0.610061,0.229539,-0.580007,-1.034403
150196658205178,0.620062,0.731029,-0.84446,-0.766815
150196668206178,0.630063,0.718124,-0.784455,-0.753496
150196678207089,0.640064,0.446064,-0.413303,-1.143026
150196688208241,0.650065,-0.086444,-0.311901,-0.987495
150196698209164,0.660066,-0.281862,-0.093713,-0.618454
150196708210101,0.670067,-0.294397,-0.10722,-0.345139
150196718211127,0.680068,-0.184814,-0.372295,-0.796149
150196728212281,0.690069,0.097136,-0.265826,-0.910655
150196738213202,0.700070,0.68102,-0.453011,-0.495011
150196748214120,0.710071,0.577253,-0.12663,-0.376058
150196758215106,0.720072,0.473244,0.497542,0.122876
150196768216026,0.730073,0.264155,0.693762,0.351854
150196778216939,0.740074,0.436078,0.346445,0.377682
150196788218088,0.750075,1.244752,0.057228,0.190564
150196798218995,0.760076,1.588341,0.008348,0.18937
150196808220001,0.770077,0.988731,0.375627,0.427422
150196818220935,0.780078,0.980266,0.266016,1.13752
150196828221858,0.790079,1.105505,0.316065,1.11134
150196838223012,0.800080,1.369852,0.120107,1.060617
150196848223933,0.810081,1.110711,0.105902,0.855375
150196858224924,0.820082,0.709606,0.294398,0.14365
150196868226082,0.830083,0.577408,-0.287503,0.392653
150196878226991,0.840084,0.013264,-0.063529,-0.022583
150196888227890,0.850085,0.394472,0.323444,0.159249
150196898228895,0.860086,0.729867,-0.013122,0.725164
150196938232847,0.900090,-1.325301,-1.527774,1.200764
150196948233852,0.910091,-2.149109,-1.707405,0.713005
150196958234787,0.920091,-1.078962,0.129603,0.213637
150196968235710,0.930092,-0.345676,0.146929,0.334595
150196978236871,0.940094,-0.463192,-0.594234,0.344669
150196988237786,0.950094,0.144939,-1.164983,0.482156
150196998238769,0.960095,0.630447,-0.966998,0.473179
150197008239694,0.970096,0.76204,-1.036201,0.355187
150197018240846,0.980098,0.493593,-0.907013,0.275949
150197028241550,0.990098,0.319944,-0.949964,0.533389
150197038242712,1.000099,0.16173,-0.544244,0.302272
150197048243728,1.010100,-0.140925,-1.223326,0.727681
150197058244665,1.020101,-0.221336,-0.766394,0.861406
150197068245588,1.030102,-0.804349,-0.861269,0.649121
150197078246745,1.040103,-1.308763,-0.821048,0.656654
150197088247665,1.050104,-1.129093,-0.548845,0.595266
150197098248663,1.060105,-0.933632,-0.464422,0.281883
150197108249569,1.070106,-0.718885,-0.91273,0.686361
150197118250506,1.080107,-0.029431,-0.549729,0.47256
150197128251658,1.090108,0.344558,-0.960518,0.152344
150197138252660,1.100109,0.34018,-1.214192,0.139383
150197148253588,1.110110,0.317431,-1.125335,0.145917
150197158254517,1.120111,0.263094,-1.136783,0.389763
150197168255440,1.130112,0.041647,-0.984919,0.638887
150197178256601,1.140113,-0.356871,-0.802618,0.647858
150197188257604,1.150114,-0.497416,-1.015169,0.96619
150197198258522,1.160115,-0.173741,-0.792933,0.704163
150197208259436,1.170116,-0.061651,-1.1535,0.666029
150197218260588,1.180117,-0.645982,-1.345192,0.714538
150197228261503,1.190118,-0.574183,-0.41288,0.045818
150197238262426,1.200119,0.293223,-0.227758,0.544854
150197248263429,1.210120,-0.05824,-0.470836,0.428745
150197258264354,1.220121,-1.052927,-0.373038,0.021688
150197268265506,1.230122,-1.713853,-0.229631,-0.171748
150197278266440,1.240123,-1.211041,-0.468921,0.366652
150197288267457,1.250124,-0.01492,-0.45128,0.711231
150197298268382,1.260125,0.988117,-0.439255,0.858209
150197308269305,1.270126,1.206328,-0.084527,0.43421
150197318270228,1.280127,0.596655,-0.065001,0.132352
150197328271379,1.290128,-0.136588,-0.10947,0.008847
150197338272368,1.300129,-0.807333,0.004436,-0.088135
150197348273296,1.310130,-1.166637,0.127322,0.250097
150197358274238,1.320131,-1.268779,0.158561,0.648601
150197368275390,1.330132,-0.987942,0.219314,0.771431
150197378276402,1.340133,-0.440121,0.347791,0.63851
150197388277334,1.350134,-0.107181,0.360308,0.337402
150197398278257,1.360135,-0.089954,0.199444,0.136457
150197408279176,1.370136,0.043337,0.032933,0.004044
150197418280327,1.380137,0.120897,0.088456,0.011642
150197428281252,1.390138,0.290048,0.202655,0.028119
150197438282250,1.400139,0.263482,0.203466,0.031647
150197448283167,1.410140,0.132934,0.285604,0.008209
150197458284318,1.420141,0.051977,0.382431,0.014071
150197468285229,1.430142,0.062335,0.435504,0.006482
150197478286227,1.440143,0.265974,0.242725,0.307955
150197488287147,1.450144,0.765729,0.086993,0.84584
150197498288070,1.460145,1.20391,0.09553,1.196378
150197508289222,1.470146,1.236919,0.148132,1.066192
150197518290157,1.480147,0.874189,0.284718,0.731133
150197528291074,1.490148,0.482246,0.289617,0.6077
150197538291997,1.500149,0.097475,0.463744,0.508451
150197548292958,1.510150,-0.276573,0.506647,0.723218
150197558294112,1.520151,-0.452736,0.502722,0.990746
150197568295032,1.530152,-0.496546,0.398216,1.200311
150197578296015,1.540153,-0.606729,0.38404,1.125603
150197588296945,1.550154,-0.767115,0.324162,0.940194
150197598297868,1.560155,-0.692219,0.173234,0.896495
150197608299020,1.570156,-0.474237,0.154374,0.891355
150197618299940,1.580157,-0.398341,0.161849,0.979684
150197628300938,1.590158,-0.347289,0.209815,1.093868
150197663304320,1.625161,-0.088034,-0.437765,1.492528
150197673305477,1.635162,0.150143,-0.398535,1.419975
150197683306405,1.645163,0.008633,-0.385581,1.271424
150197693307330,1.655164,-0.038879,-0.295145,1.02465
150197703308335,1.665165,-0.098237,-0.040756,0.903344
150197713309258,1.675166,-0.401509,-0.042071,0.763382
150197723310416,1.685167,-0.53205,-0.25063,0.804269
150197733311429,1.695168,-0.563334,-0.397237,0.74491
150197743312375,1.705169,-0.564283,-0.360561,0.795617
150197753313314,1.715170,-0.176595,-0.321014,1.001021
150197763314463,1.725171,-0.025125,-0.168063,0.917603
150197773315384,1.735172,-0.113372,0.020615,0.610712
150197783316307,1.745173,-0.230209,0.088405,0.376533
150197793317312,1.755174,-0.41071,0.104364,0.264054
150197803318242,1.765175,-0.693808,0.070542,0.362091
150197813319380,1.775176,-0.718038,0.128728,0.721089
150197823320380,1.785177,-0.596492,0.231817,1.056426
150197833321309,1.795178,-0.214111,0.429533,1.088451
150197843322247,1.805179,-0.030999,0.38559,0.831647
150197853323389,1.815180,-0.065641,0.328653,0.433434
150197863324312,1.825181,-0.162732,0.364229,0.129781
150197873325312,1.835182,-0.369089,0.448332,-0.004039
150197883326244,1.845183,-0.366166,0.477107,0.138152
150197893327167,1.855184,-0.238994,0.500427,0.300272
150197903328321,1.865185,-0.11554,0.497994,0.437382
150197913329242,1.875186,0.059828,0.457449,0.549065
150197923330150,1.885187,0.41194,0.299788,0.395154
150197933331143,1.895188,0.730387,0.161681,0.261157
150197943332295,1.905189,1.011064,0.079713,0.268412
150197953333218,1.915190,1.25299,-0.029682,0.460498
150197963334136,1.925191,1.390232,-0.075409,0.618694
150197973335138,1.935192,1.35075,-0.168513,0.772518
150197983336299,1.945193,1.274512,-0.291157,0.806406
150197993337208,1.955194,1.144322,-0.483438,0.987011
150198003338141,1.965195,-0.290878,-0.878215,0.601917
150198013339044,1.975196,1.835958,-0.368456,1.200496
150198023340051,1.985197,1.972109,-0.309454,2.314699
150198033341189,1.995198,1.16412,-0.382944,2.248489
150198043342112,2.005199,0.751617,-0.347966,2.098326
150198053343034,2.015200,0.006752,-0.356554,1.921605
150198063344032,2.025201,-0.334893,-0.47792,1.820997
150198073344940,2.035202,0.070387,-0.175877,1.532631
150198083346087,2.045203,0.524721,-0.197658,1.72181
150198093347015,2.055204,0.814281,-0.601779,2.316456
150198103347948,2.065205,0.904192,-0.617047,2.311343
150198113348935,2.075206,1.150069,-0.856518,2.071308
150198123350082,2.085207,1.382635,-1.00444,1.798375
150198133350991,2.095208,1.398997,-1.012445,1.530095
150198143351914,2.105209,1.219437,-0.888453,1.314872
150198153352899,2.115210,0.590754,-0.921581,1.153556
150198163353825,2.125211,-0.385446,-1.127484,1.284063
150198173355005,2.135212,-0.946506,-0.768415,0.981018
150198183355915,2.145213,-1.230527,-0.326408,0.686107
150198193356830,2.155214,-1.484857,-0.403479,0.730876
150198203357825,2.165215,-1.168603,-0.698435,1.039837
150198213358777,2.175215,-0.738732,-0.836813,1.002106
150198223359929,2.185217,-0.259148,-0.994496,0.925032
150198233360923,2.195218,-0.387481,-1.106472,0.829366
150198243361858,2.205219,-0.67458,-1.133445,0.835536
150198253362786,2.215219,-0.726796,-1.218268,0.942999
150198263363709,2.225220,-0.72637,-1.260374,0.902752
150198273364853,2.235222,-0.420671,-1.303883,0.818133
150198283365774,2.245222,-0.459445,-1.224218,0.747941
150198293366790,2.255223,-0.686537,-1.09708,0.728777
150198303367704,2.265224,-1.134921,-0.879731,0.703095
150198313368866,2.275226,-1.344034,-0.634117,0.495939
150198323369866,2.285227,-1.08793,-0.544796,0.233842
150198333370781,2.295227,-1.011945,-0.408164,0.003916
150198343371676,2.305228,-1.001563,-0.397141,-0.21391
150198353372833,2.315230,-0.821233,-0.541212,-0.23037
150198363373756,2.325230,-0.389262,-0.713946,-0.169925
150198373374674,2.335231,-0.061177,-0.721945,-0.122509
150198383375674,2.345232,0.23773,-0.612345,-0.196243
150198393376575,2.355233,0.877074,-0.676829,-0.226396
150198403377736,2.365234,1.625216,-0.790187,-0.101982
150198413378649,2.375235,1.714023,-0.877216,-0.101805
150198423379562,2.385236,1.358241,-1.024744,0.014412
150198433380548,2.395237,0.586154,-0.970026,0.322925
150198443381464,2.405238,-0.012841,-0.86129,0.566627
150198453382601,2.415239,-0.018737,-0.856739,0.721348
150198463383524,2.425240,0.243821,-0.828259,0.720956
150198473384527,2.435241,0.541349,-0.676694,0.612963
150198483385459,2.445242,0.574949,-0.501555,0.459954
150198493386615,2.455243,0.617505,-0.46526,0.482384
150198503387539,2.465244,0.613381,-0.449094,0.629196
150198513388462,2.475245,0.603012,-0.495096,0.582984
150198523389385,2.485246,0.641183,-0.526986,0.592447
150198533390387,2.495247,0.481889,-0.489301,0.544786
150198543391539,2.505248,0.536855,-0.485649,0.461519
150198553392481,2.515249,0.773938,-0.462094,0.441106
150198563393399,2.525250,0.827076,-0.426518,0.401585
150198573394389,2.535251,0.898618,-0.540891,0.449834
150198583395315,2.545252,0.91223,-0.618588,0.29955
150198593396237,2.555253,0.863193,-0.592147,-0.029376
150198603397391,2.565254,0.845727,-0.55649,-0.306037
150198613398418,2.575255,-0.495773,-0.852308,-0.518835
150198623399358,2.585256,-0.344415,-0.63898,-1.004029
150198633400295,2.595257,0.057008,-0.411644,-0.451241
150198643401204,2.605258,0.615548,-0.534305,0.544629
150198653402362,2.615259,0.754773,-0.658233,0.819315
150198663403288,2.625260,0.875923,-0.774034,0.66927
150198673404307,2.635261,0.883946,-0.762545,0.269662
150198683405247,2.645262,1.098064,-0.772616,0.207836
150198693406413,2.655263,1.162739,-0.819551,0.245947
150198703407322,2.665264,0.891796,-0.886357,0.076223
150198713408245,2.675265,0.383294,-0.869791,-0.287131
150198723409254,2.685266,-0.283347,-0.703443,-0.574325
150198733410171,2.695267,-0.961472,-1.009713,-0.505551
150198743411089,2.705268,-0.87454,-0.214294,-1.226425
150198753412241,2.715269,-0.486127,-0.355449,-0.910096
150198763413189,2.725270,-0.447927,-0.571222,-0.85795
150198773414126,2.735271,-0.17778,-0.578863,-0.646032
150198783415030,2.745272,0.25672,-0.607096,-0.505086
150198793416037,2.755273,0.93093,-0.721335,-0.234636
150198803416964,2.765274,1.646962,-0.751575,0.090579
150198813418133,2.775275,2.206421,-0.807606,0.277399
150198823419054,2.785276,2.326159,-0.844016,0.186441
150198833420056,2.795277,1.976277,-0.887877,0.205575
150198843420979,2.805278,1.485779,-0.903952,0.246763
150198853421897,2.815279,0.931895,-0.917726,0.314742
150198863423049,2.825280,0.459299,-0.835067,0.313071
150198873423972,2.835281,0.22932,-0.717012,0.251952
150198883424905,2.845282,0.274004,-0.709935,0.332723
150198893425909,2.855283,0.13481,-0.788403,0.303664
150198903426834,2.865284,0.09632,-0.844144,0.429455
150198913427757,2.875284,0.086607,-0.857974,0.534012
150198923428686,2.885285,-0.003557,-0.86984,0.62989
150198933429830,2.895287,-0.228431,-0.884965,0.518357
150198943430737,2.905287,-0.401222,-0.915568,0.368231
150198953431737,2.915288,-0.597515,-0.904809,0.023303
150198963432667,2.925289,-0.782113,-0.98754,-0.243022
150198973433590,2.935290,-0.712727,-1.070251,-0.241253
150198983434737,2.945291,-0.495289,-1.324049,-0.040899
150198993435646,2.955292,-0.25504,-1.48135,0.156084
150199003436569,2.965293,0.27686,-1.492437,0.148767
150199013437578,2.975294,0.813573,-1.486195,0.01135
150199023438501,2.985295,1.325676,-1.479802,-0.121778
150199033439426,2.995296,1.07862,-1.327843,-0.252205
150199043440349,3.005297,0.797649,-1.234981,-0.18179
150199053441506,3.015298,0.362516,-1.312176,0.07534
150199063442429,3.025299,0.246221,-1.439371,0.39793
150199073443352,3.035300,0.452322,-1.443631,0.494255
150199083444368,3.045301,0.989323,-1.489195,0.492304
150199093445291,3.055302,1.167318,-1.484549,0.254625
150199103446214,3.065303,1.065331,-1.263317,-0.066595
150199113447360,3.075304,0.483434,-1.005832,-0.412601
150199123448298,3.085305,-0.231412,-0.999968,-0.362744
150199133449222,3.095306,-0.372223,-0.881826,-0.013639
150199143450140,3.105307,-0.055885,-0.909587,0.304587
150199153451142,3.115308,0.249011,-0.843071,0.29994
150199163452084,3.125309,0.608977,-0.750896,0.088755
150199173452997,3.135310,0.313953,-0.936063,0.144787
150199183454135,3.145311,0.701055,-0.888759,0.086836
150199193455063,3.155312,0.601974,-0.824449,0.172218
150199203455986,3.165313,0.07059,-0.997158,0.335788
150199213456904,3.175314,1.478526,-0.696023,0.335309
150199223457904,3.185315,2.645115,-0.847536,0.580573
150199233458829,3.195316,2.764969,-0.838073,0.213536
150199243459756,3.205316,2.255491,-0.887762,0.022922
150199253460665,3.215317,1.762872,-1.075827,0.190842
150199263461588,3.225318,1.682415,-1.044384,0.359711
150199273462742,3.235319,1.623443,-0.887842,0.305064
150199283463668,3.245320,1.447424,-0.922475,0.282391
150199293464592,3.255321,1.167515,-1.039418,0.332807
150199303465580,3.265322,0.849037,-0.935429,0.191895
150199313466508,3.275323,0.401072,-0.786867,-0.073427
150199323467431,3.285324,0.077639,-0.679661,-0.361672
150199333468349,3.295325,-0.161888,-0.614608,-0.636831
150199343469272,3.305326,-0.258541,-0.638293,-0.760962
150199353470434,3.315327,0.025187,-0.620248,-0.681634
150199363471356,3.325328,0.17941,-0.660471,-0.773038
150199373472352,3.335329,0.559387,-0.464759,-0.806631
150199383473281,3.345330,0.952437,-0.789119,-0.595003
150199393474202,3.355331,1.316179,-0.982433,-0.38252
150199403475142,3.365332,1.119578,-1.060474,-0.115159
150199413476055,3.375333,1.489423,-0.940831,-0.090326
150199423476992,3.385334,1.922847,-0.715121,0.12582
150199433478158,3.395335,1.678156,-1.066004,0.043602
150199443479081,3.405336,1.336758,-1.117324,0.026658
150199453480005,3.415337,0.951942,-0.983455,-0.101053
150199463480928,3.425338,0.621748,-1.102385,-0.010683
150199473481930,3.435339,0.346313,-1.060164,-0.102746
150199483482858,3.445340,0.17456,-0.831552,-0.30217
150199493483781,3.455340,-0.075412,-0.612673,-0.43956
150199503484689,3.465341,-0.455375,-0.483284,-0.505081
150199513485841,3.475343,-0.884619,-0.530663,-0.46201
150199523486779,3.485343,-0.977768,-0.469328,-0.485543
150199533487707,3.495344,-0.47403,-0.46793,-0.519098
150199543488630,3.505345,0.21536,-0.63313,-0.451983
150199553489558,3.515346,0.684597,-0.745639,-0.538529
150199563490557,3.525347,0.770202,-0.743901,-0.564615
150199573491454,3.535348,0.613092,-0.736104,-0.580905
150199583492381,3.545349,0.507896,-0.680436,-0.606594
150199593493292,3.555350,0.308116,-0.648797,-0.644566
150199603494215,3.565351,0.21527,-0.642902,-0.46875
150199613495138,3.575352,0.056613,-0.596528,-0.372372
150199623496061,3.585353,-0.120206,-0.713483,-0.369334
150199633497215,3.595354,0.00652,-0.749741,-0.410315
150199643498136,3.605355,0.401409,-0.559221,-0.594606
150199653499077,3.615356,0.417254,-0.388402,-0.709879
150199663499995,3.625357,0.170161,-0.403697,-0.541892
150199673500933,3.635358,-0.031713,-0.398015,-0.33454
150199683501949,3.645359,-0.015071,-0.306726,-0.260595
150199693502843,3.655360,-0.059269,-0.35236,-0.173616
150199703503748,3.665360,0.992096,-0.127243,-0.305202
150199713504902,3.675362,1.193471,-0.359819,-0.130009
150199723505595,3.685362,1.329299,-0.621562,-0.176593
150199733506731,3.695363,1.604374,-0.528641,-0.011362
150199743507655,3.705364,1.676132,-0.417421,0.072665
150199753508598,3.715365,1.563319,-0.511544,0.076997
150199763509525,3.725366,1.382665,-0.682047,0.212345
150199773510525,3.735367,1.14065,-0.652008,0.30449
150199783511426,3.745368,0.760262,-0.608144,0.180848
150199793512349,3.755369,0.454723,-0.609679,-0.043944
150199803513272,3.765370,0.028542,-0.465315,-0.28402
150199813514195,3.775371,-0.36223,-0.226029,-0.380799
150199823515118,3.785372,-0.503559,-0.191396,-0.387466
150199833516277,3.795373,-0.187585,-0.400001,-0.134972
150199843517198,3.805374,0.291575,-0.579256,0.008973
150199853518106,3.815375,0.307016,-0.687236,0.060991
150199863519044,3.825376,-0.034842,-0.772248,0.107143
150199873519982,3.835377,-0.018045,-0.684276,-0.155112
150199883520905,3.845378,-0.048692,-0.473752,-0.435454
150199893521823,3.855379,-0.319244,-0.526264,-0.817915
150199903522746,3.865379,-0.695591,-0.689045,-0.978257
150199913523744,3.875380,-0.930279,-0.873667,-0.724458
150199923524662,3.885381,-0.956471,-0.888605,-0.524627
150199933525589,3.895382,-0.611601,-0.887054,-0.370473
150199943526512,3.905383,-0.209514,-1.046142,-0.193219
150199953527454,3.915384,0.061118,-1.142597,-0.192376
150199963528396,3.925385,0.688141,-1.14144,-0.397057
150199973529329,3.935386,1.428463,-0.7248,-0.394226
150199983530481,3.945387,1.292285,-0.587267,-0.576682
150199993531395,3.955388,0.784356,-0.812378,-0.423206
150200003532314,3.965389,0.276247,-0.832507,-0.245302
150200013533237,3.975390,-0.111524,-0.790265,-0.053862
150200023534155,3.985391,-0.002436,-0.862558,0.112648
150200033535093,3.995392,0.132,-0.831415,0.139168
150200043536011,4.005393,0.339923,-0.50961,-0.31146
150200053537017,4.015394,0.451004,-0.408319,-0.599623
150200063537940,4.025395,0.303682,-0.45846,-0.665338
150200073538863,4.035396,0.535078,-0.543175,-0.597628
150200083539786,4.045396,0.496127,-0.393486,-0.575232
150200093540709,4.055397,0.568702,-0.356283,-0.492198
150200103541632,4.065398,0.857667,-0.539104,-0.183757
150200113542794,4.075399,0.920236,-0.348914,-0.118878
150200123543717,4.085400,1.007828,-0.10062,-0.190623
150200133544626,4.095401,0.941958,-0.121823,-0.246235
150200143545539,4.105402,0.670176,-0.250109,-0.224829
150200153546462,4.115403,0.425926,-0.127331,-0.283359
150200163547385,4.125404,0.239946,0.128495,-0.288893
150200173548308,4.135405,0.150873,0.068041,-0.269519
150200183549226,4.145406,0.338695,-0.137472,-0.127362
150200193550151,4.155407,0.59839,-0.196068,-0.042267
150200203551168,4.165408,0.866705,-0.081385,-0.180586
150200213552077,4.175409,0.922549,0.109281,-0.367762
150200223553021,4.185410,0.693552,0.128874,-0.382016
150200233553939,4.195411,0.416474,0.070422,-0.163108
150200243554868,4.205412,0.251915,0.117041,0.001876
150200253555815,4.215413,0.252552,0.040191,0.13379
150200263556723,4.225413,0.410946,0.031527,-0.004551
150200273557651,4.235414,0.432358,0.19768,-0.276903
150200283558574,4.245415,0.183443,0.234603,-0.458886
150200293559483,4.255416,0.019502,0.055137,-0.573998
150200303560406,4.265417,-0.100392,-0.133287,-0.522993
150200313561545,4.275418,0.063337,-0.274068,-0.475413
150200323562467,4.285419,0.349571,-0.356967,-0.46981
150200333563389,4.295420,0.585295,-0.455024,-0.508899
150200343564312,4.305421,0.564449,-0.436943,-0.680131
150200353565240,4.315422,0.190589,-0.208826,-0.902143
150200363566150,4.325423,-0.271751,-0.07644,-1.045428
150200373567073,4.335424,-0.641988,-0.086223,-1.003464
150200383567996,4.345425,-0.912434,-0.075901,-0.924151
150200393568919,4.355426,-0.777536,-0.054661,-0.753028
150200403569919,4.365427,-0.645009,-0.055417,-0.63384
150200413570848,4.375428,-0.644236,-0.135013,-0.581387
150200423571767,4.385428,-0.318444,-0.201222,-0.571026
150200433572704,4.395429,0.095294,-0.197992,-0.662876
150200443573622,4.405430,0.03071,-0.039738,-0.868038
150200453574526,4.415431,-0.11302,-0.118528,-0.864516
150200463575454,4.425432,-0.216224,-0.200899,-0.915646
150200473576378,4.435433,-0.296047,-0.162484,-1.020087
150200483577315,4.445434,-0.249763,-0.133137,-1.128667
150200493578238,4.455435,-0.011488,-0.06534,-1.153924
150200503579161,4.465436,-0.042604,-0.091976,-0.976105
150200513580084,4.475437,0.184049,-0.214904,-0.749692
150200523581007,4.485438,0.610932,-0.40448,-0.435733
150200533582161,4.495439,1.057296,-0.604558,-0.247232
150200543582853,4.505440,1.28568,-0.642027,-0.28282
150200553584005,4.515441,0.997306,-0.518859,-0.462795
150200563584914,4.525442,0.268759,-0.466207,-0.611687
150200573585837,4.535443,-0.658937,-0.444778,-0.684145
150200583586751,4.545443,-1.464284,-0.326159,-0.688192
150200593587684,4.555444,-1.676818,-0.278491,-0.576483
150200603588621,4.565445,-1.677207,-0.287438,-0.51095
150200613589544,4.575446,-1.642024,-0.172006,-0.65462
150200623590472,4.585447,-1.533348,-0.225948,-0.698293
150200633591404,4.595448,-1.33107,-0.369189,-0.827883
150200643592329,4.605449,-0.932031,-0.391423,-1.087818
150200653593256,4.615450,-0.624093,-0.504389,-1.07702
150200663594179,4.625451,-0.596897,-0.610306,-1.021634
150200673595181,4.635452,-0.411147,-0.647008,-0.811941
150200683596104,4.645453,-0.237415,-0.741205,-0.572454
150200693597036,4.655454,-0.023027,-0.786781,-0.394105
150200703597946,4.665455,0.18663,-0.832269,-0.359488
150200713598869,4.675456,0.282655,-0.859476,-0.525068
150200723599792,4.685456,0.360691,-0.772883,-0.777115
150200733600715,4.695457,0.034561,-0.60276,-1.013147
150200743601638,4.705458,-0.344077,-0.47053,-1.070721
150200753602561,4.715459,-0.742957,-0.350536,-1.008158
150200763603469,4.725460,-0.957195,-0.435443,-0.771833
150200773604373,4.735461,-0.582799,-0.50919,-0.51625
150200783605525,4.745462,-0.138443,-0.451426,-0.523635
150200793606214,4.755463,0.289942,-0.520611,-0.525634
150200803607371,4.765464,0.54747,-0.49766,-0.518422
150200813608066,4.775465,0.602128,-0.477885,-0.493784
150200823609222,4.785466,0.439832,-0.322237,-0.648186
150200833610155,4.795467,-0.032595,-0.262508,-0.578012
150200843611083,4.805468,-0.48003,-0.207257,-0.399962
150200853612006,4.815469,-0.421365,-0.207026,-0.125415
150200863612919,4.825470,-0.132623,-0.243198,-0.080364
150200873613856,4.835471,0.26266,-0.211179,-0.278127
150200883614842,4.845472,0.437491,-0.14089,-0.498478
150200893615690,4.855472,0.210064,-0.047279,-0.59769
150200903616693,4.865473,-0.134273,0.15592,-0.574905
150200913617616,4.875474,-0.521415,0.289438,-0.442649
150200923618468,4.885475,-0.461556,0.268809,-0.287965
150200933619468,4.895476,-0.167063,0.053266,-0.050877
150200943620407,4.905477,0.336562,0.037434,-0.039195
150200953621335,4.915478,0.911102,-0.008597,-0.103554
150200963622258,4.925479,1.060807,-0.097649,-0.243381
150200973623171,4.935480,0.794261,-0.033871,-0.379891
150200983624094,4.945481,0.304397,0.053249,-0.451106
150200993625012,4.955482,0.094071,0.014421,-0.499522
150201003625915,4.965483,0.041681,-0.090105,-0.425898
150201013626833,4.975484,0.079316,-0.268758,-0.248031
150201023627757,4.985484,0.406039,-0.312337,-0.111389
150201033628894,4.995486,0.616253,-0.15083,-0.214195
150201043629803,5.005486,0.446362,-0.014133,-0.309178
150201053630741,5.015487,0.211052,0.056101,-0.290031
150201063631664,5.025488,0.091046,-0.003687,-0.11187
150201073632597,5.035489,-0.049413,0.02685,-0.106542
150201083633515,5.045490,-0.080512,-0.068275,-0.017496
150201093634433,5.055491,0.085567,-0.283045,0.200052
150201103635365,5.065492,-0.025321,-0.364728,0.14969
150201113636274,5.075493,-0.02031,-0.327817,0.131782
150201123637197,5.085494,0.006543,-0.234274,-0.113295
150201133638134,5.095495,-0.314505,-0.140331,-0.36184
150201143639057,5.105496,-0.661818,-0.040438,-0.434672
150201153640053,5.115497,-1.055157,0.048795,-0.466576
150201163640978,5.125498,-1.11197,-0.036061,-0.423736
150201173641912,5.135499,-0.795714,-0.355757,-0.341201
150201183642835,5.145500,-0.233067,-0.630383,-0.322243
150201193643763,5.155500,0.40608,-0.733888,-0.314792
150201203644700,5.165501,0.843785,-0.700066,-0.231534
150201213645623,5.175502,0.890198,-0.632326,-0.15389
150201223646561,5.185503,0.793705,-0.514912,-0.128487
150201233647484,5.195504,0.25124,-0.393723,-0.133761
150201243648626,5.205505,-0.274918,-0.35254,-0.186503
150201253649563,5.215506,-0.646143,-0.255068,-0.35806
150201263650491,5.225507,-0.794678,-0.083377,-0.420039
150201273651404,5.235508,-0.74015,0.08917,-0.43642
150201283652343,5.245509,-0.760081,0.119833,-0.456676
150201293653357,5.255510,-0.565452,0.073716,-0.304935
150201303654191,5.265511,-0.126238,0.10163,-0.147651
150201313655131,5.275512,0.297276,0.1177,-0.104272
150201323656128,5.285513,0.729884,-0.194709,0.17471
150201333657056,5.295514,1.034914,-0.522459,0.316941
150201343657894,5.305515,1.317254,-0.6497,0.338529
150201353658880,5.315516,1.352055,-0.367071,0.062008
150201363659805,5.325516,0.729377,-0.030901,-0.316057
150201373660728,5.335517,-0.315508,0.201659,-0.499626
150201383661666,5.345518,-1.125485,0.294809,-0.593699
150201393662603,5.355519,-1.692849,0.255208,-0.706654
150201403663526,5.365520,-1.325337,0.016492,-0.523018
150201413664449,5.375521,-0.742846,-0.174441,-0.391917
150201423665587,5.385522,-0.08781,-0.186555,-0.456331
150201433666496,5.395523,0.378101,-0.007658,-0.694932
150201443667414,5.405524,0.08996,0.286979,-1.140417
150201453668322,5.415525,-0.578456,0.43274,-1.406551
150201463669231,5.425526,-0.939507,0.257701,-1.25131
150201473670149,5.435527,-0.857473,-0.257033,-0.60184
150201483671072,5.445528,-0.371572,-0.594348,-0.034492
150201493671986,5.455529,0.26086,-0.655107,0.238621
150201503672927,5.465530,1.139036,-0.753006,0.237106
150201513673926,5.475531,1.64549,-0.68934,-0.001067
150201523674849,5.485532,1.351968,-0.420854,-0.334258
150201533675772,5.495532,0.20986,-0.16231,-0.474831
150201543676695,5.505533,-0.916533,-0.158277,-0.335854
150201553677604,5.515534,-1.692717,-0.268001,0.013585
150201563678513,5.525535,-1.997166,-0.149804,0.207732
150201573679440,5.535536,-1.710538,0.003288,0.135997
150201583680363,5.545537,-1.038264,-0.047325,7.13E-4
150201593681291,5.555538,-0.532638,-0.335946,0.043697
150201603682242,5.565539,-0.005288,-0.415223,0.225055
150201613683166,5.575540,0.316951,-0.375228,0.357162
150201623684302,5.585541,-0.259376,-0.193485,0.162589
150201633685240,5.595542,-0.942191,-0.166956,-0.049571
150201643686164,5.605543,-1.400189,0.035434,-0.33316
150201653687096,5.615544,-1.513419,0.063447,-0.621679
150201663688010,5.625545,-1.526578,-0.582836,-0.367179
150201673688997,5.635546,-0.5062,-0.831872,-0.060028
150201683689841,5.645547,0.466662,-0.486613,-0.314431
150201693690857,5.655548,0.972528,-0.43817,-0.474273
150201703691719,5.665548,0.948682,-0.836096,-0.395931
150201713692698,5.675549,0.660612,-0.859932,-0.477229
150201723693623,5.685550,0.367565,-0.338493,-0.780315
150201733694546,5.695551,0.183714,-0.128625,-0.866159
150201743695465,5.705552,-0.408911,-0.332716,-0.785052
150201753696388,5.715553,-0.194128,-0.441942,-0.447618
150201763697316,5.725554,0.007207,-0.398855,-0.170855
150201773698463,5.735555,0.767792,-0.295491,0.002536
150201783699372,5.745556,1.316143,-0.279595,0.145023
150201793700066,5.755557,1.621739,-0.106239,0.209878
150201803701208,5.765558,1.771954,0.117377,0.314762
150201813701902,5.775559,1.863435,-0.027713,0.55527
150201823703049,5.785560,1.875272,-0.377663,0.8756
150201833703758,5.795560,1.563429,-0.489291,0.949965
150201843704895,5.805562,1.431078,-0.508326,1.048713
150201853705833,5.815563,1.317276,-0.473379,1.041827
150201863706747,5.825563,0.962594,-0.319527,0.784536
150201873707675,5.835564,0.31502,-0.113342,0.445802
150201883708612,5.845565,-0.544695,0.164356,0.157407
150201893709537,5.855566,-1.163715,0.498983,-0.03512
150201903710458,5.865567,-1.737582,0.734427,-0.043778
150201913711383,5.875568,-1.820323,0.809065,0.044189
150201923712376,5.885569,-0.989187,0.628592,0.203924
150201933713301,5.895570,-0.199785,0.518212,0.175987
150201943714224,5.905571,0.751532,0.581681,0.062184
150201953715147,5.915572,1.276192,0.564025,-0.053711
150201963716089,5.925573,1.748262,0.41521,-0.107053
150201973717004,5.935574,1.808985,0.233252,-0.073174
150201983717927,5.945575,1.656579,0.268925,0.066259
150201993718845,5.955576,1.631351,0.189248,0.321848
150202003719772,5.965576,2.022174,-0.251173,0.603417
150202013720695,5.975577,2.636682,-0.737781,0.89868
150202023721609,5.985578,3.049578,-0.777244,0.873253
150202033722521,5.995579,3.286681,-0.5833,0.65014
150202043723670,6.005580,2.974715,-0.240157,0.275748
150202053724591,6.015581,1.800392,0.122002,-0.090595
150202063725500,6.025582,0.37852,0.252676,0.013964
150202073726423,6.035583,-0.951023,0.144798,0.318444
150202083727360,6.045584,-1.962971,0.075406,0.411055
150202093728284,6.055585,-1.863628,0.211261,0.18246
150202103729207,6.065586,-1.036019,0.2565,-0.196423
150202113730130,6.075587,-0.632854,0.057095,-0.246922
150202123731053,6.085588,-0.072094,-0.068646,-0.332948
150202133731957,6.095589,0.209354,-0.304019,-0.04476
150202143732947,6.105590,-0.718556,-0.468693,0.083732
150202153733877,6.115591,-0.99405,-0.239732,0.058718
150202163734803,6.125591,-1.413679,-0.252265,0.432575
150202173735707,6.135592,-0.717518,-0.085051,0.215051
150202183736553,6.145593,-0.092853,0.08468,-0.167631
150202193737550,6.155594,-0.980841,-0.465372,-0.354331
150202203738492,6.165595,-1.212915,-0.711038,-0.267479
150202213739417,6.175596,-1.020505,-0.963571,-0.05096
150202223740340,6.185597,-1.331021,-0.899792,-0.15616
150202233741258,6.195598,-2.124292,-0.189172,-0.63746
150202243742210,6.205599,-2.534725,0.005562,-1.17936
150202253743119,6.215600,-2.523369,0.168804,-1.374909
150202263744042,6.225601,-2.390634,0.14247,-0.873075
150202273744964,6.235602,-2.749012,-0.472701,-0.590543
150202283745887,6.245603,-1.592527,-0.547266,-0.095512
150202293746806,6.255603,-0.364785,-0.400358,0.484102
150202303747958,6.265605,0.649833,-0.253592,0.589596
150202313748895,6.275606,2.321634,-0.416568,0.522055
150202323749571,6.285606,4.285198,-0.398814,-0.406761
150202333750723,6.295607,1.851148,0.608213,-0.943182
150202343751660,6.305608,3.24465,0.28332,-0.486394
150202353752612,6.315609,2.445953,-0.428036,0.0937
150202363753311,6.325610,1.364265,-0.944952,0.72775
150202373754463,6.335611,0.548101,-0.892117,0.761561
150202383755371,6.345612,0.150845,-0.514643,0.334472
150202393756312,6.355613,-0.065322,-0.535601,0.253423
150202403757235,6.365614,-0.288891,-1.289924,0.297322
150202413758144,6.375615,-1.164971,-0.770132,-0.895576
150202423759068,6.385616,-1.474739,0.143497,-1.725641
150202433759991,6.395617,0.046494,0.717576,-1.612094
150202443760914,6.405618,0.383154,-0.009646,-0.658085
150202453761823,6.415619,-1.055184,0.142759,-0.984246
150202463762765,6.425619,-0.349207,-0.026864,-0.224478
150202473763702,6.435620,0.091717,-0.150419,0.13833
150202483764640,6.445621,-0.634077,-0.427635,0.172642
150202493765577,6.455622,-1.732135,-0.776696,0.199079
150202503766495,6.465623,-2.120766,-1.319649,-0.422379
150202513767418,6.475624,-1.9612,-1.667047,0.272118
150202523768342,6.485625,-1.434317,-1.232301,0.521008
150202533769251,6.495626,-1.613405,-0.70997,-0.695476
150202543770169,6.505627,-1.384753,-0.792899,-1.547971
150202553771166,6.515628,-1.470882,-1.08752,-1.166547
150202563771991,6.525629,-1.864831,-0.915661,-1.058607
150202573772916,6.535630,-2.492099,-0.478088,-0.683681
150202583773832,6.545631,-2.659376,-0.696538,0.094934
150202593774740,6.555631,-2.316925,-0.801392,0.509185
150202603775663,6.565632,-1.560895,-0.524797,0.059098
150202613776659,6.575633,-0.206642,-0.014045,-0.516843
150202623777582,6.585634,1.279751,-0.324859,-0.640733
150202633778431,6.595635,2.429343,-0.81989,-0.343374
150202643779352,6.605636,2.12317,-0.918294,-0.446202
150202653780275,6.615637,1.013282,-1.825376,-0.120093
150202663781169,6.625638,-0.68951,-1.050424,-0.880418
150202673782171,6.635639,-1.697098,0.183011,-1.408073
150202683783021,6.645640,-1.687708,0.0621,-0.805868
150202693783928,6.655641,-1.498688,-0.528107,-0.137323
150202703784846,6.665642,-1.101319,-0.561092,0.029375
150202713785774,6.675642,-0.502761,-0.506718,0.013422
150202723786704,6.685643,0.352137,-0.482306,-0.223846
150202733787631,6.695644,0.895232,-0.204659,-0.513365
150202743788540,6.705645,1.165709,0.268494,-0.816095
150202753789465,6.715646,1.014483,0.590721,-0.757843
150202763790405,6.725647,0.769664,0.41051,-0.308113
150202773791402,6.735648,0.51763,-0.025666,0.294515
150202783792246,6.745649,0.869344,-0.272178,0.660588
150202793793248,6.755650,1.366094,-0.255855,0.877177
150202803794094,6.765651,1.495197,0.083509,0.913176
150202813795015,6.775652,1.851338,0.370404,0.763273
150202823795939,6.785653,1.920674,0.041669,0.650227
150202833796968,6.795654,2.100367,0.085548,0.251997
150202843797891,6.805655,1.881787,-0.387889,0.227467
150202853798751,6.815655,1.3588,-0.437335,0.57815
150202863799688,6.825656,0.939594,0.302638,0.569552
150202873800616,6.835657,0.452198,1.420407,0.288884
150202883801520,6.845658,-0.482585,2.19092,0.005087
150202893802520,6.855659,-1.381528,2.309549,-0.012198
150202903803362,6.865660,-1.44453,2.033158,0.085575
150202913804285,6.875661,-0.3431,1.364896,0.139232
150202923805209,6.885662,1.558242,-0.298349,1.110546
150202933806134,6.895663,3.473348,-0.579174,0.983707
150202943807059,6.905664,4.854333,-0.093653,0.579644
150202953807987,6.915665,4.660877,0.648262,-0.185952
150202963808910,6.925666,3.167217,0.905209,-0.157805
150202973809833,6.935667,1.565182,0.811542,-0.080711
150202983810756,6.945667,0.304378,0.164159,0.431643
150202993811679,6.955668,-0.449597,-0.239597,0.469128
150203003812587,6.965669,-0.015066,0.087636,0.29847
150203013813510,6.975670,0.843522,0.580282,0.072763
150203023814420,6.985671,1.110252,0.669768,-0.225735
150203033815348,6.995672,0.721676,0.088301,-0.16818
150203043816271,7.005673,-0.005814,-0.699184,0.149882
150203053817193,7.015674,0.098509,-1.063742,0.347245
150203063818131,7.025675,-0.003444,-1.023637,0.510409
150203073819054,7.035676,-0.364875,-0.842574,0.613148
150203083819995,7.045677,-0.913805,-0.811526,0.595429
150203093820918,7.055678,-1.891457,-0.67312,0.249008
150203103821855,7.065679,-2.629997,-0.360456,-0.547865
150203113822774,7.075679,-3.120696,-0.060738,-1.144941
150203123823698,7.085680,-3.630299,-0.042452,-1.472084
150203133824396,7.095681,-3.457987,-0.443798,-1.333162
150203143825548,7.105682,-2.075939,-1.353353,-0.427182
150203153826471,7.115683,-0.20162,-2.011241,0.405556
150203163827394,7.125684,1.340028,-2.144861,0.595028
150203173828086,7.135685,1.879129,-1.733148,0.330262
150203183829011,7.145686,1.398758,-0.849862,-0.361732
150203193829912,7.155687,0.206052,-0.273357,-0.774036
150203203830835,7.165688,-1.052525,-0.153268,-0.878258
150203213831748,7.175688,-1.694356,-0.133013,-0.876813
150203223832888,7.185690,-1.999434,0.041303,-0.719125
150203233833585,7.195690,-1.606128,-0.01374,-0.492859
150203243834522,7.205691,-0.357536,-0.301413,-0.419307
150203253835431,7.215692,1.487509,-0.876496,-0.232324
150203263836354,7.225693,3.300683,-1.471516,0.074398
150203273837277,7.235694,4.366337,-1.318028,0.36946
150203283838200,7.245695,4.427664,-0.518748,0.497491
150203293839124,7.255696,3.158772,-0.095873,0.697215
150203303840047,7.265697,1.977295,-0.347723,1.184405
150203313840970,7.275698,0.827089,-0.562221,1.28014
150203323841893,7.285699,0.377755,-0.288463,1.085604
150203333842816,7.295700,-0.620771,0.614112,0.138241
150203343843734,7.305700,-1.419075,1.741009,-1.12354
150203353844642,7.315701,-2.005624,2.061657,-1.776056
150203363845573,7.325702,-1.703354,1.090066,-1.60334
150203373846508,7.335703,-0.721274,-0.073291,-0.970577
150203383847664,7.345704,0.604858,-0.548278,-0.245238
150203393848357,7.355705,1.856173,-0.223149,0.006193
150203403849199,7.365706,2.04532,0.806857,-0.560231
150203413850200,7.375707,1.693599,1.437908,-1.598478
150203423851040,7.385708,0.183789,0.817679,-1.663501
150203433852042,7.395709,0.392582,-0.162969,-0.355375
150203443852886,7.405710,1.708038,-1.307321,0.29376
150203453853804,7.415710,2.520856,-2.239253,1.331126
150203463854727,7.425711,4.196121,-2.165104,1.792509
150203473855645,7.435712,4.968205,-1.405866,1.663129
150203483856583,7.445713,3.091854,-0.237764,0.867703
150203493857492,7.455714,1.044348,0.419751,0.289082
150203503858415,7.465715,-2.260557,-0.752609,0.131794
150203513859328,7.475716,-4.672964,-1.412777,0.342402
150203523860266,7.485717,-3.010908,-0.112527,-1.250146
150203533861189,7.495718,-2.804044,0.366789,-2.2384
150203543862117,7.505719,-2.835564,-0.204699,-2.042408
150203553863054,7.515720,-1.952558,0.182336,-2.26182
150203563863747,7.525720,-2.007664,-0.278427,-1.656566
150203573864900,7.535722,-1.937399,-1.207007,-0.579558
150203583865819,7.545723,-0.860025,-1.51873,0.718247
150203593866498,7.555723,-0.198165,-1.358415,1.612513
150203603867421,7.565724,0.293798,-0.731807,1.452633
150203613868344,7.575725,0.394386,0.048481,0.314798
150203623869267,7.585726,-0.012986,-0.185424,-0.524679
150203633870209,7.595727,-0.538268,-0.840659,-0.754082
150203643871137,7.605728,0.041803,-1.589974,-0.526178
150203653872045,7.615729,0.972723,-2.351594,0.318215
150203663872969,7.625730,1.452884,-2.383442,0.829564
150203673873813,7.635731,1.471477,-1.336476,0.216547
150203683874750,7.645731,1.363849,0.014808,-0.949924
150203693875738,7.655732,-0.133298,0.681875,-1.570373
150203703876584,7.665733,-1.296618,0.141529,-0.883612
150203713877507,7.675734,-1.833841,-0.907339,0.00752
150203723878502,7.685735,-1.165338,-0.932575,0.2585
150203733879334,7.695736,0.275538,-0.022241,-0.378809
150203743880266,7.705737,0.979522,1.077388,-1.178371
150203753881179,7.715738,0.567632,1.496619,-1.348681
150203763882112,7.725739,-0.462351,0.827353,-0.655132
150203773883030,7.735740,-0.453958,0.448301,0.011056
150203783883949,7.745741,0.383591,0.670745,0.209356
150203793884876,7.755742,1.135856,0.601281,0.427629
150203803885785,7.765742,1.536478,0.373962,0.681531
150203813886479,7.775743,2.54178,-0.138554,0.911997
150203823887402,7.785744,3.425244,-0.815595,1.217167
150203833888326,7.795745,4.092748,-1.130929,1.378427
150203843889493,7.805746,3.235268,-0.733309,1.000966
150203853890186,7.815747,2.141954,0.350668,-0.060919
150203863891109,7.825748,0.815212,1.266554,-1.038406
150203873892276,7.835749,-1.160593,1.364198,-1.321828
150203883892965,7.845750,-2.70572,1.061109,-1.119464
150203893893892,7.855751,-2.990115,0.311634,-0.314147
150203903894806,7.865751,-1.562797,-0.13155,0.25705
150203913895719,7.875752,0.142445,-0.409056,0.486042
150203923896566,7.885753,1.587382,-0.701172,0.574926
150203933897472,7.895754,2.375395,-0.570063,0.282831
150203943898469,7.905755,1.734057,-0.305688,-0.135483
150203953899313,7.915756,0.723046,-0.231256,-0.28437
150203963900245,7.925757,-0.481393,-0.215,-0.307912
150203973901154,7.935758,-1.515538,-0.222247,-0.505882
150203983902063,7.945759,-1.530968,-0.628762,-0.334964
150203993902971,7.955760,-0.749205,-1.007207,-0.269515
150204003903894,7.965761,-0.041166,-1.176335,-0.02222
150204013904812,7.975761,0.608319,-1.225739,0.117624
150204023905505,7.985762,0.969123,-1.015696,0.3004
150204033906659,7.995763,0.833869,-0.581966,0.077861
150204043907353,8.005764,0.147927,-0.682932,0.250216
150204053908276,8.015765,-0.761887,-0.890401,0.578836
150204063909199,8.025766,-1.065942,-0.8992,0.644665
150204073910127,8.035767,-0.981553,-0.5864,0.466754
150204083911064,8.045768,-1.181418,-0.29699,0.201856
150204093911919,8.055769,-1.359966,-0.308247,0.137437
150204103912931,8.065770,-1.031376,-0.332375,0.294333
150204113913854,8.075771,-1.712508,-0.383362,0.461447
150204123914693,8.085771,-1.160104,-0.44061,0.39125
150204133915693,8.095772,-1.923072,-0.54979,-0.46482
150204143916518,8.105773,-2.091908,-0.491323,-0.854778
150204153917452,8.115774,-1.483162,0.267202,-1.600821
150204163918389,8.125775,-0.428673,0.785837,-1.757702
150204173919336,8.135776,0.181917,0.002775,-0.919076
150204183920260,8.145777,0.207978,-0.813761,-0.134957
150204193920957,8.155778,0.132132,-1.036564,-0.065232
150204203921882,8.165779,0.448423,-1.050145,0.215194
150204213922800,8.175779,1.86306,-0.772718,-0.035349
150204223923738,8.185780,2.468397,-0.33235,-0.294012
150204233924646,8.195781,1.600429,-0.148339,-0.985629
150204243925569,8.205782,-0.196989,-0.936458,-0.421471
150204253926492,8.215783,-0.53433,-1.294933,0.256702
150204263927416,8.225784,0.264561,-0.776895,0.123878
150204273928253,8.235785,0.113887,-0.691847,-0.082227
150204283929176,8.245786,-0.169701,-0.488987,-0.12876
150204293930082,8.255787,0.604906,-0.224755,-0.373334
150204303931019,8.265788,1.867661,-0.439544,-0.10759
150204313931947,8.275789,2.607121,-0.587317,0.599986
150204323932884,8.285790,0.771188,-0.184722,0.493971
150204333933803,8.295790,-0.282072,0.404293,0.279923
150204343934474,8.305791,-1.407058,0.583687,-0.536169
150204353935611,8.315792,0.467041,0.98336,-0.540838
150204363936529,8.325793,0.71658,1.108616,0.243471
150204373937238,8.335794,0.633038,-0.094824,0.767803
150204383938165,8.345795,2.062748,-0.659608,1.373454
150204393939079,8.355796,3.312979,-1.054215,1.193789
150204403940016,8.365797,3.280673,-1.158674,0.612491
150204413940942,8.375798,3.033064,-0.916368,0.557865
150204423941881,8.385799,2.162109,-0.344403,0.477797
150204433942726,8.395799,0.317851,0.249848,0.395852
150204443943640,8.405800,-1.079032,0.286598,0.270956
150204453944592,8.415801,-2.169911,0.397449,0.392297
150204463945500,8.425802,-2.043512,0.08505,0.316509
150204473946423,8.435803,-1.077617,0.2849,0.100069
150204483947117,8.445804,-0.490339,0.502907,-0.27595
150204493948011,8.455805,0.200057,0.474174,-0.419628
150204503948935,8.465806,-0.147059,0.354898,-0.629216
150204513949873,8.475807,-0.453014,0.110414,-0.428669
150204523950805,8.485807,-0.318701,-0.093638,-0.016506
150204533951719,8.495808,0.078562,-0.157388,0.146416
150204543952545,8.505809,0.535487,-0.196168,0.645288
150204553953476,8.515810,0.183154,0.065238,0.368569
150204563954471,8.525811,0.219312,-0.265942,0.291879
150204573955312,8.535812,0.877778,-0.336471,0.069368
150204583956231,8.545813,1.047419,-1.218262,0.261111
150204593957155,8.555814,0.463657,-1.392386,0.018159
150204603957829,8.565815,-0.535988,-0.748098,-0.35573
150204613958981,8.575816,-1.115105,-0.410787,-0.380238
150204623959691,8.585816,-1.775668,-0.435079,-0.633408
150204633960585,8.595817,-1.837858,-0.277602,-0.953001
150204643961508,8.605818,-2.386656,-0.170755,-1.189862
150204653962421,8.615819,-2.198316,-0.17032,-1.087683
150204663963268,8.625820,-1.364409,-0.090917,-0.73596
150204673964266,8.635821,0.047629,-0.350924,-0.245581
150204683965112,8.645822,0.932158,-0.638881,0.30077
150204693966035,8.655823,1.990845,-0.084677,0.399689
150204703966958,8.665824,1.904237,-1.47889,1.162557
150204713967666,8.675824,1.691312,-1.841346,1.48936
150204723968580,8.685825,1.313628,-1.333492,1.151124
150204733969489,8.695826,0.050842,-1.10581,0.546988
150204743970412,8.705827,-1.277098,-0.39576,-0.433391
150204753971330,8.715828,-2.096286,-0.218482,-0.858399
150204763972244,8.725829,-2.774476,-0.131958,-0.75933
150204773973150,8.735830,-2.801912,-0.071174,-0.980501
150204783974013,8.745831,-2.208509,-0.269597,-0.709974
150204793974934,8.755832,-1.099375,0.461504,-1.029379
150204803975857,8.765833,-0.175911,0.072042,-0.84372
150204813976799,8.775833,0.783575,-0.3303,-0.644822
150204823977502,8.785834,1.142476,-0.132873,-0.552402
150204833978656,8.795835,0.557942,0.812582,-0.695915
150204843979350,8.805836,-0.309465,0.242151,-0.101026
150204853980263,8.815837,-0.269882,-0.078503,0.242655
150204863981186,8.825838,0.459723,-1.316619,0.743653
150204873982039,8.835839,1.916602,-1.163343,0.903816
150204883982962,8.845840,2.957294,-1.127017,0.684918
150204893983886,8.855841,2.594083,-1.128236,0.458488
150204903984800,8.865841,1.825704,-1.138719,0.304608
150204913985713,8.875842,0.560516,-0.746877,-0.020053
150204923986410,8.885843,-0.688752,-0.168483,-0.692767
150204933987335,8.895844,-1.609836,0.18221,-0.969229
150204943988263,8.905845,-2.250331,0.569006,-1.118813
150204953989186,8.915846,-1.866658,0.192134,-0.601899
150204963990104,8.925847,-1.237468,-0.142895,-0.159578
150204973990944,8.935848,-0.289201,0.092815,-0.208541
150204983991867,8.945849,0.467211,0.530024,-0.506106
150204993992795,8.955849,1.209195,0.58036,-0.689613
150205003993722,8.965850,1.343868,0.301425,-0.416807
150205013994443,8.975851,1.021914,0.004363,0.190833
150205023995378,8.985852,1.486112,-0.13264,0.81725
150205033996301,8.995853,1.566056,0.400746,0.748819
150205043997227,9.005854,1.553761,1.045728,0.487458
150205053998073,9.015855,1.465919,0.651928,0.254832
150205063998998,9.025856,1.871539,0.106942,0.224586
150205073999919,9.035857,2.16342,-0.125943,0.211518
150205084000856,9.045858,2.637258,-0.14971,0.478867
150205094001793,9.055858,2.543326,0.176921,0.283384
150205104002721,9.065859,2.125272,0.38052,-0.01856
150205114003438,9.075860,1.545952,0.455185,-0.214846
150205124004382,9.085861,0.96359,0.720479,-0.48656
150205134005296,9.095862,0.74234,0.903253,-0.36297
150205144006147,9.105863,0.663908,0.611082,-0.007436
150205154007087,9.115864,0.679533,0.133183,0.706417
150205164008010,9.125865,1.077567,-0.131958,1.195345
150205174008708,9.135865,1.341048,-0.373321,1.40432
150205184009605,9.145866,1.439756,-0.619212,1.362915
150205194010528,9.155867,0.935553,-0.783839,1.225961
150205204011455,9.165868,0.391323,-0.693295,1.059088
150205214012378,9.175869,-0.480808,-0.406532,0.577252
150205224013198,9.185870,-1.665897,0.255701,-0.211856
150205234014107,9.195871,-2.669944,0.943875,-1.182763
150205244015044,9.205872,-3.270634,0.897943,-1.696997
150205254015953,9.215873,-3.054257,0.980662,-1.517286
150205264016646,9.225873,-1.530854,0.261767,-0.69884
150205274017580,9.235874,0.326991,-0.530567,0.498842
150205284018503,9.245875,2.797121,-0.568083,1.094108
150205294019323,9.255876,4.612619,-0.700445,1.351376
150205304020237,9.265877,5.265301,-0.893153,1.148785
150205314021174,9.275878,4.718063,-1.203411,1.352925
150205324022082,9.285879,3.653575,-1.082818,2.002221
150205334022751,9.295879,2.354991,-0.516296,2.196725
150205344023666,9.305880,1.276894,-0.204151,2.067061
150205354024589,9.315881,0.639909,0.047839,1.514451
150205364025493,9.325882,0.24607,0.311951,0.689242
150205374026339,9.335883,-0.226485,0.736564,-0.122135
150205384027260,9.345884,-1.033556,1.105544,-0.540887
150205394028178,9.355885,-1.495717,1.405192,-0.554791
150205404028880,9.365886,-1.622509,1.601999,-0.29769
150205414029820,9.375887,-0.498093,1.289515,0.406984
150205424030741,9.385887,1.086724,0.522839,1.244342
150205434031666,9.395888,2.467383,0.01994,1.722637
150205444032505,9.405889,3.499804,0.023029,1.711258
150205454033418,9.415890,3.633616,-0.060621,1.387657
150205464034123,9.425891,2.768984,-0.255712,1.00629
150205474035046,9.435892,1.404957,-0.244403,0.644129
150205484035974,9.445893,0.350623,-0.009981,0.160143
150205494036911,9.455894,-0.217583,-0.024059,-0.095758
150205504037844,9.465895,-0.887063,-0.031087,-0.312482
150205514038776,9.475895,-0.845166,0.029858,-0.102722
150205524039644,9.485896,-0.458289,-0.017573,0.129417
150205534040577,9.495897,-0.181445,-0.136975,0.19041
150205544041286,9.505898,-0.114002,-0.354055,0.333569
150205554042209,9.515899,0.236276,-0.587372,0.572059
150205564043135,9.525900,0.074446,-0.932339,0.847736
150205574043973,9.535901,0.183205,-1.200412,1.120925
150205584044880,9.545902,0.159761,-1.418599,1.29407
150205594045803,9.555902,-0.138562,-1.435177,1.330606
150205604046506,9.565903,-0.61843,-1.386151,0.985098
150205614047431,9.575904,-1.419862,-1.277469,0.498319
150205624048339,9.585905,-2.408588,-1.080594,0.091136
150205634049262,9.595906,-2.985684,-1.01358,-0.081961
150205644050106,9.605907,-3.158872,-0.987891,0.022763
150205654050795,9.615907,-3.0694,-1.046282,0.109801
150205664051690,9.625908,-2.968253,-1.097756,0.169193
150205674052613,9.635909,-2.549751,-1.062958,-0.018692
150205684053534,9.645910,-2.097248,-1.07874,-0.297191
150205694054441,9.655911,-1.691559,-1.220166,-0.420974
150205704055290,9.665912,-1.407857,-1.503593,-0.164478
150205714056213,9.675913,-0.862116,-1.740157,0.242078
150205724057136,9.685914,-0.479464,-1.760164,0.589896
150205734057826,9.695915,-0.249955,-1.506595,0.462121
150205744058749,9.705915,-0.252382,-1.345695,0.10527
150205754059593,9.715916,-0.485971,-1.239594,-0.206587
150205764060539,9.725917,-0.970867,-1.275418,-0.044293
150205774061448,9.735918,-0.913768,-1.200262,0.301147
150205784062376,9.745919,-0.589696,-1.093356,0.682012
150205794063068,9.755920,-0.376926,-0.914021,0.717465
150205804063907,9.765921,0.318524,-0.652194,0.618468
150205814064819,9.775922,0.412072,-0.415597,0.357275
150205824065742,9.785922,0.431581,-0.317461,0.324535
150205834066688,9.795923,0.389358,-0.110475,0.382878
150205844067386,9.805924,0.534527,-0.010976,0.58497
150205854068320,9.815925,0.796397,0.140757,0.708817
150205864069172,9.825926,1.28221,0.18576,0.970222
150205874070080,9.835927,1.813859,0.299257,1.036119
150205884070987,9.845928,2.346362,0.336967,0.988386
150205894071681,9.855928,2.578292,0.301698,0.979296
150205904072590,9.865929,2.678377,0.194241,1.104298
150205914073436,9.875930,2.647078,0.229161,1.147675
150205924074371,9.885931,2.467787,0.441854,0.9873
150205934075300,9.895932,2.087169,0.774797,0.779445
150205944076223,9.905933,1.719861,0.909249,0.669558
150205954076900,9.915934,1.486443,0.972291,0.66704
150205964077825,9.925935,1.483413,1.094462,0.689869
150205974078669,9.935935,1.410694,1.326993,0.676017
150205984079602,9.945936,1.623441,1.376624,0.771409
150205994080545,9.955937,1.874983,1.130132,1.042667
150206004081230,9.965938,2.146326,0.86585,1.342209
150206014082137,9.975939,2.356685,0.633709,1.652671
150206024082967,9.985940,2.286152,0.388451,1.827042
150206034083890,9.995941,1.797147,0.231152,1.691966
150206044084594,10.005941,1.102843,0.255409,1.237087
150206054085517,10.015942,0.23586,0.303285,0.603899
150206064086440,10.025943,-0.501063,0.39142,0.041937
150206074087378,10.035944,-1.271615,0.442057,-0.407092
150206084088226,10.045945,-1.927896,0.475782,-0.514315
150206094089149,10.055946,-2.183356,0.535577,-0.286333
150206104089829,10.065947,-2.109267,0.550762,0.016228
150206114090762,10.075947,-1.798143,0.504064,0.126429
150206124091700,10.085948,-1.373807,0.419651,0.065105
150206134092558,10.095949,-0.819723,0.314922,0.03406
150206144093481,10.105950,-0.739211,0.040192,0.221837
150206154094173,10.115951,-0.608855,-0.339144,0.615604
150206164095098,10.125952,-0.385034,-0.652708,1.083128
150206174096007,10.135953,0.227308,-0.832805,1.482816
150206184096847,10.145954,1.015483,-1.144522,1.790803
150206194097779,10.155954,1.570427,-1.489779,1.887075
150206204098478,10.165955,1.614333,-1.7021,1.826802
150206214099396,10.175956,1.201073,-1.735202,1.638306
150206224100245,10.185957,0.086053,-1.581611,1.36618
150206234101178,10.195958,-1.061894,-1.35732,1.055801
150206244101866,10.205959,-2.171135,-1.142646,0.826945
150206254102777,10.215959,-3.419951,-0.783156,0.482837
150206264103690,10.225960,-4.017476,-0.501556,0.042696
150206274104534,10.235961,-3.963616,-0.277483,-0.329972
150206284105457,10.245962,-3.568106,-0.175912,-0.349446
150206294106141,10.255963,-2.719971,-0.275585,-0.053723
150206304107066,10.265964,-1.885943,-0.449051,0.323439
150206314107901,10.275965,-0.910054,-0.369072,0.307115
150206324108833,10.285966,-0.192397,-0.311594,0.037635
150206334109751,10.295966,0.15044,-0.484276,-0.020111
150206344110434,10.305967,0.192505,-0.839745,0.123832
150206354111364,10.315968,0.400009,-0.917722,0.226814
150206364112213,10.325969,0.293818,-0.658544,0.14642
150206374113127,10.335970,0.134323,-0.472154,-0.008204
150206384113819,10.345971,0.143686,-0.627365,-0.060117
150206394114744,10.355971,0.236363,-0.793366,-0.062344
150206404115599,10.365972,0.450421,-0.795086,-0.058811
150206414116511,10.375973,0.714985,-0.769304,0.022581
150206424117203,10.385974,0.605008,-0.589654,0.015433
150206434118138,10.395975,0.364777,-0.25436,-0.122997
150206444119056,10.405976,-0.128943,0.095685,-0.239954
150206454119900,10.415977,-0.78735,0.364116,-0.136773
150206464120593,10.425977,-0.878639,0.309861,0.225165
150206474121518,10.435978,-0.252736,0.363341,0.631648
150206484122451,10.445979,0.847831,0.405961,0.831867
150206494123295,10.455980,1.90185,0.271613,0.968775
150206504124222,10.465981,2.488516,0.36403,0.955452
150206514124910,10.475982,2.607642,0.474066,0.984521
150206524125835,10.485983,2.197536,0.489155,1.272016
150206534126665,10.495983,1.939513,0.455178,1.548279
150206544127578,10.505984,1.895905,0.421275,1.522131
150206554128270,10.515985,1.90855,0.599545,1.126029
150206564129137,10.525986,1.770057,0.868077,0.461742
150206574130053,10.535987,1.542338,1.247806,-0.214978
150206584130966,10.545988,1.340856,1.497463,-0.506304
150206594131674,10.555988,1.092373,1.370616,-0.092164
150206604132628,10.565989,1.403736,1.299977,0.49483
150206614133488,10.575990,2.201858,1.34459,0.72014
150206624134185,10.585991,2.744214,1.362685,0.66268
150206634135108,10.595992,3.043528,1.243214,0.540432
150206644135955,10.605993,3.087571,0.808756,0.664131
150206654136866,10.615994,3.08697,0.222649,0.999639
150206664137780,10.625994,3.117116,-0.037635,1.144041
150206674138474,10.635995,2.767022,-0.130038,0.983388
150206684139315,10.645996,1.833277,0.058388,0.693254
150206694140236,10.655997,0.590738,0.075588,0.631723
150206704141160,10.665998,-0.517268,-0.09433,0.544738
150206714141867,10.675999,-1.583179,-0.490381,0.593966
150206724142797,10.685999,-2.241365,-0.713451,0.611667
150206734143626,10.696000,-2.507246,-0.790783,0.59154
150206744144312,10.706001,-2.53822,-0.754217,0.331139
150206754145239,10.716002,-2.758136,-0.70014,0.065748
150206764146085,10.726003,-3.166226,-0.76386,-0.09658
150206774146982,10.736004,-3.509568,-0.754261,-0.102647
150206784147652,10.746004,-3.424713,-0.87816,-0.079387
150206794148575,10.756005,-3.109934,-1.081368,0.177113
150206804149420,10.766006,-2.320528,-1.204773,0.505423
150206814150358,10.776007,-1.385219,-1.309569,0.819937
150206824151281,10.786008,-0.593859,-1.27255,0.936865
150206834151977,10.796009,-0.50488,-1.331563,0.822079
150206844152833,10.806010,-0.59114,-1.340084,0.692804
150206854153756,10.816010,-0.937097,-1.386753,0.631921
150206864154454,10.826011,-1.240309,-1.292996,0.700373
150206874155386,10.836012,-1.321884,-1.151953,0.636603
150206884156222,10.846013,-1.208791,-1.185899,0.493505
150206894157140,10.856014,-0.865788,-1.131352,0.37576
150206904157841,10.866015,-0.657212,-1.141175,0.270567
150206914158690,10.876015,-0.506539,-1.019214,0.03869
150206924159392,10.886016,-0.562981,-0.867923,-0.040597
150206934160315,10.896017,-0.841305,-0.686967,-0.005421
150206944161233,10.906018,-0.802683,-0.493974,0.225181
150206954162079,10.916019,-0.699382,-0.390047,0.342705
150206964162995,10.926020,-0.644499,-0.358831,0.361334
150206974163688,10.936020,-0.509079,-0.214781,0.206949
150206984164618,10.946021,-0.429958,-0.233415,0.121569
150206994165438,10.956022,-0.525494,-0.292917,0.27583
150207004166137,10.966023,-0.305534,-0.355972,0.562567
150207014167050,10.976024,-0.035717,-0.359924,0.707034
150207024167900,10.986025,0.128245,-0.344512,0.555849
150207034168832,10.996026,0.115478,-0.265618,0.140726
150207044169524,11.006026,-0.178741,-0.226607,-0.21883
150207054170397,11.016027,-0.53635,-0.230158,-0.388449
150207064171309,11.026028,-0.633321,-0.153155,-0.268848
150207074171982,11.036029,-0.607391,-0.048465,-0.205562
150207084172907,11.046030,-0.54305,0.002218,-0.16183
150207094173763,11.056030,-0.081654,0.033389,-0.041002
150207104174684,11.066031,0.209667,0.01166,0.13313
150207114175362,11.076032,0.506915,-0.003241,0.341361
150207124176210,11.086033,0.642086,0.011425,0.553931
150207134177127,11.096034,0.637549,0.230856,0.363126
150207144177819,11.106035,0.683295,0.446607,0.037487
150207154178749,11.116035,0.656176,0.327625,-0.116924
150207164179614,11.126036,0.772991,9.75E-4,0.203439
150207174180535,11.136037,1.084244,-0.18861,0.720504
150207184181228,11.146038,1.500459,0.070272,0.974678
150207194182088,11.156039,1.793048,0.367613,0.875047
150207204183016,11.166040,1.744728,0.403637,0.53176
150207214183705,11.176040,1.504196,0.322106,0.307875
150207224184561,11.186041,1.244843,0.197688,0.359691
150207234185453,11.196042,1.074323,0.136446,0.556583
150207244186169,11.206043,1.053096,0.199811,0.697016
150207254187022,11.216044,1.08322,0.335704,0.592131
150207264187704,11.226044,1.075336,0.603883,0.301945
150207274188622,11.236045,0.912414,0.81472,0.038169
150207284189570,11.246046,0.54239,0.812612,0.121011
150207294190424,11.256047,0.318765,0.741005,0.336184
150207304191352,11.266048,0.301917,0.75789,0.444849
150207314191983,11.276049,0.482645,0.828144,0.354212
150207324192901,11.286050,0.697109,0.884175,0.190775
150207334193585,11.296050,0.754598,0.887134,0.004534
150207344194508,11.306051,0.783121,1.029027,-0.209931
150207354195429,11.316052,0.546343,0.96694,-0.162147
150207364196265,11.326053,0.433245,0.212852,0.476246
150207374196957,11.336054,0.613273,-0.136665,1.055201
150207384197881,11.346055,0.935131,0.152766,0.959276
150207394198717,11.356055,1.299947,0.114396,0.680209
150207404199419,11.366056,1.046588,-0.181881,0.402434
150207414200252,11.376057,0.776348,-0.701092,0.532346
150207424201180,11.386058,0.743559,-0.9774,0.777028
150207434201864,11.396059,0.765689,-1.055312,0.863507
150207444202801,11.406059,0.488727,-1.04773,0.867502
150207454203650,11.416060,0.005167,-0.853653,0.697009
150207464204344,11.426061,-0.702351,-0.616568,0.37869
150207474205267,11.436062,-1.596592,-0.549653,0.089619
150207484206107,11.446063,-2.717806,-0.5826,-0.075859
150207494206806,11.456063,-3.184908,-0.704388,0.170468
150207504207738,11.466064,-2.985485,-0.869022,0.363982
150207514208577,11.476065,-2.272983,-0.88762,0.465085
150207524209279,11.486066,-1.387261,-0.761774,0.512239
150207534210191,11.496067,-1.137336,-0.649228,0.520764
150207544211034,11.506068,-0.814704,-0.673157,0.599556
150207554211972,11.516069,-0.692431,-0.798717,0.509677
150207564212673,11.526069,-0.434108,-0.900777,0.446831
150207574213519,11.536070,-0.159062,-0.985996,0.413456
150207584214214,11.546071,0.172225,-1.00271,0.315552
150207594215128,11.556072,0.474315,-0.848433,0.08053
150207604215969,11.566073,0.474104,-0.747725,-0.166463
150207614216685,11.576073,0.231384,-0.626118,-0.389514
150207624217507,11.586074,0.12364,-0.579542,-0.291715
150207634218414,11.596075,0.063629,-0.423787,-0.22415
150207644219097,11.606076,0.234871,-0.362739,-0.18611
150207654219954,11.616077,0.455987,-0.469351,-0.105449
150207664220871,11.626078,0.586303,-0.613455,0.115793
150207674221546,11.636078,0.816023,-0.473638,0.064134
150207684222402,11.646079,0.73774,-0.357978,-0.092221
150207694223308,11.656080,0.486471,-0.505891,0.032148
150207704224002,11.666081,0.274868,-0.609343,0.364084
150207714224863,11.676082,0.113016,-0.472901,0.48588
150207724225798,11.686082,-0.229749,-0.254064,0.29468
150207734226472,11.696083,-0.385439,-0.151278,-2.82E-4
150207744227315,11.706084,-0.621833,-0.190256,-0.062224
150207754227998,11.716085,-0.592238,-0.210128,-0.002198
150207764228930,11.726086,-0.271169,-0.269149,0.135914
150207774229772,11.736086,0.034314,-0.192031,0.141593
150207784230679,11.746087,0.314353,0.020518,0.031539
150207794231400,11.756088,0.336016,0.091802,-0.080872
150207804232241,11.766089,0.324045,0.024538,-0.150138
150207814232959,11.776090,0.244441,0.006886,-0.198845
150207824233878,11.786091,0.273499,0.104687,-0.206466
150207834234717,11.796091,0.452291,0.307327,-0.019622
150207844235421,11.806092,0.727327,0.309692,0.321065
150207854236262,11.816093,1.070511,0.221771,0.636145
150207864237188,11.826094,1.385713,0.1287,0.768329
150207874237881,11.836095,1.717279,0.207086,0.734016
150207884238712,11.846095,1.978752,0.176052,0.685067
150207894239635,11.856096,1.956037,0.097327,0.678526
150207904240327,11.866097,1.580617,0.120094,0.726562
150207914241168,11.876098,1.308313,0.115288,0.718053
150207924241879,11.886099,1.101553,0.205462,0.555806
150207934242792,11.896099,0.825804,0.318451,0.34436
150207944243631,11.906100,0.461551,0.485352,0.175484
150207954244325,11.916101,0.121081,0.624012,0.175025
150207964245239,11.926102,-0.097654,0.497459,0.277032
150207974246074,11.936103,0.016015,0.419556,0.459849
150207984246766,11.946103,0.198733,0.514263,0.391612
150207994247594,11.956104,0.357669,0.501209,0.292066
150208004248273,11.966105,0.314599,0.346127,0.272388
150208014249119,11.976106,0.279768,0.195956,0.44276
150208024250040,11.986107,0.207143,0.172424,0.791708
150208034250737,11.996107,0.435189,-0.053195,1.046558
150208044251570,12.006108,0.312594,-0.357087,1.120084
150208054252491,12.016109,0.358284,-0.549633,1.022026
150208064253184,12.026110,0.365464,-0.624211,0.753647
150208074254023,12.036111,-0.142272,-0.571711,0.397405
150208084254715,12.046111,-0.725034,-0.501961,0.278381
150208094255628,12.056112,-1.394083,-0.504269,0.042592
150208104256473,12.066113,-1.871465,-0.497223,-0.186389
150208114257179,12.076114,-2.06572,-0.465985,-0.343468
150208124258040,12.086115,-2.039013,-0.31241,-0.480641
150208134258719,12.096115,-1.545776,-0.242354,-0.482862
150208144259552,12.106116,-1.007755,-0.326977,-0.410872
150208154260487,12.116117,-0.582178,-0.550514,-0.065273
150208164261186,12.126118,-0.04839,-0.829221,0.387784
150208174262047,12.136119,0.719279,-0.935704,0.613943
150208184262968,12.146120,1.058656,-0.969416,0.511181
150208194263661,12.156120,1.049764,-0.982992,0.24894
150208204264507,12.166121,0.604446,-0.858049,-0.116261
150208214265186,12.176122,-0.278975,-0.628901,-0.388404
150208224266042,12.186123,-0.606871,-0.441658,-0.362519
150208234266744,12.196123,-0.787174,-0.509058,-0.146939
150208244267672,12.206124,-0.352231,-0.530815,0.247735
150208254268526,12.216125,0.188,-0.522455,0.498131
150208264269478,12.226126,0.900869,-0.483874,0.466681
150208274270094,12.236127,1.0481,-0.377507,0.146889
150208284271021,12.246128,0.969253,-0.410747,-0.084238
150208294271713,12.256128,0.535214,-0.379947,-0.107673
150208304272651,12.266129,0.004253,-0.192783,-0.010561
150208314273497,12.276130,-0.318125,-0.222301,0.183927
150208324274189,12.286131,-0.176189,-0.24306,0.447431
150208334275045,12.296132,-0.14073,-0.190445,0.710626
150208344275737,12.306132,-0.231403,-0.121405,0.748295
150208354276583,12.316133,-0.097556,-0.178451,0.579502
150208364277282,12.326134,-0.082111,-0.250371,0.329136
150208374278206,12.336135,-0.290537,-0.203382,0.064147
150208384279064,12.346136,-0.76156,-0.142508,-0.078562
150208394279756,12.356136,-1.180681,-0.217275,-0.159137
150208404280602,12.366137,-1.26074,-0.331896,-0.252248
150208414281288,12.376138,-1.01128,-0.259439,-0.440301
150208424282138,12.386139,-0.616971,-0.250553,-0.60052
150208434283030,12.396140,-0.387887,-0.345062,-0.561013
150208444283717,12.406140,-0.129794,-0.472455,-0.355699
150208454284553,12.416141,0.195571,-0.439793,-0.314354
150208464285251,12.426142,0.222908,-0.320045,-0.32093
150208474286094,12.436143,0.091457,-0.30142,-0.229969
150208484286786,12.446143,-0.076164,-0.155721,-0.11335
150208494287637,12.456144,-0.04959,-0.037923,-0.017012
150208504288553,12.466145,0.062123,-0.189917,0.015184
150208514289246,12.476146,0.405119,-0.375123,0.066839
150208524290097,12.486147,0.791106,-0.415575,0.18615
150208534290786,12.496147,0.794414,-0.245361,0.257376
150208544291709,12.506148,0.700501,-0.076209,0.401916
150208554292554,12.516149,0.592086,-0.18623,0.418372
150208564293161,12.526150,0.567911,-0.289641,0.427434
150208574294077,12.536151,0.381495,-0.241891,0.253464
150208584294774,12.546151,-0.174036,-0.025372,-0.048411
150208594295621,12.556152,-0.479197,0.231983,-0.364867
150208604296310,12.566153,-0.731051,0.264259,-0.609145
150208614297156,12.576154,-0.675434,0.235736,-0.622971
150208624297848,12.586155,-0.588705,0.382573,-0.487926
150208634298686,12.596155,-0.30612,0.462411,-0.218405
150208644299598,12.606156,0.1014,0.412374,-0.056431
150208654300297,12.616157,0.513843,0.213329,0.12457
150208664301151,12.626158,1.043294,0.091496,0.315022
150208674301840,12.636159,1.339399,0.090804,0.518461
150208684302682,12.646159,1.393268,0.285995,0.530761
150208694303354,12.656160,1.101886,0.499196,0.333014
150208704304282,12.666161,0.805326,0.603514,0.112876
150208714305121,12.676162,0.588579,0.350872,0.244423
150208724305814,12.686163,0.580917,0.074501,0.493863
150208734306646,12.696163,0.791178,0.193883,0.526055
150208744307357,12.706164,0.957531,0.343822,0.293601
150208754308226,12.716165,0.927214,0.426212,-0.057703
150208764308919,12.726166,0.536886,0.294088,-0.237645
150208774309767,12.736166,0.235314,0.160854,-0.066471
150208784310459,12.746167,-0.096605,0.217572,0.150314
150208794311388,12.756168,-0.101181,0.203951,0.445871
150208804312242,12.766169,-0.053792,0.300116,0.619121
150208814312930,12.776170,0.192278,0.353501,0.535981
150208824313776,12.786170,0.161354,0.35511,0.357169
150208834314455,12.796171,-0.022488,0.185068,0.28547
150208844315300,12.806172,-0.102077,-0.089785,0.412755
150208854316004,12.816173,0.18818,-0.321766,0.5696
150208864316843,12.826174,0.291316,-0.597599,0.625534
150208874317537,12.836174,0.384586,-0.818773,0.70358
150208884318377,12.846175,-0.149364,-0.885724,0.509687
150208894319080,12.856176,-0.775081,-0.906308,0.340627
150208904319926,12.866177,-1.24399,-0.777345,-0.131497
150208914320843,12.876178,-1.552545,-0.656247,-0.551959
150208924321506,12.886178,-2.072105,-0.609721,-0.764731
150208934322340,12.896179,-2.345475,-0.608816,-0.768289
150208944323051,12.906180,-2.217004,-0.565397,-0.634871
150208954323900,12.916181,-1.536367,-0.596237,-0.544689
150208964324578,12.926181,-0.774124,-0.702233,-0.424092
150208974325416,12.936182,-0.335402,-0.79839,-0.446967
150208984326118,12.946183,0.112783,-1.038197,-0.433593
150208994327041,12.956184,0.466436,-1.32673,-0.360569
150209004327642,12.966184,0.802317,-1.407506,-0.227943
150209014328503,12.976185,0.919035,-1.259745,-0.171956
150209024329180,12.986186,0.468754,-1.022645,-0.214791
150209034330031,12.996187,-0.124718,-0.773316,-0.329945
150209044330952,13.006188,-0.610577,-0.527599,-0.469966
150209054331645,13.016188,-0.71069,-0.452238,-0.389775
150209064332486,13.026189,-0.615305,-0.504709,-0.060799
150209074333193,13.036190,-0.212101,-0.56204,0.415823
150209084334055,13.046191,0.425753,-0.476673,0.569378
150209094334760,13.056191,1.051378,-0.384408,0.401229
150209104335377,13.066192,1.165952,-0.347991,0.083663
150209114336300,13.076193,0.933616,-0.408657,-0.044193
150209124337132,13.086194,0.436477,-0.357887,-0.030163
150209134337833,13.096195,-0.130836,-0.196028,0.148809
150209144338694,13.106195,-0.29917,-0.030801,0.308217
150209154339396,13.116196,-0.340737,0.09868,0.24702
150209164340244,13.126197,-0.071764,0.272099,0.05894
150209174340951,13.136198,-0.050704,0.200365,0.020659
150209184341797,13.146198,0.11635,0.034446,0.156701
150209194342718,13.156199,0.086425,0.009848,0.260112
150209204343349,13.166200,0.194813,0.180291,0.193716
150209214344270,13.176201,0.344927,0.365271,0.045654
150209224344896,13.186202,0.154332,0.442733,0.00347
150209234345595,13.196202,0.261824,0.360275,-0.003511
150209244346445,13.206203,0.338389,0.318578,-0.022995
150209254347363,13.216204,0.460029,0.259717,-0.009733
150209264348026,13.226205,0.898906,0.125515,0.109176
150209274348857,13.236206,1.388379,0.008136,0.299745
150209284349564,13.246206,2.045548,0.08141,0.321969
150209294350177,13.256207,1.945411,0.198168,0.191227
150209304351032,13.266208,1.635124,0.128313,0.286223
150209314351948,13.276209,1.353266,-0.052784,0.51199
150209324352640,13.286209,0.816673,-0.136468,0.702445
150209334353477,13.296210,0.649158,-0.247221,0.775786
150209344354169,13.306211,0.313487,-0.245987,0.758922
150209354355010,13.316212,0.080189,-0.124646,0.417025
150209364355627,13.326212,-0.313615,0.013572,-0.001442
150209374356306,13.336213,-0.876189,0.060723,-0.321351
150209384357138,13.346214,-1.405635,0.161632,-0.41601
150209394358049,13.356215,-1.759825,0.097789,-0.295767
150209404358666,13.366215,-1.902122,-0.045763,-0.089316
150209414359588,13.376216,-1.467985,-0.083374,0.139903
150209424360285,13.386217,-0.843046,-0.081941,0.098521
150209434360916,13.396218,-0.257394,-0.107826,-0.150928
150209444361853,13.406219,-0.197349,-0.109087,-0.414041
150209454362469,13.416219,-0.02287,-0.060307,-0.430936
150209464363320,13.426220,-0.144935,-0.081508,-0.225014
150209474364012,13.436221,-0.164021,-0.188306,0.134807
150209484364849,13.446222,0.211505,-0.38158,0.571296
150209494365776,13.456222,0.569296,-0.517326,0.868989
150209504366398,13.466223,1.204648,-0.557497,0.736117
150209514367099,13.476224,1.668865,-0.529435,0.460016
150209524367951,13.486225,1.69909,-0.608385,0.191025
150209534368872,13.496226,1.636856,-0.719117,0.111336
150209544369503,13.506226,1.266492,-0.748513,0.174077
150209554370195,13.516227,1.096674,-0.494923,0.181731
150209564371052,13.526228,0.528458,-0.191603,0.060979
150209574371737,13.536228,0.180256,-0.016702,-0.090422
150209584372583,13.546229,-0.18641,0.041316,-0.182097
150209594373270,13.556230,-0.493643,0.21214,-0.073288
150209604374114,13.566231,-0.547944,0.361758,0.021406
150209614374792,13.576231,-0.529652,0.369471,0.091986
150209624375636,13.586232,-0.468462,0.273638,0.152392
150209634376328,13.596233,0.046947,0.158349,0.032848
150209644377170,13.606234,0.350483,0.045363,-0.017071
150209654377856,13.616235,0.480408,0.130462,-0.041288
150209664378702,13.626235,0.566167,0.184011,-0.063575
150209674379394,13.636236,0.35942,0.301756,-0.123059
150209684379998,13.646237,-0.13145,0.313352,-0.144047
150209694380844,13.656238,-0.433933,0.350038,-0.064428
150209704381752,13.666238,-0.170616,0.077454,0.148739
150209714382383,13.676239,0.203077,-0.095451,0.354219
150209724383087,13.686240,0.922293,-0.003886,0.277279
150209734383926,13.696241,1.186293,0.080934,0.05719
150209744384622,13.706241,1.209704,-0.096007,-0.081076
150209754385465,13.716242,0.996289,-0.219879,-0.131884
150209764386155,13.726243,0.609413,-0.303142,0.001838
150209774387003,13.736244,0.410048,-0.344905,0.273921
150209784387684,13.746244,0.528243,-0.328429,0.485548
150209794388540,13.756245,0.859442,-0.467856,0.809433
150209804389152,13.766246,0.946482,-0.591765,0.968178
150209814390061,13.776247,0.728185,-0.648361,0.804501
150209824390694,13.786247,0.34859,-0.60407,0.358673
150209834391611,13.796248,-0.151655,-0.377958,-0.16056
150209844392212,13.806249,-0.810794,-0.200747,-0.559726
150209854392906,13.816250,-1.269932,-0.096755,-0.724687
150209864393753,13.826250,-1.680258,-0.341582,-0.561751
150209874394443,13.836251,-1.726149,-0.337463,-0.369522
150209884395305,13.846252,-1.374087,-0.221187,-0.298048
150209894395968,13.856253,-0.827136,-0.164303,-0.291339
150209904396799,13.866253,-0.31106,-0.228086,-0.292509
150209914397505,13.876254,-0.167603,-0.306491,-0.314858
150209924398118,13.886255,0.014861,-0.425502,-0.160268
150209934399041,13.896256,0.215345,-0.460676,0.017511
150209944399657,13.906256,0.172956,-0.61456,0.262002
150209954400517,13.916257,0.360213,-0.587246,0.401419
150209964401214,13.926258,0.567137,-0.717734,0.507421
150209974402050,13.936259,0.933939,-0.7472,0.532699
150209984402751,13.946259,0.890832,-0.866516,0.561955
150209994403578,13.956260,0.693639,-0.898623,0.615956
150210004404270,13.966261,0.353912,-0.874423,0.60395
150210014405121,13.976262,-0.350237,-0.759939,0.456649
150210024405739,13.986262,-0.842035,-0.705947,0.391869
150210034406431,13.996263,-1.040101,-0.479061,0.249487
150210044407261,14.006264,-1.231244,-0.198705,0.015083
150210054407949,14.016265,-1.302874,0.002475,-0.18759
150210064408809,14.026265,-1.474968,0.079824,-0.293289
150210074409508,14.036266,-1.281869,-0.159835,3.2E-4
150210084410110,14.046267,-0.76493,-0.446329,0.436883
150210094410970,14.056268,-0.3097,-0.586783,0.739231
150210104411667,14.066268,0.301779,-0.537179,0.626536
150210114412511,14.076269,0.550576,-0.352824,0.276869
150210124413204,14.086270,0.357289,-0.221099,-0.106368
150210134414037,14.096271,-0.122733,-0.237694,-0.280561
150210144414727,14.106271,-0.47107,-0.304867,-0.208915
150210154415583,14.116272,-0.373267,-0.39187,0.104237
150210164416281,14.126273,0.029422,-0.35381,0.334305
150210174417131,14.136274,0.437081,-0.133517,0.264838
150210184417738,14.146274,0.994259,0.073505,0.062413
150210194418431,14.156275,0.949007,0.203544,-0.252366
150210204419277,14.166276,0.794326,0.352551,-0.365052
150210214419892,14.176277,0.571425,0.417344,-0.178632
150210224420575,14.186277,0.582754,0.398167,0.268722
150210234421407,14.196278,0.588994,0.50031,0.478389
150210244422097,14.206279,0.751274,0.636912,0.468038
150210254422964,14.216280,1.051897,0.664991,0.27246
150210264423660,14.226280,1.092817,0.737804,0.013899
150210274424506,14.236281,0.90196,0.857497,-0.023207
150210284425193,14.246282,0.685837,0.81461,0.126672
150210294426029,14.256283,0.600914,0.769777,0.315844
150210304426671,14.266283,0.450729,0.725053,0.457249
150210314427368,14.276284,0.478711,0.627832,0.486497
150210324428217,14.286285,0.230245,0.609005,0.120373
150210334428904,14.296286,0.188834,0.627161,-0.456158
150210344429513,14.306286,-0.190724,0.666771,-0.971595
150210354430374,14.316287,-0.731477,0.376648,-0.825138
150210364431076,14.326288,-1.029223,0.149626,-0.290215
150210374431921,14.336289,-0.776045,0.259942,0.111643
150210384432613,14.346289,-0.773945,0.627228,0.04716
150210394433258,14.356290,-0.957705,0.761656,-0.332344
150210404434181,14.366291,-1.253463,0.557853,-0.710702
150210414435041,14.376292,-1.714731,0.032193,-0.532934
150210424435662,14.386292,-1.576494,-0.649393,0.136788
150210434436354,14.396293,-0.865159,-0.903605,0.733508
150210444436956,14.406294,-0.325893,-0.736801,0.750062
150210454437802,14.416294,-0.137693,-0.838175,0.362887
150210464438503,14.426295,-0.725931,-0.960698,-0.260094
150210474439333,14.436296,-1.330999,-1.24982,-0.432448
150210484440026,14.446297,-1.645192,-1.486228,-0.624495
150210494440857,14.456298,-1.927517,-1.95501,-0.513352
150210504441470,14.466298,-1.820132,-2.249026,-0.155629
150210514442167,14.476299,-1.375088,-2.318805,0.392496
150210524443021,14.486300,-1.24895,-2.328466,0.404385
150210534443709,14.496300,-1.225673,-2.219688,0.009735
150210544444558,14.506301,-1.668271,-2.071855,-0.45439
150210554445256,14.516302,-2.39614,-1.826846,-0.88774
150210564445858,14.526303,-3.053267,-1.80311,-1.22196
150210574446707,14.536303,-3.58141,-1.698672,-1.337862
150210584447316,14.546304,-3.523281,-1.477402,-1.331868
150210594447989,14.556305,-3.007723,-1.435848,-0.974229
150210604448833,14.566306,-2.00229,-1.148468,-0.733065
150210614449528,14.576306,-1.128565,-0.779139,-0.809302
150210624450367,14.586307,-0.350582,-0.307106,-1.083737
150210634451059,14.596308,0.14528,-0.017213,-0.939109
150210644451667,14.606308,0.86941,-0.46318,-0.181673
150210654452532,14.616309,1.637375,-0.90571,0.564715
150210664453224,14.626310,2.365471,-0.532234,0.831634
150210674454070,14.636311,3.180036,0.033048,0.743765
150210684454672,14.646311,3.821795,0.570609,0.367542
150210694455350,14.656312,3.480307,0.843643,-0.054353
150210704456199,14.666313,2.535738,0.955532,-0.024896
150210714456811,14.676313,1.598164,1.070614,0.256515
150210724457499,14.686314,1.313205,1.067002,0.755283
150210734458340,14.696315,1.750885,0.884292,1.308991
150210744459035,14.706316,2.392573,1.029002,1.280751
150210754459653,14.716316,2.108559,1.735295,0.644338
150210764460585,14.726317,1.132659,2.617937,-0.437647
150210774461200,14.736318,-0.157814,2.746861,-1.134657
150210784462046,14.746319,-1.030914,2.206026,-0.979907
150210794462752,14.756319,-1.181749,1.5524,-0.215809
150210804463369,14.766320,-0.289225,1.508232,0.331348
150210814464215,14.776321,1.139648,1.421471,0.186852
150210824464891,14.786322,2.137591,1.189603,-0.256874
150210834465742,14.796322,2.713346,1.045491,-0.787038
150210844466449,14.806323,2.613583,0.701543,-0.930453
150210854467095,14.816324,1.940684,0.378652,-0.755654
150210864467941,14.826325,1.466499,-0.03839,-0.231147
150210874468551,14.836325,1.570775,-0.203202,0.317809
150210884469472,14.846326,2.183439,-0.333916,0.704783
150210894470099,14.856327,2.830195,-0.559536,0.874224
150210904470787,14.866327,3.094797,-0.587688,0.792166
150210914471402,14.876328,2.680385,-0.643309,0.547243
150210924472253,14.886329,1.608158,-0.594705,0.263292
150210934472948,14.896330,0.471318,-0.399154,0.149905
150210944473565,14.906330,-0.628726,-0.304568,0.064041
150210954474421,14.916331,-1.565793,-0.475818,0.211914
150210964475113,14.926332,-2.17502,-0.544416,0.384788
150210974475943,14.936333,-2.44462,-0.105742,0.140368
150210984476579,14.946333,-2.408378,0.80258,-0.824817
150210994477272,14.956334,-2.641419,1.905238,-1.977614
150211004478116,14.966335,-2.947835,1.980397,-2.360533
150211014478794,14.976335,-2.870208,0.859281,-1.595201
150211024479402,14.986336,-2.030344,0.253748,-0.499623
150211034480262,14.996337,-0.417864,0.756069,-0.035133
150211044480954,15.006338,1.172747,0.861363,0.437036
150211054481803,15.016338,2.530738,0.514838,0.721887
150211064482421,15.026339,3.312982,-0.023769,0.758206
150211074483026,15.036340,3.812197,-0.679448,0.946762
150211084483714,15.046340,3.743291,-1.067182,1.33813
150211094484551,15.056341,3.513208,-0.913287,1.690797
150211104485176,15.066342,2.975888,-0.598454,1.615178
150211114485858,15.076343,1.771902,-0.651598,1.198556
150211124486693,15.086343,0.56468,-0.746803,0.708547
150211134487385,15.096344,-0.693339,-0.96997,0.349774
150211144488227,15.106345,-2.109926,-0.944344,-0.258008
150211154488840,15.116346,-2.856053,-1.003801,-0.855397
150211164489532,15.126346,-3.118862,-0.970772,-1.416066
150211174490376,15.136347,-3.146616,-0.807036,-1.741334
150211184490983,15.146348,-2.889235,-0.866458,-1.636431
150211194491679,15.156348,-2.737539,-0.88461,-1.457671
150211204492520,15.166349,-2.530874,-0.86578,-1.137286
150211214493123,15.176350,-1.931383,-0.798282,-0.976348
150211224493829,15.186351,-1.517878,-0.671702,-1.110234
150211234494651,15.196351,-1.172561,-0.442211,-1.278938
150211244495282,15.206352,-1.213543,-0.345621,-1.300777
150211254495973,15.216353,-1.087139,-0.363549,-0.995473
150211264496605,15.226353,-0.782743,-0.372414,-0.603161
150211274497436,15.236354,-0.174293,-0.167666,-0.389075
150211284498127,15.246355,0.644729,0.048707,-0.208946
150211294498988,15.256356,1.25961,-0.323357,0.320909
150211304499605,15.266356,1.8504,-0.960339,1.030712
150211314500299,15.276357,2.781976,-1.159269,1.556228
150211324500927,15.286358,3.785673,-1.06298,1.827653
150211334501773,15.296358,4.196369,-0.945086,1.704777
150211344502448,15.306359,3.609562,-0.956169,1.37887
150211354503305,15.316360,2.249403,-0.734664,0.837916
150211364503922,15.326361,0.688821,-0.355997,0.393583
150211374504542,15.336361,-0.127837,-0.164963,0.184208
150211384505244,15.346362,-0.824485,-0.291357,0.137893
150211394506088,15.356363,-0.935843,-0.128909,0.138387
150211404506690,15.366363,-0.651543,0.242719,-0.04197
150211414507407,15.376364,-0.328814,0.494319,-0.452206
150211424508239,15.386365,-0.542699,0.430252,-0.638827
150211434508854,15.396366,-0.585197,0.292145,-0.418159
150211444509530,15.406366,-0.382244,0.133919,-0.048411
150211454510147,15.416367,-0.018788,-0.019632,0.259058
150211464510993,15.426368,0.456051,-0.144248,0.394762
150211474511603,15.436368,1.012149,-0.330179,0.519808
150211484512520,15.446369,1.242841,-0.511755,0.472428
150211494513137,15.456370,1.237577,-0.637121,0.289226
150211504513752,15.466370,1.07535,-0.521056,0.018649
150211514514431,15.476371,0.242046,-0.127489,-0.517825
150211524515051,15.486372,-0.574118,0.236015,-0.880161
150211534515979,15.496373,-1.273188,0.226912,-1.013695
150211544516590,15.506373,-1.313176,0.233349,-0.870118
150211554517195,15.516374,-0.903869,0.408343,-0.525409
150211564518041,15.526375,-0.402972,0.590374,-0.215417
150211574518747,15.536375,0.297223,0.681465,-0.03572
150211584519364,15.546376,1.174035,0.487117,0.065847
150211594520194,15.556377,1.65295,0.390229,0.171358
150211604520822,15.566378,1.917313,0.324289,0.406967
150211614521528,15.576378,2.243782,0.088455,0.855813
150211624522388,15.586379,2.501681,-0.21,1.436319
150211634523083,15.596380,2.690195,-0.328098,1.691437
150211644523706,15.606380,2.575799,-0.342669,1.627714
150211654524321,15.616381,2.206058,-0.276133,1.202642
150211664525186,15.626382,1.437204,-0.268124,0.678816
150211674525821,15.636383,0.417552,-0.166074,0.355517
150211684526513,15.646383,-0.292721,-0.206981,0.072883
150211694527157,15.656384,-0.993469,-0.209007,-0.092066
150211704527998,15.666385,-1.450395,-0.136622,-0.223058
150211714528700,15.676385,-1.633879,-0.161701,-0.152767
150211724529320,15.686386,-1.52208,-0.47523,-0.047093
150211734530167,15.696387,-1.322191,-0.811324,0.023026
150211744530777,15.706387,-1.178714,-0.932346,0.03309
150211754531454,15.716388,-1.020725,-0.905464,-0.096845
150211764532306,15.726389,-1.085194,-0.693779,-0.43946
150211774532916,15.736390,-1.596818,-0.466697,-0.774876
150211784533608,15.746390,-2.055265,-0.304781,-1.109022
150211794534224,15.756391,-2.453936,0.003252,-1.405994
150211804535065,15.766392,-2.465287,-0.038915,-1.489037
150211814535680,15.776392,-1.779309,-0.262956,-1.166985
150211824536357,15.786393,-1.029595,-0.656372,-0.650816
150211834537174,15.796394,0.161874,-1.202212,0.071175
150211844537777,15.806394,1.030322,-1.637736,0.680903
150211854538463,15.816395,2.226253,-1.737361,1.042221
150211864539051,15.826396,2.506382,-1.633556,0.963296
150211874539905,15.836397,2.064438,-1.549509,0.681796
150211884540582,15.846397,0.738678,-1.285305,0.187012
150211894541200,15.856398,-0.53486,-0.908126,-0.17853
150211904541815,15.866399,-1.236795,-0.686696,-0.099134
150211914542659,15.876399,-1.631587,-0.673339,0.183133
150211924543288,15.886400,-1.351559,-0.505443,0.469365
150211934543980,15.896401,-0.607228,-0.337057,0.655439
150211944544596,15.906401,0.101964,-0.424735,0.749647
150211954545440,15.916402,0.522403,-0.520154,0.700065
150211964546132,15.926403,0.708636,-0.561374,0.773779
150211974546745,15.936403,0.508239,-0.524282,0.738537
150211984547360,15.946404,-0.098695,-0.29468,0.542249
150211994548215,15.956405,-0.469359,-0.113432,0.36622
150212004548905,15.966406,-0.631667,0.050789,-0.021228
150212014549546,15.976406,-0.718164,0.418684,-0.400496
150212024550374,15.986407,-0.846365,0.793455,-0.757443
150212034550998,15.996408,-0.607318,0.889431,-0.879935
150212044551691,16.006408,-0.03265,0.730276,-0.754488
150212054552310,16.016409,0.792314,0.555067,-0.426201
150212064552913,16.026410,1.514603,0.392483,-0.105093
150212074553759,16.036410,2.212783,0.505018,-0.035288
150212084554439,16.046411,2.577457,0.528626,-0.105592
150212094555067,16.056412,2.462473,0.703103,-0.234937
150212104555911,16.066413,2.09707,1.064406,-0.421253
150212114556588,16.076413,1.75846,1.047104,-0.11765
150212124557228,16.086414,1.647454,0.404809,0.64348
150212134557831,16.096415,2.086915,0.046316,1.232333
150212144558686,16.106415,2.97036,0.114882,1.409549
150212154559320,16.116416,3.092362,0.123628,1.121904
150212164560017,16.126417,2.565111,0.10741,0.734813
150212174560632,16.136417,1.491353,0.06906,0.375392
150212184561462,16.146418,0.304162,0.126557,0.053112
150212194562085,16.156419,-0.80291,0.240319,-0.266515
150212204562779,16.166419,-1.805636,0.282176,-0.603798
150212214563396,16.176420,-2.598334,0.38662,-0.916017
150212224564032,16.186421,-2.575645,0.433464,-0.968649
150212234564878,16.196422,-2.413109,0.50641,-0.981512
150212244565584,16.206422,-1.834793,0.378084,-0.76326
150212254566210,16.216423,-0.774704,0.072826,-0.444716
150212264566834,16.226424,-0.063342,-0.099329,-0.243144
150212274567680,16.236424,0.791741,-0.480016,0.191607
150212284568315,16.246425,1.14421,-0.777076,0.519231
150212294569007,16.256426,1.20681,-0.678504,0.703771
150212304569595,16.266426,1.10822,-0.438741,0.60567
150212314570438,16.276427,0.638831,-0.229761,0.191102
150212324571046,16.286428,-0.308888,-0.212347,-0.138862
150212334571707,16.296428,-0.862241,-0.219049,-0.25911
150212344572320,16.306429,-0.835581,-0.144345,-0.326043
150212354572925,16.316430,-0.50087,-0.001516,-0.3583
150212364573771,16.326430,-0.121534,0.133813,-0.298355
150212374574387,16.336431,0.290029,0.217271,-0.149679
150212384575066,16.346432,0.769942,0.21677,-0.019424
150212394575682,16.356432,0.819778,0.079041,0.290841
150212404576277,16.366433,1.15117,-0.194756,0.616413
150212414577186,16.376434,1.205954,-0.335372,0.864521
150212424577802,16.386434,1.111555,-0.025414,0.707476
150212434578432,16.396435,0.642795,0.194762,0.467506
150212444579261,16.406436,0.090216,0.271325,0.273032
150212454579884,16.416437,-0.445391,0.402265,0.148226
150212464580489,16.426437,-0.836943,0.440748,0.090809
150212474581179,16.436438,-0.661157,0.380058,0.27734
150212484582039,16.446439,-0.571686,0.529363,0.430185
150212494582643,16.456439,-0.42273,0.796189,0.225593
150212504583282,16.466440,-0.352662,1.018962,-0.177179
150212514583973,16.476441,-0.493342,1.219137,-0.631126
150212524584590,16.486441,-0.919972,1.361468,-0.886858
150212534585219,16.496442,-0.92793,1.309959,-0.794113
150212544586067,16.506443,-0.554123,1.167984,-0.408207
150212554586672,16.516443,0.242289,1.015682,-0.147231
150212564587376,16.526444,1.075724,0.732563,0.166208
150212574587990,16.536445,1.683459,0.569341,0.284612
150212584588838,16.546446,2.539308,0.4686,0.253474
150212594589455,16.556446,2.990536,0.464288,0.089083
150212604590047,16.566447,3.171533,0.28995,0.110405
150212614590739,16.576447,2.939898,0.001843,0.374633
150212624591339,16.586448,2.24939,-0.069368,0.638609
150212634592184,16.596449,1.882465,-0.181896,0.906048
150212644592810,16.606449,1.520679,-0.252586,0.970797
150212654593510,16.616450,0.841688,-0.15361,0.711099
150212664594133,16.626451,-0.076958,0.025379,0.248559
150212674594748,16.636451,-0.980403,0.157753,-0.228341
150212684595582,16.646452,-2.137184,0.252118,-0.743789
150212694596210,16.656453,-3.041251,0.222956,-0.975362
150212704596885,16.666454,-3.419416,0.147883,-0.9867
150212714597532,16.676454,-3.530296,0.179944,-0.933905
150212724598147,16.686455,-2.952041,0.298987,-0.905937
150212734598986,16.696456,-2.130065,0.331598,-1.020114
150212744599609,16.706456,-1.941649,0.218753,-1.132443
150212754600210,16.716457,-1.458611,0.069367,-1.069816
150212764600905,16.726458,-1.110899,-0.368385,-0.743942
150212774601532,16.736458,-0.532308,-0.842521,-0.159861
150212784602371,16.746459,0.22646,-1.134804,0.385297
150212794603004,16.756460,0.93011,-1.123951,0.6081
150212804603620,16.766460,1.462175,-1.089761,0.588042
150212814604225,16.776461,1.497534,-1.024503,0.307542
150212824604907,16.786462,0.780097,-0.907646,-0.135106
150212834605509,16.796462,-0.037457,-0.873889,-0.222621
150212844606355,16.806463,-0.552243,-0.980268,0.147315
150212854606970,16.816464,-0.869439,-1.063845,0.624453
150212864607651,16.826464,-0.741545,-1.08074,1.075525
150212874608290,16.836465,-0.269787,-1.041214,1.141229
150212884608879,16.846466,-0.323092,-0.781666,0.617342
150212894609738,16.856466,-0.913793,-0.565137,-0.026965
150212904610355,16.866467,-1.704832,-0.313178,-0.539446
150212914610961,16.876468,-2.423009,-0.201856,-0.774519
150212924611576,16.886468,-2.787681,-0.081102,-0.83336
150212934612287,16.896469,-2.535971,-0.080534,-0.659971
150212944612908,16.906470,-2.143786,-0.182193,-0.355467
150212954613528,16.916470,-1.046762,-0.187901,-0.287918
150212964614369,16.926471,-0.598214,-0.073237,-0.473043
150212974615047,16.936472,-0.205268,0.12601,-0.727029
150212984615666,16.946472,-0.201005,0.111807,-0.88399
150212994616281,16.956473,-0.698226,0.001185,-0.86931
150213004616897,16.966474,-0.772872,-0.251327,-0.560232
150213014617743,16.976474,-0.578323,-0.104934,-0.414301
150213024618358,16.986475,-0.203713,-0.019284,-0.352128
150213034618974,16.996476,0.199192,-0.004824,-0.375924
150213044619671,17.006476,0.343317,-0.03073,-0.378972
150213054620272,17.016477,0.48456,0.044749,-0.323508
150213064620897,17.026478,0.437424,0.253498,-0.357926
150213074621738,17.036478,0.276499,0.333675,-0.183915
150213084622354,17.046479,0.439029,0.405605,0.106857
150213094623030,17.056480,0.490367,0.425107,0.440507
150213104623628,17.066480,0.654018,0.349166,0.817507
150213114624244,17.076481,1.060905,0.236668,1.064565
150213124625090,17.086482,1.568822,0.234656,1.099811
150213134625688,17.096482,1.634268,0.4416,0.838571
150213144626391,17.106483,1.359422,0.4584,0.493256
150213154627016,17.116484,0.776825,0.274633,0.175848
150213164627643,17.126484,0.217112,0.235523,0.040912
150213174628273,17.136485,0.274196,0.1923,0.193456
150213184629136,17.146486,0.627734,0.282915,0.48366
150213194629762,17.156486,1.140111,0.174497,0.635917
150213204630374,17.166487,1.287308,-0.077493,0.686517
150213214631050,17.176488,1.053329,-0.190868,0.528083
150213224631658,17.186488,0.948974,-0.045797,0.126171
150213234632273,17.196489,0.059324,0.129132,-0.401778
150213244633117,17.206490,-0.858839,0.008049,-0.518739
150213254633725,17.216490,-1.229727,-0.224108,-0.365302
150213264634444,17.226491,-1.233938,-0.146425,-0.15726
150213274635073,17.236492,-0.962752,0.071679,-0.022069
150213284635691,17.246492,-0.590123,0.261771,-0.059016
150213294636297,17.256493,-0.507812,0.485214,-0.215623
150213304636941,17.266494,-0.569747,0.49189,-0.303084
150213314637566,17.276494,-0.645146,0.480901,-0.28276
150213324638412,17.286495,-0.606425,0.445595,-0.114078
150213334639028,17.296496,-0.167811,0.259505,0.10549
150213344639713,17.306496,0.48338,-0.090198,0.336951
150213354640315,17.316497,0.953686,-0.33088,0.40411
150213364640917,17.326498,1.387784,-0.3392,0.149587
150213374641767,17.336498,1.402403,-0.394258,-0.06872
150213384642449,17.346499,0.701835,-0.290548,-0.449844
150213394643001,17.356500,0.088476,-0.024566,-0.736985
150213404643631,17.366500,-0.736982,0.215909,-0.945287
150213414644313,17.376501,-1.271618,0.195025,-0.794153
150213424644945,17.386502,-1.565217,0.292099,-0.553428
150213434645541,17.396502,-1.208958,0.436345,-0.379566
150213444646385,17.406503,-0.425042,0.301827,-0.213617
150213454647003,17.416504,0.232905,0.131899,-0.13308
150213464647618,17.426504,0.778458,0.016139,-0.201797
150213474648335,17.436505,0.842737,-0.04956,-0.294154
150213484648929,17.446506,0.811636,-0.239105,-0.21155
150213494649541,17.456506,0.819015,-0.355695,-0.081514
150213504650386,17.466507,0.734963,-0.444252,0.153895
150213514650994,17.476508,0.915408,-0.590959,0.518107
150213524651618,17.486508,1.052596,-0.557305,0.588534
150213534652234,17.496509,0.866752,-0.428305,0.439217
150213544652839,17.506510,0.571209,-0.449455,0.346956
150213554653547,17.516510,0.063727,-0.466629,0.30758
150213564654148,17.526511,-0.351194,-0.30159,0.164609
150213574654978,17.536512,-0.964441,-0.00438,-0.017049
150213584655608,17.546512,-1.300471,0.248056,-0.185695
150213594656225,17.556513,-1.574213,0.386059,-0.333625
150213604656835,17.566514,-1.622734,0.681263,-0.511133
150213614657456,17.576514,-1.478094,0.679493,-0.45898
150213624658132,17.586515,-1.237363,0.423693,-0.141428
150213634658749,17.596515,-0.398695,0.208692,0.245923
150213644659355,17.606516,0.404373,0.202103,0.313591
150213654660206,17.616517,0.816154,0.268856,0.144401
150213664660821,17.626518,0.858692,0.197505,-0.094992
150213674661426,17.636518,0.768541,0.234395,-0.324749
150213684662051,17.646519,0.470813,0.211588,-0.527837
150213694662670,17.656519,0.166807,-0.006275,-0.368124
150213704663349,17.666520,0.330565,-0.416378,0.246838
150213714663959,17.676521,0.685409,-0.623681,0.801942
150213724664575,17.686521,1.080789,-0.311528,0.907609
150213734665190,17.696522,1.179863,0.026555,0.532055
150213744665821,17.706523,0.618138,0.336838,-0.126648
150213754666667,17.716523,-0.186585,0.374214,-0.583831
150213764667282,17.726524,-0.575625,0.05444,-0.380182
150213774667897,17.736525,-0.805478,-0.411151,0.303946
150213784668573,17.746525,-0.529149,-0.299335,0.798198
150213794669204,17.756526,-0.247919,0.078114,0.636199
150213804669830,17.766527,-0.306702,0.365139,-0.006611
150213814670440,17.776527,-0.679358,0.286812,-0.618899
150213824671040,17.786528,-1.098536,-0.026267,-0.689149
150213834671883,17.796529,-1.213353,-0.264915,-0.423909
150213844672498,17.806529,-1.212012,-0.3231,-0.096254
150213854673134,17.816530,-0.82199,-0.24755,0.082219
150213864673824,17.826531,-0.227176,-0.098198,0.046348
150213874674364,17.836531,0.468012,-0.125452,0.040053
150213884675076,17.846532,0.80636,-0.433062,0.307735
150213894675691,17.856532,0.774099,-0.609262,0.562042
150213904676317,17.866533,0.603731,-0.234148,0.585077
150213914677163,17.876534,0.288541,0.097073,0.449232
150213924677792,17.886534,0.074346,0.574935,0.009572
150213934678408,17.896535,-0.269208,0.821298,-0.444978
150213944679028,17.906536,-0.563193,0.754049,-0.355803
150213954679723,17.916536,-0.142611,0.417643,0.122398
150213964680350,17.926537,0.515371,0.480772,0.571288
150213974680965,17.936538,1.326039,0.633664,0.781309
150213984681581,17.946538,1.788197,0.463315,0.921455
150213994682435,17.956539,1.956332,0.322495,0.998354
150214004683052,17.966540,1.892365,-0.024849,1.225727
150214014683677,17.976540,1.367028,-0.144859,1.265192
150214024684277,17.986541,0.644245,0.38249,0.764558
150214034684892,17.996542,-0.470099,1.057634,-0.119787
150214044685520,18.006542,-1.315944,1.282722,-0.668418
150214054686116,18.016543,-1.840457,0.802609,-0.531815
150214064686744,18.026543,-1.515168,0.014571,0.343574
150214074687436,18.036544,-0.284418,-0.341742,1.17501
150214084688036,18.046545,0.681902,-0.366516,1.087026
150214094688876,18.056546,0.894769,-0.102589,0.166294
150214104689258,18.066546,-0.139109,0.31545,-1.193537
150214114690102,18.076547,-1.659756,0.34606,-1.965898
150214124690720,18.086547,-2.432373,0.26359,-2.266103
150214134691344,18.096548,-3.14355,-0.20814,-2.127746
150214144692041,18.106549,-3.196931,-0.449363,-1.655519
150214154692664,18.116549,-1.968243,-0.301019,-1.031716
150214164693291,18.126550,-0.448629,-0.180415,-0.6373
150214174693907,18.136551,0.617452,-0.071912,-0.385638
150214184694526,18.146551,1.139222,-0.176687,-0.194614
150214194695141,18.156552,1.085413,-0.602855,0.026158
150214204695996,18.166553,1.249655,-0.934359,0.392662
150214214696604,18.176553,1.530428,-0.810202,0.660736
150214224697215,18.186554,1.779001,-0.604345,0.63952
150214234697830,18.196555,1.663356,-0.428454,0.416488
150214244698450,18.206555,0.972212,-0.296204,0.162118
150214254699133,18.216556,0.00959,-0.275528,0.031701
150214264699748,18.226556,-0.550237,-0.275776,0.073604
150214274700353,18.236557,-0.758502,-0.039062,0.083998
150214284700960,18.246558,-0.874579,0.191053,0.12389
150214294701575,18.256558,-0.914363,0.284004,0.12838
150214304702189,18.266559,-0.837549,0.235453,0.140642
150214314702799,18.276559,-0.825871,0.019097,0.20622
150214324703388,18.286560,-0.886675,-0.168639,0.347157
150214334704225,18.296561,-0.620033,-0.246021,0.393211
150214344704840,18.306562,-0.38963,-0.142616,0.222012
150214354705451,18.316562,-0.71867,0.22141,-0.258393
150214364706071,18.326563,-1.072775,0.657655,-0.853741
150214374706690,18.336563,-1.725287,1.171235,-1.557445
150214384707381,18.346564,-1.934139,1.095626,-1.615591
150214394707929,18.356565,-1.538142,0.58177,-0.981044
150214404708623,18.366565,-0.911447,0.163822,-0.027396
150214414709243,18.376566,0.567614,-0.192539,0.744994
150214424709868,18.386567,1.668034,-0.545609,1.111237
150214434710469,18.396567,2.088161,-0.401161,0.826815
150214444711309,18.406568,1.854433,0.445012,-0.117015
150214454711930,18.416569,0.370121,0.936456,-0.982708
150214464712313,18.426569,-1.185722,1.20098,-1.306593
150214474712938,18.436570,-1.990552,1.095023,-0.940044
150214484713780,18.446570,-1.935078,0.625835,0.289002
150214494714397,18.456571,-1.04612,0.678267,1.17339
150214504715017,18.466572,0.235401,0.807241,1.453812
150214514715633,18.476572,0.954707,0.887157,1.140244
150214524716252,18.486573,0.765095,1.109241,0.296033
150214534716873,18.496574,-0.096055,0.965576,-0.427522
150214544717491,18.506574,-0.704394,0.537,-0.495947
150214554718178,18.516575,-1.08081,0.244163,-0.285953
150214564718796,18.526575,-1.050001,0.144723,-0.03385
150214574719411,18.536576,-0.499308,0.268517,0.087857
150214584720022,18.546577,0.009449,0.160956,0.047993
150214594720608,18.556577,0.378232,-0.009212,-0.12374
150214604721226,18.566578,0.109117,0.022911,-0.464469
150214614721866,18.576579,-0.336672,0.331915,-0.879953
150214624722487,18.586579,-1.15895,0.312272,-0.916627
150214634723329,18.596580,-1.52115,0.065879,-0.556156
150214644723945,18.606581,-1.490789,-0.309562,0.123055
150214654724565,18.616581,-0.681884,-0.615241,0.656682
150214664725181,18.626582,0.172164,-0.760958,0.700475
150214674725786,18.636582,0.532572,-0.642016,0.221302
150214684726414,18.646583,-0.020481,-0.350614,-0.492728
150214694727040,18.656584,-1.230162,-0.031468,-1.030909
150214704727656,18.666584,-2.256274,0.2962,-1.324592
150214714728252,18.676585,-2.65139,0.363751,-1.216421
150214724728919,18.686586,-2.490709,-0.062775,-0.670893
150214734729534,18.696586,-1.110511,-0.419262,0.109538
150214744730150,18.706587,0.341861,-0.290349,0.367362
150214754730767,18.716587,1.004506,-0.144487,0.29092
150214764731375,18.726588,1.180502,0.012561,-0.174524
150214774731990,18.736589,0.646841,0.089518,-0.73536
150214784732590,18.746589,-0.029303,0.027773,-0.99865
150214794733190,18.756590,-0.643361,-0.114833,-0.870494
150214804733806,18.766590,-0.425671,-0.279815,-0.272312
150214814734422,18.776591,-0.073635,-0.20702,0.206671
150214824735042,18.786592,0.826928,-0.078322,0.328027
150214834735648,18.796592,1.452681,-0.023954,0.071685
150214844736276,18.806593,1.369484,-0.057979,-0.269449
150214854737134,18.816594,1.110595,-0.076146,-0.464163
150214864737718,18.826594,0.663525,0.045784,-0.53301
150214874738105,18.836595,0.063529,0.231128,-0.459632
150214884738951,18.846596,-0.316805,0.338923,-0.151849
150214894739562,18.856596,-0.418812,0.493084,0.161062
150214904740182,18.866597,-0.464357,0.766501,0.171785
150214914740821,18.876598,-0.270337,0.842442,-0.038762
150214924741435,18.886598,-0.001089,0.743498,-0.163831
150214934742051,18.896599,0.253098,0.546202,-0.114233
150214944742667,18.906599,0.678799,0.304339,0.112268
150214954743292,18.916600,1.095582,0.237829,0.219523
150214964743908,18.926601,1.387491,0.365893,0.130009
150214974744536,18.936601,1.377687,0.45826,-0.068544
150214984745169,18.946602,1.100885,0.527869,-0.229817
150214994745864,18.956603,0.744879,0.56398,-0.244641
150215004746474,18.966603,0.514392,0.616685,-0.102851
150215014747079,18.976604,0.689329,0.552699,0.241786
150215024747611,18.986604,0.939315,0.581714,0.424166
150215034748299,18.996605,1.119217,0.679129,0.449157
150215044748915,19.006606,1.133893,0.696799,0.375837
150215054749539,19.016606,1.198805,0.531461,0.468811
150215064750174,19.026607,1.495369,0.48757,0.586933
150215074750714,19.036607,1.343623,0.410972,0.761097
150215084751401,19.046608,1.066077,0.377681,0.95001
150215094752008,19.056609,0.807368,0.499444,0.896575
150215104752618,19.066609,0.396382,0.558419,0.674788
150215114753240,19.076610,-0.112664,0.485238,0.583008
150215124753854,19.086611,-0.27511,0.294075,0.661395
150215134754393,19.096611,-0.209804,0.245755,0.742411
150215144755009,19.106612,-0.344249,0.248395,0.810102
150215154755699,19.116612,-0.417946,0.200683,0.830236
150215164756288,19.126613,-0.457373,0.224499,0.567611
150215174756922,19.136614,-0.874531,0.204712,0.170023
150215184757527,19.146614,-1.136616,0.180223,-0.083439
150215194758156,19.156615,-1.554185,0.095551,-0.240773
150215204758767,19.166615,-1.669348,0.110205,-0.344673
150215214759383,19.176616,-1.305821,0.093014,-0.305234
150215224760008,19.186617,-1.316161,0.137426,-0.405895
150215234760628,19.196617,-1.184618,0.077883,-0.472711
150215244761230,19.206618,-0.989452,0.001622,-0.424023
150215254761848,19.216619,-0.766006,-0.098564,-0.3962
150215264762464,19.226619,-0.450117,-0.163207,-0.382465
150215274763074,19.236620,-0.075035,-0.099994,-0.3957
150215284763699,19.246620,0.24655,-0.19007,-0.427163
150215294764315,19.256621,0.52199,-0.197004,-0.461469
150215304764931,19.266622,0.765939,-0.210595,-0.412375
150215314765552,19.276622,0.848126,-0.302113,-0.182233
150215324766176,19.286623,1.038361,-0.476466,0.087056
150215334766776,19.296623,1.317899,-0.471619,0.180491
150215344767407,19.306624,1.736647,-0.421777,0.206099
150215354768023,19.316625,1.586181,-0.333726,0.125769
150215364768663,19.326625,1.115589,-0.248025,-0.003469
150215374769277,19.336626,0.347078,-0.180964,-0.051089
150215384769892,19.346627,-0.203475,-0.112378,0.001995
150215394770517,19.356627,-0.56897,0.037327,0.02484
150215404771128,19.366628,-0.918864,0.26469,-0.00913
150215414771744,19.376628,-1.257155,0.440829,-0.091478
150215424772374,19.386629,-1.383901,0.643697,-0.192687
150215434772988,19.396630,-1.616767,0.687895,-0.240715
150215444773607,19.406630,-1.473692,0.666126,-0.064843
150215454774214,19.416631,-1.04879,0.487916,0.177427
150215464774830,19.426632,-0.413017,0.449392,0.335488
150215474775456,19.436632,0.39398,0.368553,0.39431
150215484776072,19.446633,0.751011,0.272249,0.28588
150215494776681,19.456633,0.937589,0.174238,0.172033
150215504777216,19.466634,1.046603,0.060945,0.076505
150215514777925,19.476635,1.156718,-0.093254,0.14366
150215524778528,19.486635,1.208784,-0.146205,0.272433
150215534779139,19.496636,1.268981,-0.166023,0.489113
150215544779667,19.506636,1.461468,-0.262932,0.597278
150215554780368,19.516637,1.49504,-0.384649,0.549798
150215564780901,19.526638,1.335588,-0.350372,0.323188
150215574781593,19.536638,0.739457,-0.320652,0.102609
150215584782134,19.546639,0.086833,-0.285377,-0.030346
150215594782734,19.556639,-0.515208,-0.145044,-0.156699
150215604783408,19.566640,-1.012345,-0.128466,-0.150924
150215614783930,19.576641,-1.26953,-0.105142,-0.171246
150215624784607,19.586641,-1.534966,-0.211746,-0.168878
150215634785161,19.596642,-1.358611,-0.228261,-0.066631
150215644785787,19.606642,-0.800212,-0.295922,0.047449
150215654786401,19.616643,-0.43642,-0.470762,0.093138
150215664787007,19.626644,0.127662,-0.552083,0.037004
150215674787623,19.636644,-0.034654,-0.609168,-0.210537
150215684788243,19.646645,-0.35519,-0.645842,-0.350253
150215694788855,19.656646,-0.608561,-0.627777,-0.472666
150215704789471,19.666646,-0.587239,-0.70577,-0.320152
150215714790085,19.676647,-0.529726,-0.818547,-0.144881
150215724790700,19.686647,-0.213295,-0.832623,0.104219
150215734791315,19.696648,-0.127926,-0.671357,-0.00579
150215744791931,19.706649,-0.085619,-0.479842,-0.264244
150215754792307,19.716649,-0.578475,-0.307461,-0.521301
150215764792910,19.726650,-0.965253,-0.271981,-0.535645
150215774793536,19.736650,-0.962131,-0.300661,-0.375848
150215784794141,19.746651,-0.687736,-0.377191,-0.098361
150215794794757,19.756651,-0.331549,-0.385707,0.109812
150215804795373,19.766652,-0.116893,-0.330376,0.223829
150215814795989,19.776653,0.004406,-0.260791,0.205079
150215824796595,19.786653,0.139475,-0.068245,-0.0371
150215834797196,19.796654,-0.003662,-0.026329,-0.224959
150215844797795,19.806654,-0.222002,-0.136265,-0.196225
150215854798400,19.816655,-0.083472,-0.413614,0.038737
150215864799021,19.826656,0.086442,-0.514655,0.230043
150215874799637,19.836656,0.594633,-0.362448,0.15445
150215884800174,19.846657,0.755291,-0.157736,-0.130132
150215894800790,19.856657,0.82053,-0.11399,-0.315067
150215904801467,19.866658,0.465675,8.48E-4,-0.50182
150215914801997,19.876659,0.200058,-0.120196,-0.269744
150215924802588,19.886659,0.058438,-0.050022,0.112338
150215934803227,19.896660,0.341391,-0.098554,0.504424
150215944803852,19.906661,0.623442,0.089848,0.507994
150215954804454,19.916661,0.572632,0.426492,0.233636
150215964805084,19.926662,0.213881,0.544357,0.141512
150215974805479,19.936662,-0.065474,0.487311,0.250383
150215984806325,19.946663,-0.208078,0.634137,0.391107
150215994806955,19.956664,-0.155073,0.574973,0.611076
150216004807335,19.966664,0.155058,0.520608,0.753318
150216014807953,19.976665,0.591649,0.577579,0.640847
150216024808568,19.986665,0.880264,0.606765,0.383915
150216034809194,19.996666,1.097765,0.533513,0.231213
150216044809800,20.006666,1.126224,0.456086,0.265956
150216054810416,20.016667,1.17846,0.246076,0.467049
150216064811030,20.026668,1.410021,0.030074,0.639474
150216074811652,20.036668,1.193471,0.062814,0.651207
150216084812191,20.046669,0.90957,0.327876,0.334781
150216094812809,20.056669,0.081928,0.569108,-0.215792
150216104813424,20.066670,-0.738963,0.63485,-0.652423
150216114814025,20.076671,-1.2144,0.777462,-0.964697
150216124814631,20.086671,-1.494223,0.798794,-1.064446
150216134815039,20.096672,-1.091205,0.414798,-0.6544
150216144815655,20.106672,-0.329507,0.11937,-0.215335
150216154816503,20.116673,0.562608,-0.20736,0.174964
150216164817123,20.126674,1.01715,-0.330956,0.181725
150216174817506,20.136674,1.137416,-0.450786,0.21285
150216184818135,20.146675,1.155654,-0.384344,0.087125
150216194818751,20.156675,0.747823,-0.425299,-0.098563
150216204819382,20.166676,0.188358,-0.385254,-0.316803
150216214819998,20.176677,-0.479017,-0.331646,-0.469104
150216224820542,20.186677,-0.779344,-0.322474,-0.310052
150216234821162,20.196678,-0.96561,-0.277302,-0.108263
150216244821870,20.206679,-1.151001,-0.29718,0.096936
150216254822401,20.216679,-0.842875,-0.282601,0.210867
150216264823026,20.226680,-0.456017,-0.577794,0.306079
150216274823632,20.236680,-0.342374,-0.753475,0.229713
150216284824248,20.246681,-0.491786,-0.70158,0.088706
150216294824636,20.256681,-0.739064,-0.485039,-0.215415
150216304825266,20.266682,-1.307022,-0.276005,-0.528498
150216314826113,20.276683,-1.731566,0.06599,-0.849561
150216324826478,20.286683,-1.937764,0.231371,-0.982883
150216334827089,20.296684,-1.761941,0.290208,-0.934069
150216344827704,20.306684,-1.21099,0.558851,-0.822903
150216354828245,20.316685,-0.272472,0.158149,-0.328104
150216364828855,20.326686,0.413744,-0.094594,-0.08079
150216374829470,20.336686,1.203688,-0.327497,0.197923
150216384830069,20.346687,1.760895,-0.428904,0.162102
150216394830669,20.356687,2.210953,-0.520104,-0.041857
150216404831285,20.366688,2.230282,-0.266259,-0.30197
150216414831666,20.376688,1.969215,0.088065,-0.365624
150216424832271,20.386689,1.398938,0.199696,-0.113134
150216434832871,20.396690,0.918136,0.322048,0.26226
150216444833498,20.406690,0.71592,0.537424,0.647997
150216454834112,20.416691,0.43583,0.589325,0.943098
150216464834746,20.426691,0.531296,0.602881,1.172834
150216474835285,20.436692,0.556365,0.83469,1.018628
150216484835900,20.446693,0.567029,0.798313,0.924187
150216494836526,20.456693,0.463375,0.512951,0.738162
150216504837127,20.466694,0.240549,0.271392,0.483417
150216514837757,20.476694,0.537491,0.141934,0.222374
150216524838369,20.486695,0.876517,0.08575,0.137824
150216534838743,20.496695,1.006797,0.035427,0.19057
150216544839367,20.506696,0.81389,0.094274,0.295211
150216554840002,20.516697,0.491122,-0.12742,0.55863
150216564840618,20.526697,0.021308,-0.458927,0.834118
150216574841224,20.536698,-0.02903,-0.655808,1.084737
150216584841755,20.546698,0.218704,-0.533517,0.999627
150216594842384,20.556699,0.157792,-0.515026,0.696569
150216604843007,20.566700,-0.143832,-0.318429,0.257073
150216614843623,20.576700,-0.949384,-0.24098,-0.123975
150216624844242,20.586701,-1.691515,-0.057298,-0.405965
150216634844622,20.596701,-1.925298,-0.004406,-0.35774
150216644845235,20.606702,-1.937079,0.217751,-0.309851
150216654845834,20.616703,-1.209285,0.124895,-0.115266
150216664846449,20.626703,-0.631621,-0.159547,0.123662
150216674847074,20.636704,-0.060623,-0.422286,0.245994
150216684847589,20.646704,0.444749,-0.502425,0.203499
150216694848204,20.656705,0.377576,-0.304654,-0.246268
150216704848820,20.666706,-0.093609,-0.178575,-0.651965
150216714849426,20.676706,-0.897964,-0.124362,-0.845937
150216724850052,20.686707,-1.534183,-0.118786,-0.925395
150216734850680,20.696707,-2.046538,-0.17638,-0.938153
150216744851065,20.706708,-2.146132,-0.263796,-0.973939
150216754851680,20.716708,-1.594941,-0.242489,-0.904548
150216764852234,20.726709,-0.868435,-0.339558,-0.957174
150216774852836,20.736710,-0.632397,-0.397554,-1.013893
150216784853444,20.746710,-0.299448,-0.474058,-1.218459
150216794854055,20.756711,-0.606712,-0.61019,-1.404113
150216804854436,20.766711,-0.785014,-0.605063,-1.483264
150216814855043,20.776712,-1.143601,-0.569806,-1.412197
150216824855675,20.786712,-1.138654,-0.661097,-1.175022
150216834856295,20.796713,-0.921326,-0.764782,-0.836441
150216844856920,20.806714,-0.35062,-0.823753,-0.622713
150216854857560,20.816714,0.123299,-0.735816,-0.735207
150216864858166,20.826715,0.389307,-0.54559,-0.8888
150216874858708,20.836715,0.177248,-0.428424,-1.047602
150216884859095,20.846716,-0.099554,-0.546263,-0.81887
150216894859708,20.856716,0.0647,-0.731029,-0.283002
150216904860310,20.866717,0.289147,-0.878283,0.064101
150216914860910,20.876718,0.629264,-0.910091,0.105013
150216924861550,20.886718,0.939125,-0.566006,-0.270637
150216934862166,20.896719,0.372637,-0.267152,-0.686502
150216944862713,20.906719,-0.62439,0.050252,-0.930512
150216954863336,20.916720,-1.340803,0.295114,-0.968883
150216964863953,20.926721,-1.910801,0.37995,-0.856634
150216974864340,20.936721,-1.954629,0.367055,-0.578757
150216984865201,20.946722,-1.247429,0.428827,-0.379942
150216994865584,20.956722,-0.868186,0.642184,-0.632267
150217004866209,20.966723,-0.389218,0.506253,-0.637976
150217014866748,20.976723,0.213822,0.336784,-0.506094
150217024867440,20.986724,0.691581,0.025741,-0.262008
150217034867968,20.996725,0.643373,-0.017725,-0.035142
150217044868593,21.006725,1.105295,0.045658,0.11766
150217054869001,21.016726,1.158351,0.224701,0.016396
150217064869845,21.026727,1.079954,0.455998,-0.18248
150217074870212,21.036727,0.907908,0.359187,-0.099453
150217084870843,21.046728,0.910634,0.195202,0.082542
150217094871359,21.056728,0.983771,0.189214,0.144434
150217104871968,21.066729,0.944314,0.238593,0.08782
150217114872583,21.076729,0.743909,0.494012,-0.122217
150217124872979,21.086730,0.262926,0.721292,-0.41346
150217134873583,21.096730,-0.587918,0.81884,-0.41326
150217144874202,21.106731,-1.310525,0.830273,-0.375379
150217154874828,21.116732,-1.355942,0.571535,-0.186305
150217164875373,21.126732,-1.197824,0.513347,-0.173652
150217174875987,21.136733,-0.695368,0.334443,-0.107653
150217184876587,21.146733,-0.357611,0.405088,-0.318956
150217194877194,21.156734,-0.315136,0.579463,-0.779272
150217204877570,21.166734,-0.554959,0.542472,-0.812085
150217214878186,21.176735,-0.907572,0.403273,-0.606234
150217224878799,21.186735,-0.838219,0.236482,-0.181807
150217234879400,21.196736,-0.275403,0.022984,0.301058
150217244879945,21.206737,0.647058,-0.201243,0.419294
150217254880574,21.216737,1.351281,-0.270603,0.302532
150217264881185,21.226738,1.899003,-0.15514,0.175947
150217274881800,21.236738,1.36363,-0.062036,0.002598
150217284882199,21.246739,0.560051,0.07216,0.004108
150217294882809,21.256739,-0.041324,0.142655,0.210738
150217304883350,21.266740,-0.701564,0.286471,0.524228
150217314884023,21.276741,-0.568899,0.450006,0.668623
150217324884555,21.286741,-0.457257,0.49821,0.872828
150217334885170,21.296742,-0.029707,0.465147,0.883183
150217344885552,21.306742,0.271007,0.158725,0.788025
150217354886165,21.316743,0.233423,0.223259,0.525845
150217364886766,21.326743,0.057941,0.094448,0.478441
150217374887310,21.336744,-0.220541,0.139117,0.326377
150217384887934,21.346745,-0.445324,0.307881,0.098038
150217394888555,21.356745,-0.996361,0.361028,-0.083684
150217404889176,21.366746,-1.212886,0.304738,-0.144517
150217414889545,21.376746,-0.905318,0.135482,-0.121134
150217424890160,21.386747,-0.443172,-0.107767,-0.048556
150217434890781,21.396747,0.084357,-0.416063,0.047972
150217444891415,21.406748,0.704932,-0.500115,0.174476
150217454891965,21.416749,0.927849,-0.519299,0.113765
150217464892569,21.426749,0.969571,-0.566302,0.14507
150217474893184,21.436750,0.449337,-0.582841,0.007045
150217484893586,21.446750,0.062651,-0.466736,0.037058
150217494894208,21.456751,-0.255235,-0.408751,0.092964
150217504894824,21.466752,-0.623343,-0.246952,0.134316
150217514895353,21.476752,-0.827835,-0.035865,0.237357
150217524895969,21.486753,-0.866394,0.183828,0.265102
150217534896598,21.496753,-0.947993,0.274399,0.233828
150217544896980,21.506754,-0.637308,0.305731,0.299564
150217554897593,21.516754,-0.220146,0.301811,0.321689
150217564898194,21.526755,-0.213225,0.056547,0.574943
150217574898815,21.536756,0.047349,0.027069,0.843715
150217584899431,21.546756,0.537743,-0.074203,0.779812
150217594899985,21.556757,0.393201,0.102212,0.538884
150217604900578,21.566757,0.409444,0.419442,0.174262
150217614901165,21.576758,-0.103264,0.690233,-0.104989
150217624901539,21.586758,-0.551633,0.772886,-0.144683
150217634902141,21.596759,-0.585053,0.963037,0.075257
150217644902741,21.606759,-0.224552,0.610997,0.588893
150217654903282,21.616760,0.755303,0.122461,1.053123
150217664903907,21.626761,1.628032,-0.097761,1.189361
150217674904506,21.636761,2.415824,-0.03348,1.044622
150217684904888,21.646762,2.770353,0.295984,0.503521
150217694905501,21.656762,2.244686,0.264213,0.311923
150217704906128,21.666763,1.541442,0.288419,0.186965
150217714906741,21.676763,0.875381,0.246502,0.360277
150217724907357,21.686764,0.491989,0.163473,0.596959
150217734907890,21.696765,0.349033,0.209862,0.759299
150217744908516,21.706765,0.543735,0.247305,0.654057
150217754909122,21.716766,0.586969,0.281702,0.253431
150217764909492,21.726766,0.180428,0.471269,-0.196292
150217774910338,21.736767,-0.315328,0.632309,-0.46173
150217784910722,21.746767,-0.608499,0.376657,-0.3115
150217794911348,21.756768,-0.910014,0.071933,0.10035
150217804911977,21.766769,-0.550391,-0.034066,0.659706
150217814912530,21.776769,-0.112201,-0.007155,0.767172
150217824913131,21.786770,0.039912,0.198285,0.386365
150217834913747,21.796770,-4.47E-4,0.365989,-0.100447
150217844914123,21.806771,-0.300073,0.181546,-0.416512
150217854914747,21.816771,-0.902096,-0.067424,-0.470911
150217864915376,21.826772,-1.298676,-0.145915,-0.288227
150217874915977,21.836773,-0.935806,-0.26831,0.084152
150217884916508,21.846773,-0.35687,-0.475219,0.319943
150217894917126,21.856774,0.36797,-0.531856,0.374418
150217904917732,21.866774,0.414579,-0.351151,-0.043493
150217914918366,21.876775,0.124442,-0.208131,-0.215551
150217924918748,21.886775,-0.444823,-0.076821,-0.462519
150217934919361,21.896776,-1.067032,-0.121553,-0.432783
150217944919987,21.906777,-1.16014,-0.198928,-0.176278
150217954920537,21.916777,-0.643323,-0.263326,-0.006956
150217964921253,21.926778,-0.218997,-0.336395,0.155681
150217974921780,21.936778,0.294705,-0.415047,0.285034
150217984922381,21.946779,1.026783,-0.628346,0.384747
150217994922992,21.956780,1.235091,-0.713312,0.347749
150218004923385,21.966780,1.245455,-0.76443,0.362037
150218014923997,21.976781,0.984941,-0.713634,0.292027
150218024924626,21.986781,0.514041,-0.376191,0.023345
150218034925228,21.996782,-0.483125,-0.107603,-0.26998
150218044925777,22.006782,-1.02012,0.101954,-0.347587
150218054926390,22.016783,-1.477449,0.238262,-0.276939
150218064927006,22.026784,-1.616933,0.35341,-0.132898
150218074927608,22.036784,-1.160705,0.14259,0.288252
150218084928248,22.046785,-0.519323,0.223708,0.344696
150218094928605,22.056785,0.103229,0.297662,0.227342
150218104929209,22.066786,0.349044,0.417979,-0.044189
150218114929829,22.076787,0.132791,0.573532,-0.290562
150218124930434,22.086787,-0.376282,0.644828,-0.358139
150218134930958,22.096788,-0.780219,0.511484,-0.183745
150218144931573,22.106788,-0.613363,0.383343,0.108104
150218154932198,22.116789,-0.072963,0.395836,0.306879
150218164932814,22.126790,0.480238,0.361094,0.282399
150218174933205,22.136790,1.180485,0.162773,0.323972
150218184933828,22.146791,1.584056,0.113366,0.077802
150218194934444,22.156791,1.949842,0.015191,0.053526
150218204935044,22.166792,1.987502,-0.101701,0.054007
150218214935660,22.176792,1.762363,0.113921,0.034691
150218224936276,22.186793,1.289699,0.424898,0.045312
150218234936810,22.196793,0.470445,0.552539,0.103675
150218244937439,22.206794,-0.190328,0.769135,0.087791
150218254938030,22.216795,-0.417539,0.992218,0.017961
150218264938424,22.226795,-0.431341,1.019191,-0.038213
150218274939049,22.236796,-0.286824,0.949774,-0.046523
150218284939665,22.246796,0.231605,0.617418,0.215962
150218294940294,22.256797,0.978283,0.168931,0.622973
150218304940901,22.266798,1.479559,-0.068312,0.810078
150218314941516,22.276798,1.719241,0.108576,0.534396
150218324942054,22.286799,0.807771,0.426249,-0.03477
150218334942684,22.296799,-0.556108,0.70748,-0.581272
150218344943294,22.306800,-1.495499,0.857599,-0.942575
150218354943686,22.316800,-2.094763,0.600061,-0.759426
150218364944299,22.326801,-1.919518,0.282021,-0.244657
150218374944905,22.336802,-0.826086,0.081981,0.166802
150218384945520,22.346802,0.527082,0.056623,0.300508
150218394946136,22.356803,1.305177,0.113165,0.132931
