time,seconds_elapsed,z,y,x
150196038143313,0.000000,-0.3378375,0.087725,-0.523875
150196048144241,0.010001,-0.39655,0.1414875,-0.5935875
150196058145257,0.020002,-0.47465,0.2429625,-0.6974
150196068146185,0.030003,-0.44907498,0.2600125,-0.80245
150196078147344,0.040004,-0.471075,0.1194875,-0.9295
150196088148270,0.050005,-0.565125,-0.0856625,-0.9845
150196098149276,0.060006,-0.6444625,-0.27513748,-0.9942625
150196108150199,0.070007,-0.687225,-0.4522375,-1.0212125
150196118151368,0.080008,-0.758175,-0.495,-1.0737375
150196128152338,0.090009,-0.8069875,-0.42295,-1.14455
150196138153490,0.100010,-0.8155125,-0.337425,-1.26555
150196148154418,0.110011,-0.76175,-0.37895,-1.4256
150196158155432,0.120012,-0.56993747,-0.9139625,-1.500125
150196168156357,0.130013,-0.5308875,-1.187725,-1.534225
150196178157511,0.140014,-0.560175,-1.2255375,-1.4854125
150196188158427,0.150015,-0.5614125,-1.011725,-1.3925999
150196198159350,0.160016,-0.5064125,-0.6708625,-1.21055
150196208160367,0.170017,-0.44055,-0.3972375,-0.9796875
150196218161523,0.180018,-0.394075,-0.4107125,-0.7781125
150196228162461,0.190019,-0.416075,-0.5633375,-0.6534
150196238163461,0.200020,-0.504075,-0.6391,-0.6301625
150196248164387,0.210021,-0.538175,-0.50105,-0.6301625
150196258165324,0.220022,-0.3146,-0.2189,-0.5655375
150196268166557,0.230023,0.1753125,-0.150425,-0.517825
150196278167477,0.240024,0.5710375,-0.3069,-0.3309625
150196288168401,0.250025,0.7800375,-0.768625,-0.0059125
150196298169567,0.260026,0.7690375,-1.1595374,0.062425
150196308170481,0.270027,0.721325,-1.5395875,0.0295625
150196318171471,0.280028,0.7275125,-1.75945,0.0686125
150196328172396,0.290029,0.72627497,-1.838925,0.1491875
150196338173550,0.300030,0.643225,-1.673925,0.2017125
150196348174471,0.310031,0.5330875,-1.2634875,0.22275
150196358175473,0.320032,0.457325,-0.7319125,0.26427498
150196368176625,0.330033,0.4488,-0.2957625,0.35585
150196378177548,0.340034,0.48785,-0.189475,0.502425
150196388178457,0.350035,0.4720375,-0.3667125,0.6369
150196398179452,0.360036,0.38279998,-0.51205,0.662475
150196408180363,0.370037,0.3095125,-0.539,0.584375
150196418181300,0.380038,0.280225,-0.5682875,0.4706625
150196428182438,0.390039,0.31075,-0.7649125,0.43408749
150196438183454,0.400040,0.2899875,-0.9164375,0.5049
150196448184373,0.410041,0.45374998,-1.0362,0.540375
150196458185296,0.420042,0.5880875,-0.9494375,0.5476625
150196468186450,0.430043,0.6491375,-0.6793875,0.52085
150196478187384,0.440044,0.622325,-0.3667125,0.469425
150196488188396,0.450045,0.5416125,-0.1126125,0.4145625
150196498189319,0.460046,0.4085125,-0.0160875,0.430375
150196508190471,0.470047,0.3388,-0.12485,0.4450875
150196518191394,0.480048,0.28875,-0.2921875,0.4401375
150196528192314,0.490049,0.2167,-0.34595,0.4181375
150196538193300,0.500050,0.13365,-0.420475,0.3851375
150196548194214,0.510051,0.07865,-0.5743375,0.3705625
150196558195368,0.520052,0.073699996,-0.7038625,0.3900875
150196568196289,0.530053,0.07865,-0.7123875,0.4291375
150196578197281,0.540054,0.1018875,-0.66728747,0.46461248
150196588198419,0.550055,0.147125,-0.70015,0.52085
150196598199342,0.560056,0.1544125,-0.691625,0.5636125
150196608200255,0.570057,0.159225,-0.5633375,0.53185
150196618201184,0.580058,0.1519375,-0.487575,0.47685
150196628202186,0.590059,0.1397,-0.398475,0.36685
150196638203333,0.600060,0.2435125,-0.4338125,0.22385
150196648204255,0.610061,0.3755125,-0.487575,0.121275
150196658205178,0.620062,0.4158,-0.5108125,0.1310375
150196668206178,0.630063,0.4170375,-0.4717625,0.2019875
150196678207089,0.640064,0.4549875,-0.4802875,0.2690875
150196688208241,0.650065,0.4769875,-0.4497625,0.3216125
150196698209164,0.660066,0.4415125,-0.41195,0.30827498
150196708210101,0.670067,0.3938,-0.3507625,0.204325
150196718211127,0.680068,0.4024625,-0.36795,0.0540375
150196728212281,0.690069,0.5355625,-0.465575,-0.0424875
150196738213202,0.700070,0.655325,-0.763675,-0.0265375
150196748214120,0.710071,0.6956125,-0.9629125,-0.0350625
150196758215106,0.720072,0.7579,-0.9018625,-0.0070125
150196768216026,0.730073,0.782375,-0.5572875,-0.0204875
150196778216939,0.740074,0.7726125,-0.144375,-0.0705375
150196788218093,0.750075,0.771375,-0.034375,-0.1023
150196798219009,0.760076,0.843425,-0.238425,-0.115775
150196808219995,0.770077,0.935,-0.2957625,-0.069299996
150196818220926,0.780078,0.9229,-0.073425,-0.0045375
150196828221858,0.790079,0.821425,0.2624875,0.0540375
150196838223012,0.800080,0.755425,0.4873,0.1029875
150196848223933,0.810081,0.7456625,0.511775,0.1530375
150196858224924,0.820082,0.898425,0.5325375,0.143275
150196868226082,0.830083,1.0902375,0.5776375,0.0858
150196878226991,0.840084,1.1292875,0.495825,0.077275
150196888227890,0.850085,1.0597125,0.4054875,0.05775
150196898228895,0.860086,0.99495,0.1659625,0.0174625
150196938232847,0.900090,1.0377125,0.1379125,0.2385625
150196948233852,0.910091,0.70661247,0.4310625,0.1885125
150196958234787,0.920091,0.4024625,0.58753747,0.04675
150196968235710,0.930092,0.324225,0.523875,-0.082775
150196978236871,0.940094,0.512325,0.5325375,-0.1816375
150196988237786,0.950094,0.65285,0.6411625,-0.20735
150196998238769,0.960095,0.52085,0.6204,-0.1071125
150197008239694,0.970096,0.3119875,0.4555375,0.0479875
150197018240846,0.980098,0.2484625,0.236775,0.1725625
150197028241550,0.990098,0.280225,0.1194875,0.2666125
150197038242712,1.000099,0.3205125,0.064625,0.3485625
150197048243728,1.010100,0.3535125,0.091437496,0.397375
150197058244665,1.020101,0.1739375,0.164725,0.452375
150197068245588,1.030102,0.095699996,0.1513875,0.436425
150197078246745,1.040103,0.117699996,0.197725,0.3570875
150197088247665,1.050104,0.1043625,0.274725,0.26785
150197098248663,1.060105,0.1299375,0.2624875,0.1689875
150197108249569,1.070106,0.1299375,0.2869625,0.0858
150197118250506,1.080107,-0.0191125,0.302775,0.0639375
150197128251658,1.090108,-0.06545,0.2344375,0.071225
150197138252660,1.100109,-0.0556875,0.158675,0.1065625
150197148253588,1.110110,-0.06435,0.1329625,0.143275
150197158254517,1.120111,-0.0741125,0.15619999,0.1555125
150197168255440,1.130112,-0.0972125,0.1989625,0.148225
150197178256601,1.140113,-0.0776875,0.2380125,0.0968
150197188257604,1.150114,-0.1376375,0.3003,0.022275
150197198258522,1.160115,-0.243925,0.2992,0.01375
150197208259436,1.170116,-0.2024,0.16115,0.021175
150197218260588,1.180117,-0.2182125,0.042625,0.049225
150197228261503,1.190118,-0.33673748,0.0939125,0.1579875
150197238262426,1.200119,-0.3905,0.08415,0.270325
150197248263429,1.210120,-0.4197875,0.020624999,0.3741375
150197258264354,1.220121,-0.4283125,0.0658625,0.430375
150197268265506,1.230122,-0.3953125,0.2624875,0.3729
150197278266440,1.240123,-0.3392125,0.51535,0.2690875
150197288267457,1.250124,-0.3086875,0.62535,0.198275
150197298268382,1.260125,-0.30621248,0.66934997,0.2495625
150197308269305,1.270126,-0.3427875,0.6644,0.39985
150197318270228,1.280127,-0.3306875,0.6045875,0.518375
150197328271379,1.290128,-0.3147375,0.534875,0.5476625
150197338272368,1.300129,-0.2915,0.4395875,0.48785
150197348273296,1.310130,-0.276925,0.32725,0.3498
150197358274238,1.320131,-0.30745,0.21725,0.17379999
150197368275390,1.330132,-0.3722125,0.18425,0.0125124995
150197378276402,1.340133,-0.4467375,0.17325,-0.1010625
150197388277334,1.350134,-0.504075,0.0999625,-0.1645875
150197398278257,1.360135,-0.5297875,0.009625,-0.198825
150197408279176,1.370136,-0.5126,-0.012375,-0.2244
150197418280327,1.380137,-0.4797375,-0.01485,-0.26235
150197428281252,1.390138,-0.4698375,-0.0441375,-0.2916375
150197438282250,1.400139,-0.4662625,-0.106425,-0.3014
150197448283167,1.410140,-0.4662625,-0.1821875,-0.3306875
150197458284318,1.420141,-0.4588375,-0.21395,-0.3894
150197468285229,1.430142,-0.42473748,-0.177375,-0.4626875
150197478286227,1.440143,-0.366025,-0.1236125,-0.5445
150197488287147,1.450144,-0.3207875,-0.0796125,-0.60445
150197498288070,1.460145,-0.31845,-0.0270875,-0.5885
150197508289222,1.470146,-0.34045,0.020624999,-0.5102625
150197518290157,1.480147,-0.35255,0.0328625,-0.4052125
150197528291074,1.490148,-0.32945,0.0121,-0.3086875
150197538291997,1.500149,-0.29645,-0.06985,-0.231825
150197548292958,1.510150,-0.265925,-0.1639,-0.1793
150197558294112,1.520151,-0.2561625,-0.266475,-0.1573
150197568295032,1.530152,-0.2572625,-0.3532375,-0.1486375
150197578296015,1.540153,-0.2671625,-0.385,-0.1463
150197588296945,1.550154,-0.2695,-0.3702875,-0.149875
150197598297868,1.560155,-0.2585,-0.321475,-0.1706375
150197608299020,1.570156,-0.2451625,-0.275,-0.1683
150197618299940,1.580157,-0.2426875,-0.2409,-0.1425875
150197628300938,1.590158,-0.265925,-0.2591875,-0.1060125
150197663304320,1.625161,-0.4393125,-0.5572875,-0.1145375
150197673305477,1.635162,-0.45155,-0.4607625,-0.091299996
150197683306405,1.645163,-0.4503125,-0.310475,-0.0620125
150197693307330,1.655164,-0.4503125,-0.1931875,-0.0215875
150197703308335,1.665165,-0.4662625,-0.1651375,0.0259875
150197713309258,1.675166,-0.4833125,-0.22495,0.0345125
150197723310416,1.685167,-0.4833125,-0.327525,0.0089375
150197733311414,1.695168,-0.47355,-0.40094998,-0.0363
150197743312352,1.705169,-0.4565,-0.3947625,-0.0900625
150197753313300,1.715170,-0.4588375,-0.3447125,-0.1060125
150197763314468,1.725171,-0.4675,-0.25795,-0.0803
150197773315384,1.735172,-0.4675,-0.2127125,-0.0545875
150197783316307,1.745173,-0.4527875,-0.22013749,-0.0325875
150197793317312,1.755174,-0.42473748,-0.25547498,-0.033825
150197803318242,1.765175,-0.39421248,-0.304425,-0.0705375
150197813319380,1.775176,-0.3843125,-0.341,-0.1230625
150197823320380,1.785177,-0.4173125,-0.3422375,-0.1670625
150197833321309,1.795178,-0.465025,-0.315425,-0.1596375
150197843322247,1.805179,-0.4967875,-0.34595,-0.1353
150197853323389,1.815180,-0.4992625,-0.4252875,-0.1023
150197863324312,1.825181,-0.4723125,-0.520575,-0.082775
150197873325312,1.835182,-0.4345,-0.5743375,-0.093775
150197883326238,1.845183,-0.4087875,-0.5878125,-0.110825
150197893327167,1.855184,-0.4063125,-0.5902875,-0.13035
150197903328321,1.865185,-0.41854998,-0.5682875,-0.1425875
150197913329242,1.875186,-0.443025,-0.5633375,-0.1511125
150197923330150,1.885187,-0.44907498,-0.575575,-0.1243
150197933331143,1.895188,-0.42473748,-0.641575,-0.0741125
150197943332295,1.905189,-0.3905,-0.7319125,-0.0215875
150197953333218,1.915190,-0.359975,-0.78815,0.03575
150197963334136,1.925191,-0.33673748,-0.785675,0.0944625
150197973335138,1.935192,-0.3172125,-0.7759125,0.137225
150197983336299,1.945193,-0.287925,-0.7869125,0.1615625
150197993337208,1.955194,-0.2267375,-0.7954375,0.165275
150198003338141,1.965195,-0.150975,-0.6782875,0.088275
150198013339044,1.975196,-0.06545,-0.7979125,0.0675125
150198023340046,1.985197,-0.0801625,-0.707575,0.1408
150198033341203,1.995198,-0.1584,-0.3752375,0.23375
150198043342112,2.005199,-0.1706375,-0.1907125,0.2410375
150198053343034,2.015200,-0.14739999,-0.1271875,0.215325
150198063344032,2.025201,-0.17545,-0.233475,0.1615625
150198073344940,2.035202,-0.2072125,-0.45705,0.087037496
150198083346087,2.045203,-0.2182125,-0.5267625,0.044275
150198093347015,2.055204,-0.3122625,-0.41195,0.0565125
150198103347948,2.065205,-0.37454998,-0.2506625,0.0760375
150198113348950,2.075206,-0.40755,-0.1309,0.109037496
150198123350087,2.085207,-0.3905,-0.0820875,0.2055625
150198133351005,2.095208,-0.42473748,-0.0991375,0.3595625
150198143351914,2.105209,-0.4235,-0.194425,0.51094997
150198153352899,2.115210,-0.40755,-0.277475,0.6172375
150198163353825,2.125211,-0.4307875,-0.34347498,0.6307125
150198173355005,2.135212,-0.4417875,-0.3752375,0.5806625
150198183355915,2.145213,-0.4052125,-0.3581875,0.496375
150198193356830,2.155214,-0.3587375,-0.319,0.38279998
150198203357825,2.165215,-0.3245,-0.264,0.3020875
150198213358777,2.175215,-0.287925,-0.188375,0.2618
150198223359929,2.185217,-0.243925,-0.0941875,0.2800875
150198233360923,2.195218,-0.1986875,0.0341,0.303325
150198243361858,2.205219,-0.1546875,0.2124375,0.314325
150198253362781,2.215219,-0.127875,0.34925,0.3375625
150198263363709,2.225220,-0.1034,0.3944875,0.369325
150198273364853,2.235222,-0.083875,0.3333,0.446325
150198283365774,2.245222,-0.07645,0.2124375,0.5379
150198293366790,2.255223,-0.0972125,0.103675,0.6136625
150198303367704,2.265224,-0.1412125,0.0548625,0.6381375
150198313368866,2.275226,-0.1742125,0.0218625,0.6111875
150198323369866,2.285227,-0.199925,-0.0196625,0.584375
150198333370781,2.295227,-0.199925,-0.0380875,0.53061247
150198343371676,2.305228,-0.1694,-0.045375,0.4266625
150198353372828,2.315230,-0.1192125,-0.01485,0.298375
150198363373756,2.325230,-0.0556875,0.0584375,0.1885125
150198373374679,2.335231,-8.25E-4,0.1464375,0.109037496
150198383375674,2.345232,0.048125,0.208725,0.049225
150198393376575,2.355233,0.0944625,0.2039125,0.0529375
150198403377736,2.365234,0.126225,0.13915,0.1359875
150198413378649,2.375235,0.159225,0.0658625,0.2446125
150198423379562,2.385236,0.1959375,0.0231,0.32285
150198433380548,2.395237,0.2129875,0.0548625,0.3180375
150198443381474,2.405238,0.2154625,0.180675,0.2605625
150198453382615,2.415239,0.214225,0.291775,0.20075
150198463383524,2.425240,0.2129875,0.3102,0.1799875
150198473384527,2.435241,0.2179375,0.2514875,0.198275
150198483385459,2.445242,0.2179375,0.19167499,0.237325
150198493386615,2.455243,0.203225,0.1549625,0.2655125
150198503387539,2.465244,0.170225,0.16115,0.275275
150198513388462,2.475245,0.1458875,0.1879625,0.2630375
150198523389385,2.485246,0.131175,0.21367499,0.237325
150198533390387,2.495247,0.1189375,0.2454375,0.1885125
150198543391539,2.505248,0.103125,0.263725,0.137225
150198553392462,2.515249,0.0774125,0.27225,0.1175625
150198563393404,2.525250,0.048125,0.2905375,0.1139875
150198573394399,2.535251,0.01265,0.3333,0.1249875
150198583395314,2.545252,-0.011825,0.36025,0.14575
150198593396238,2.555253,-0.017875,0.34925,0.159225
150198603397391,2.565254,0.0114124995,0.3212,0.171325
150198613398418,2.575255,0.0688875,0.374825,0.120037496
150198623399358,2.585256,0.1934625,0.313775,-0.033825
150198633400295,2.595257,0.2717,0.35901248,-0.091299996
150198643401204,2.605258,0.26675,0.4750625,-0.1060125
150198653402362,2.615259,0.2435125,0.6754,-0.07535
150198663403288,2.625260,0.219175,0.73039997,-0.013062499
150198673404307,2.635261,0.2204125,0.5973,0.0724625
150198683405247,2.645262,0.225225,0.434775,0.1775125
150198693406413,2.655263,0.214225,0.3883,0.3180375
150198703407336,2.665264,0.21065,0.3553,0.4291375
150198713408245,2.675265,0.22165,0.2784375,0.4901875
150198723409254,2.685266,0.23375,0.1782,0.48785
150198733410171,2.695267,0.2349875,0.103675,0.4046625
150198743411094,2.705268,0.2729375,0.0083875,0.26785
150198753412241,2.715269,0.285175,-0.0721875,0.1359875
150198763413189,2.725270,0.302225,-0.029424999,-0.0070125
150198773414126,2.735271,0.324225,0.059675,-0.1535875
150198783415030,2.745272,0.35475,0.1549625,-0.275825
150198793416037,2.755273,0.3925625,0.2344375,-0.34045
150198803416964,2.765274,0.40974998,0.3003,-0.3344
150198813418133,2.775275,0.4170375,0.368775,-0.23539999
150198823419054,2.785276,0.4255625,0.34553748,-0.1120625
150198833420056,2.795277,0.435325,0.247775,-0.0033
150198843420979,2.805278,0.435325,0.16225,0.0724625
150198853421897,2.815279,0.445225,0.1574375,0.104225
150198863423049,2.825280,0.4500375,0.2112,0.10175
150198873423972,2.835281,0.4610375,0.2795375,0.0847
150198883424905,2.845282,0.462275,0.302775,0.0919875
150198893425909,2.855283,0.462275,0.2979625,0.12375
150198903426834,2.865284,0.4439875,0.247775,0.1640375
150198913427757,2.875284,0.3999875,0.18315,0.2105125
150198923428686,2.885285,0.3290375,0.1304875,0.26427498
150198933429830,2.895287,0.2545125,0.081675,0.292325
150198943430752,2.905287,0.1837,0.0413875,0.297275
150198953431737,2.915288,0.1458875,0.0108624995,0.2666125
150198963432667,2.925289,0.1397,0.0169125,0.182325
150198973433590,2.935290,0.1519375,0.092675,0.077275
150198983434737,2.945291,0.1617,0.2050125,-0.03025
150198993435646,2.955292,0.1507,0.3333,-0.116875
150199003436569,2.965293,0.131175,0.4164875,-0.1511125
150199013437578,2.975294,0.1214125,0.4175875,-0.1230625
150199023438501,2.985295,0.11165,0.3443,-0.0325875
150199033439426,2.995296,0.1054625,0.2514875,0.0419375
150199043440349,3.005297,0.0969375,0.1672,0.0589875
150199053441506,3.015298,0.081125,0.158675,0.021175
150199063442429,3.025299,0.056649998,0.2099625,-0.049775
150199073443352,3.035300,0.0298375,0.2882,-0.104775
150199083444368,3.045301,0.0066,0.3419625,-0.0961125
150199093445291,3.055302,-0.0081124995,0.3760625,-0.027775
150199103446214,3.065303,-0.0166375,0.3394875,0.0479875
150199113447360,3.075304,0.00165,0.27719998,0.073699996
150199123448298,3.085305,0.0163625,0.23925,0.021175
150199133449222,3.095306,0.010175,0.2112,-0.077825
150199143450140,3.105307,-0.0056375,0.19167499,-0.1780625
150199153451142,3.115308,-0.0264,0.1964875,-0.2415875
150199163452084,3.125309,-0.0301125,0.1940125,-0.2831125
150199173452997,3.135310,-0.0226875,0.263725,-0.3246375
150199183454149,3.145311,-0.0081124995,0.2454375,-0.414975
150199193455058,3.155312,0.015125,0.2674375,-0.4797375
150199203455986,3.165313,0.010175,0.4054875,-0.53845
150199213456904,3.175314,0.0163625,0.329725,-0.5946875
150199223457904,3.185315,-0.0166375,0.2564375,-0.436975
150199233458829,3.195316,-0.050875,0.1549625,-0.2501125
150199243459756,3.205316,-0.0446875,0.0694375,-0.1401125
150199253460665,3.215317,-0.045925,0.0559625,-0.0741125
150199263461588,3.225318,-0.0704,0.0559625,-0.0143
150199273462742,3.235319,-0.0972125,0.0231,0.0419375
150199283463668,3.245320,-0.1082125,-0.0075625,0.0944625
150199293464592,3.255321,-0.127875,-1.375E-4,0.1408
150199303465580,3.265322,-0.1412125,0.015675,0.1555125
150199313466508,3.275323,-0.1412125,0.037675,0.1359875
150199323467431,3.285324,-0.1302125,0.0694375,0.0834625
150199333468354,3.295325,-0.0996875,0.0963875,0.0125124995
150199343469272,3.305326,-0.0581625,0.114675,-0.0741125
150199353470434,3.315327,-0.017875,0.1599125,-0.1340625
150199363471356,3.325328,0.026124999,0.2039125,-0.2231625
150199373472352,3.335329,0.0859375,0.197725,-0.3086875
150199383473281,3.345330,0.1299375,0.2112,-0.3111625
150199393474202,3.355331,0.1617,0.202675,-0.2904
150199403475142,3.365332,0.1714625,0.2820125,-0.24035
150199413476055,3.375333,0.164175,0.296725,-0.21835
150199423476992,3.385334,0.14465,0.246675,-0.116875
150199433478158,3.395335,0.1299375,0.2222,0.0149875
150199443479081,3.405336,0.12265,0.1854875,0.121275
150199453480005,3.415337,0.1324125,0.1599125,0.1835625
150199463480928,3.425338,0.1458875,0.1684375,0.2250875
150199473481930,3.435339,0.1604625,0.21725,0.25685
150199483482858,3.445340,0.175175,0.2514875,0.2838
150199493483781,3.455340,0.175175,0.2234375,0.2985125
150199503484689,3.465341,0.16665,0.1513875,0.2666125
150199513485841,3.475343,0.15565,0.1073875,0.181225
150199523486779,3.485343,0.1434125,0.119625,0.0589875
150199533487707,3.495344,0.1434125,0.15015,-0.03025
150199543488630,3.505345,0.148225,0.21367499,-0.044825
150199553489558,3.515346,0.164175,0.263725,-0.013062499
150199563490557,3.525347,0.181225,0.27225,0.0284625
150199573491454,3.535348,0.1909875,0.26125,0.0724625
150199583492381,3.545349,0.1959375,0.19525,0.1067
150199593493292,3.555350,0.2008875,0.1049125,0.1249875
150199603494215,3.565351,0.1874125,0.0389125,0.1310375
150199613495138,3.575352,0.1739375,0.0193875,0.110275
150199623496061,3.585353,0.175175,0.0231,0.04675
150199633497215,3.595354,0.181225,0.0719125,-0.0215875
150199643498136,3.605355,0.2019875,0.1293875,-0.0595375
150199653499077,3.615356,0.2387,0.180675,-0.1035375
150199663499995,3.625357,0.269225,0.219725,-0.176825
150199673500933,3.635358,0.280225,0.274725,-0.2684
150199683501949,3.645359,0.27775,0.3700125,-0.347875
150199693502843,3.655360,0.2655125,0.48235,-0.4126375
150199703503748,3.665360,0.269225,0.3614875,-0.4992625
150199713504902,3.675362,0.269225,0.318725,-0.4602125
150199723505595,3.685362,0.2754125,0.2844875,-0.419925
150199733506746,3.695363,0.2717,0.224675,-0.3601125
150199743507655,3.705364,0.2497,0.1879625,-0.2635875
150199753508598,3.715365,0.2314125,0.1304875,-0.176825
150199763509525,3.725366,0.2094125,0.0792,-0.0925375
150199773510525,3.735367,0.1788875,0.0364375,-0.03025
150199783511431,3.745368,0.159225,0.0352,0.0064625
150199793512349,3.755369,0.1604625,0.0572,0.0259875
150199803513272,3.765370,0.169125,0.0829125,0.0077
150199813514195,3.775371,0.1788875,0.0902,-0.044825
150199823515118,3.785372,0.18865,0.0829125,-0.115775
150199833516277,3.795373,0.192225,0.0902,-0.138875
150199843517198,3.805374,0.18865,0.0804375,-0.1035375
150199853518106,3.815375,0.170225,0.091437496,-0.0473
150199863519044,3.825376,0.1397,0.169675,0.0309375
150199873519982,3.835377,0.10065,0.1379125,0.060225
150199883520905,3.845378,0.0639375,0.0413875,0.098037496
150199893521823,3.855379,0.0529375,-0.0319,0.1408
150199903522746,3.865379,0.0726,-0.0991375,0.099275
150199913523744,3.875380,0.095699996,-0.117425,-0.0020625
150199923524667,3.885381,0.11165,-0.0551375,-0.1315875
150199933525585,3.895382,0.1274625,0.07315,-0.2366375
150199943526512,3.905383,0.1287,0.2149125,-0.3026375
150199953527454,3.915384,0.1287,0.3504875,-0.2965875
150199963528396,3.925385,0.1434125,0.384725,-0.2391125
150199973529329,3.935386,0.1299375,0.2662,-0.127875
150199983530481,3.945387,0.125125,0.169675,0.0284625
150199993531395,3.955388,0.1238875,0.0792,0.1139875
150200003532314,3.965389,0.1164625,0.0023375,0.1139875
150200013533237,3.975390,0.1043625,-0.018424999,0.0504625
150200023534155,3.985391,0.0774125,0.0121,-0.0155375
150200033535093,3.995392,0.0419375,0.0719125,-0.05335
150200043536016,4.005393,0.034649998,0.1342,-0.0705375
150200053537013,4.015394,0.0506,0.164725,-0.0730125
150200063537940,4.025395,0.081125,0.19167499,-0.082775
150200073538863,4.035396,0.11165,0.1744875,-0.09735
150200083539786,4.045396,0.1287,0.1293875,-0.1230625
150200093540709,4.055397,0.147125,0.1329625,-0.1291125
150200103541632,4.065398,0.153175,0.131725,-0.121825
150200113542794,4.075399,0.14465,0.1464375,-0.0875875
150200123543717,4.085400,0.1287,0.147675,-0.0400125
150200133544626,4.095401,0.1263625,0.113437496,-8.25E-4
150200143545539,4.105402,0.1348875,0.0902,0.0309375
150200153546462,4.115403,0.142175,0.059675,0.033275
150200163547385,4.125404,0.1434125,0.02915,0.016224999
150200173548308,4.135405,0.148225,0.020624999,-0.0045375
150200183549231,4.145406,0.15565,0.02915,-0.0180125
150200193550151,4.155407,0.164175,0.064625,-0.013062499
150200203551168,4.165408,0.1678875,0.0902,0.0187
150200213552077,4.175409,0.1714625,0.0669625,0.0650375
150200223553021,4.185410,0.1739375,0.0011,0.1005125
150200233553939,4.195411,0.16665,-0.039325,0.1078
150200243554868,4.205412,0.1458875,-0.050325,0.0895125
150200253555815,4.215413,0.1153625,-0.0221375,0.05775
150200263556723,4.225413,0.092125,0.0389125,0.05775
150200273557651,4.235414,0.076175,0.0743875,0.0639375
150200283558574,4.245415,0.0603625,0.0694375,0.0529375
150200293559483,4.255416,0.056649998,0.042625,0.0297
150200303560406,4.265417,0.065175,0.0242,-8.25E-4
150200313561545,4.275418,0.0774125,0.04015,-0.0240625
150200323562467,4.285419,0.0933625,0.103675,-8.25E-4
150200333563389,4.295420,0.1043625,0.1782,0.0699875
150200343564312,4.305421,0.1067,0.2050125,0.1725625
150200353565235,4.315422,0.103125,0.153725,0.2580875
150200363566164,4.325423,0.103125,0.0451,0.2985125
150200373567073,4.335424,0.1104125,-0.0611875,0.286275
150200383567996,4.345425,0.12265,-0.089375,0.242275
150200393568919,4.355426,0.131175,-0.0611875,0.1909875
150200403569919,4.365427,0.13365,-0.001375,0.143275
150200413570848,4.375428,0.1287,0.05115,0.0847
150200423571767,4.385428,0.120175,0.09515,0.0627
150200433572704,4.395429,0.0994125,0.0963875,0.07975
150200443573622,4.405430,0.0798875,0.064625,0.0944625
150200453574526,4.415431,0.0639375,0.0254375,0.0944625
150200463575454,4.425432,0.054175,-0.0026125,0.0785125
150200473576378,4.435433,0.0578875,-0.0209,0.0284625
150200483577301,4.445434,0.076175,-0.017324999,-0.03025
150200493578238,4.455435,0.1018875,0.00715,-0.088825
150200503579161,4.465436,0.1263625,0.0389125,-0.16335
150200513580084,4.475437,0.147125,0.09515,-0.2171125
150200523581007,4.485438,0.153175,0.1439625,-0.2171125
150200533582161,4.495439,0.142175,0.1819125,-0.13653749
150200543582853,4.505440,0.1263625,0.1819125,0.00275
150200553584005,4.515441,0.1128875,0.1464375,0.1518
150200563584914,4.525442,0.1128875,0.102437496,0.2508
150200573585837,4.535443,0.1214125,0.0658625,0.27885
150200583586751,4.545443,0.1299375,0.0413875,0.2360875
150200593587684,4.555444,0.1263625,0.0328625,0.1775125
150200603588621,4.565445,0.1104125,0.0303875,0.12375
150200613589544,4.575446,0.0946,0.0438625,0.073699996
150200623590472,4.585447,0.0836,0.0523875,0.02475
150200633591404,4.595448,0.07865,0.037675,-0.0020625
150200643592329,4.605449,0.0933625,-0.012375,-0.011825
150200653593250,4.615450,0.1164625,-0.06985,-0.0105875
150200663594179,4.625451,0.142175,-0.0746625,-0.0375375
150200673595181,4.635452,0.158125,-0.0246125,-0.0655875
150200683596104,4.645453,0.159225,0.0561,-0.0925375
150200693597036,4.655454,0.1494625,0.1342,-0.0985875
150200703597946,4.665455,0.136125,0.1709125,-0.07535
150200713598869,4.675456,0.1287,0.1489125,-0.0290125
150200723599792,4.685456,0.131175,0.0829125,0.038225
150200733600715,4.695457,0.1494625,0.015675,0.07975
150200743601638,4.705458,0.1678875,-0.0331375,0.0699875
150200753602561,4.715459,0.186175,-0.062425,4.125E-4
150200763603469,4.725460,0.197175,-0.047849998,-0.1145375
150200773604373,4.735461,0.1984125,0.0193875,-0.2085875
150200783605525,4.745462,0.2044625,0.1109625,-0.25135
150200793606219,4.755463,0.2118875,0.169675,-0.2476375
150200803607366,4.765464,0.2204125,0.18315,-0.2024
150200813608066,4.775465,0.2167,0.1513875,-0.127875
150200823609222,4.785466,0.219175,0.075625,-0.066825
150200833610155,4.795467,0.22275,0.0133375,-0.066825
150200843611083,4.805468,0.2239875,0.0169125,-0.1266375
150200853612006,4.815469,0.214225,0.0669625,-0.1901625
150200863612919,4.825470,0.203225,0.1329625,-0.2110625
150200873613856,4.835471,0.19965,0.1599125,-0.176825
150200883614842,4.845472,0.21065,0.13915,-0.105875
150200893615690,4.855472,0.22893749,0.092675,-0.0485375
150200903616688,4.865473,0.2387,0.0572,-0.03025
150200913617616,4.875474,0.23375,0.0303875,-0.066825
150200923618463,4.885475,0.22893749,-0.0050875,-0.132825
150200933619468,4.895476,0.22165,-1.375E-4,-0.1865875
150200943620407,4.905477,0.2118875,0.048675,-0.1926375
150200953621335,4.915478,0.208175,0.09515,-0.15235
150200963622258,4.925479,0.21065,0.125675,-0.08635
150200973623171,4.935480,0.2129875,0.11715,-0.0325875
150200983624094,4.945481,0.2094125,0.0853875,-0.016775
150200993625012,4.955482,0.2118875,0.0328625,-0.02035
150201003625915,4.965483,0.225225,-0.006325,-0.0411125
150201013626833,4.975484,0.2459875,0.0231,-0.0583
150201023627757,4.985484,0.252175,0.0792,-0.0510125
150201033628894,4.995486,0.25465,0.1342,-0.0155375
150201043629817,5.005487,0.2534125,0.1439625,0.027224999
150201053630727,5.015487,0.2484625,0.097625,0.060225
150201063631664,5.025488,0.225225,0.0133375,0.0859375
150201073632597,5.035489,0.2008875,-0.047849998,0.0895125
150201083633515,5.045490,0.18493749,-0.078375,0.0749375
150201093634433,5.055491,0.16665,-0.045375,0.0785125
150201103635365,5.065492,0.1494625,0.037675,0.082225
150201113636274,5.075493,0.131175,0.1183875,0.095699996
150201123637197,5.085494,0.1153625,0.1513875,0.12979999
150201133638134,5.095495,0.10065,0.11715,0.148225
150201143639057,5.105496,0.0749375,0.0364375,0.13475
150201153640053,5.115497,0.0493625,-0.0246125,0.066275
150201163640978,5.125498,0.032175,-0.040425,-0.0411125
150201173641912,5.135499,0.0383625,-0.006325,-0.14135
150201183642835,5.145500,0.0664125,0.070675,-0.2036375
150201193643758,5.155500,0.098175,0.1672,-0.2011625
150201203644686,5.165501,0.1164625,0.2454375,-0.1353
150201213645623,5.175502,0.114125,0.258775,-0.0375375
150201223646561,5.185503,0.0969375,0.197725,0.06875
150201233647484,5.195504,0.0688875,0.1073875,0.13475
150201243648626,5.205505,0.054175,0.0341,0.1469875
150201253649563,5.215506,0.056649998,-0.0026125,0.1139875
150201263650491,5.225507,0.0628375,0.0144375,0.044275
150201273651404,5.235508,0.065175,0.0548625,-0.0375375
150201283652343,5.245509,0.06765,0.0889625,-0.132825
150201293653357,5.255510,0.0639375,0.103675,-0.221925
150201303654191,5.265511,0.0444125,0.0792,-0.276925
150201313655131,5.275512,0.0286,0.0633875,-0.2916375
150201323656128,5.285513,0.0114124995,0.053625,-0.27335
150201333657056,5.295514,0.00165,0.0779625,-0.220825
150201343657900,5.305515,-0.0105875,0.13915,-0.1120625
150201353658894,5.315516,-0.0264,0.180675,0.0394625
150201363659805,5.325516,-0.0496375,0.142725,0.154275
150201373660728,5.335517,-0.0752125,0.0572,0.1775125
150201383661666,5.345518,-0.0911625,-0.0380875,0.1078
150201393662603,5.355519,-0.0776875,-0.058849998,-0.027775
150201403663526,5.365520,-0.05335,-0.012375,-0.1584
150201413664449,5.375521,-0.0276375,0.102437496,-0.221925
150201423665587,5.385522,-0.012925,0.2259125,-0.2024
150201433666496,5.395523,-0.017875,0.2600125,-0.116875
150201443667414,5.405524,-0.0226875,0.18315,-0.0350625
150201453668322,5.415525,-0.006875,0.0254375,-0.0363
150201463669245,5.425526,0.0298375,-0.1296625,-0.10835
150201473670154,5.435527,0.06765,-0.183425,-0.221925
150201483671072,5.445528,0.095699996,-0.0820875,-0.336875
150201493671986,5.455529,0.1153625,0.1414875,-0.3661625
150201503672927,5.465530,0.1189375,0.3125375,-0.276925
150201513673926,5.475531,0.1128875,0.3419625,-0.0741125
150201523674849,5.485532,0.1067,0.2294875,0.148225
150201533675772,5.495532,0.098175,0.037675,0.2728
150201543676695,5.505533,0.092125,-0.11385,0.2765125
150201553677604,5.515534,0.0713625,-0.1577125,0.1799875
150201563678513,5.525535,0.0493625,-0.08085,0.0224125
150201573679440,5.535536,0.032175,0.0499125,-0.1095875
150201583680363,5.545537,0.037125,0.1513875,-0.1645875
150201593681291,5.555538,0.0493625,0.1904375,-0.138875
150201603682214,5.565539,0.0383625,0.16115,-0.049775
150201613683166,5.575540,-0.0044,0.091437496,0.0919875
150201623684302,5.585541,-0.0556875,0.0144375,0.1970375
150201633685240,5.595542,-0.1034,-0.0881375,0.2068
150201643686164,5.605543,-0.139975,-0.15895,0.1420375
150201653687096,5.615544,-0.13145,-0.1846625,-0.0045375
150201663688010,5.625545,-0.0972125,-0.1076625,-0.1804
150201673688997,5.635546,-0.083875,0.037675,-0.28187498
150201683689841,5.645547,-0.0814,0.1709125,-0.2745875
150201693690857,5.655548,-0.0752125,0.2112,-0.20487499
150201703691719,5.665548,-0.06545,0.1819125,-0.1120625
150201713692698,5.675549,-0.06545,0.1049125,-0.022824999
150201723693623,5.685550,-0.0716375,-0.0050875,0.02475
150201733694546,5.695551,-0.0631125,-0.1199,0.021175
150201743695470,5.705552,-0.0361625,-0.139425,-0.0521125
150201753696388,5.715553,-0.0044,-0.11385,-0.1621125
150201763697316,5.725554,0.0248875,-0.023375,-0.2831125
150201773698463,5.735555,0.0506,0.0779625,-0.3526875
150201783699372,5.745556,0.0688875,0.169675,-0.3526875
150201793700066,5.755557,0.06765,0.20019999,-0.3001625
150201803701208,5.765558,0.0529375,0.13915,-0.2341625
150201813701902,5.775559,0.032175,0.0474375,-0.1645875
150201823703049,5.785560,0.01265,-0.0246125,-0.104775
150201833703758,5.795560,0.0053625,0.004675,-0.0595375
150201843704895,5.805562,0.0028875,0.0939125,-8.25E-4
150201853705833,5.815563,-0.0044,0.1769625,0.0969375
150201863706747,5.825563,-0.0105875,0.2050125,0.2165625
150201873707675,5.835564,-0.017875,0.1634875,0.3106125
150201883708612,5.845565,-0.02035,0.0584375,0.336325
150201893709537,5.855566,-0.0276375,-0.078375,0.2765125
150201903710458,5.865567,-0.0386375,-0.1821875,0.1274625
150201913711383,5.875568,-0.043449998,-0.19195,-0.0765875
150201923712381,5.885569,-0.0446875,-0.1467125,-0.2476375
150201933713301,5.895570,-0.039875,-0.067375,-0.3674
150201943714224,5.905571,-0.0325875,-0.006325,-0.4137375
150201953715147,5.915572,-0.02035,0.020624999,-0.408925
150201963716089,5.925573,-0.00935,-0.0416625,-0.3894
150201973717004,5.935574,4.125E-4,-0.1247125,-0.375925
150201983717927,5.945575,4.125E-4,-0.188375,-0.41745
150201993718845,5.955576,0.010175,-0.2189,-0.50545
150202003719772,5.965576,0.0383625,-0.183425,-0.579975
150202013720695,5.975577,0.065175,-0.062425,-0.579975
150202023721609,5.985578,0.1043625,0.120725,-0.474925
150202033722521,5.995579,0.1299375,0.27225,-0.2476375
150202043723675,6.005580,0.14465,0.28325,0.0297
150202053724591,6.015581,0.1458875,0.15619999,0.2520375
150202063725514,6.025582,0.120175,-0.028324999,0.353375
150202073726423,6.035583,0.06765,-0.21395,0.28985
150202083727360,6.045584,0.020075,-0.275,0.11275
150202093728284,6.055585,4.125E-4,-0.2371875,-0.08635
150202103729207,6.065586,0.0163625,-0.139425,-0.1901625
150202113730130,6.075587,0.0408375,-0.0075625,-0.237875
150202123731053,6.085588,0.0847,0.1012,-0.2256375
150202133731957,6.095589,0.1067,0.153725,-0.1804
150202143732947,6.105590,0.10065,0.2099625,-0.160875
150202153733877,6.115591,0.1018875,0.1414875,-0.237875
150202163734803,6.125591,0.0468875,0.113437496,-0.3196875
150202173735707,6.135592,-0.001925,0.0609125,-0.35145
150202183736553,6.145593,-0.0056375,-0.028324999,-0.32835
150202193737550,6.155594,0.0188375,-0.0429,-0.32587498
150202203738492,6.165595,0.059125,-0.017324999,-0.331925
150202213739417,6.175596,0.087175,-0.0820875,-0.3674
150202223740340,6.185597,0.0908875,-0.0636625,-0.3906375
150202233741258,6.195598,0.1153625,0.0939125,-0.4602125
150202243742210,6.205599,0.1824625,0.2099625,-0.67155
150202253743119,6.215600,0.26675,0.26125,-0.8756
150202263744042,6.225601,0.3009875,0.263725,-1.1028875
150202273744964,6.235602,0.3169375,0.3432,-1.3704625
150202283745887,6.245603,0.3609375,0.2820125,-1.5598
150202293746806,6.255603,0.3377,0.247775,-1.645325
150202303747958,6.265605,0.24475,0.2074875,-1.6880875
150202313748895,6.275606,0.125125,-0.012375,-1.6025625
150202323749571,6.285606,0.032175,-0.24695,-1.204225
150202333750723,6.295607,0.0664125,0.0694375,-0.6105
150202343751646,6.305608,0.08965,0.158675,0.0627
150202353752583,6.315609,-0.001925,0.0878625,0.57585
150202363753306,6.325610,-0.194975,0.0023375,0.8812375
150202373754463,6.335611,-0.388025,-0.056375,1.0058125
150202383755371,6.345612,-0.46873748,-0.1016125,1.0131
150202393756308,6.355613,-0.476025,-0.2286625,0.89705
150202403757235,6.365614,-0.5187875,-0.41799998,0.6906625
150202413758144,6.375615,-0.4565,-0.2726625,0.5341875
150202423759068,6.385616,-0.2682625,0.108625,0.501325
150202433759991,6.395617,-0.0154,0.269775,0.5561875
150202443760914,6.405618,0.131175,0.1524875,0.551375
150202453761823,6.415619,0.18865,0.28325,0.55385
150202463762765,6.425619,0.18493749,0.3102,0.5941375
150202473763702,6.435620,0.1214125,0.202675,0.6661875
150202483764625,6.445621,0.0444125,0.1452,0.739475
150202493765563,6.455622,-0.0166375,0.1549625,0.7467625
150202503766500,6.465623,-0.0031625,0.0999625,0.6991875
150202513767418,6.475624,-0.0154,-0.1357125,0.5977125
150202523768342,6.485625,-0.072875,-0.3397625,0.5611375
150202533769251,6.495626,-0.067925,-0.2872375,0.584375
150202543770169,6.505627,0.0847,-0.2176625,0.6246625
150202553771166,6.515628,0.1324125,-0.11495,0.58795
150202563771991,6.525629,0.18865,-0.0721875,0.5061375
150202573772916,6.535630,0.219175,0.0474375,0.3790875
150202583773832,6.545631,0.169125,0.124437496,0.18727499
150202593774740,6.555631,0.056649998,0.114675,-0.082775
150202603775663,6.565632,-0.03135,0.0364375,-0.320925
150202613776663,6.575633,-0.07645,-0.0246125,-0.381975
150202623777582,6.585634,-0.104637496,-0.128425,-0.2305875
150202633778445,6.595635,-0.115637496,-0.2311375,0.115225
150202643779352,6.605636,-0.050875,-0.326425,0.4376625
150202653780275,6.615637,-0.04235,-0.3177625,0.6221875
150202663781169,6.625638,0.02365,-0.1186625,0.640475
150202673782171,6.635639,0.131175,0.097625,0.502425
150202683783021,6.645640,0.1153625,0.0792,0.2190375
150202693783928,6.655641,0.021175,-0.051425,-0.11935
150202703784846,6.665642,-0.0154,-0.017324999,-0.3674
150202713785774,6.675642,0.02365,0.2149125,-0.469975
150202723786704,6.685643,0.117699996,0.4970625,-0.4357375
150202733787627,6.695644,0.22275,0.6901125,-0.309925
150202743788554,6.705645,0.2949375,0.710875,-0.1621125
150202753789465,6.715646,0.2985125,0.5996375,-0.03025
150202763790391,6.725647,0.20693749,0.29425,0.0224125
150202773791407,6.735648,0.0884125,-0.1186625,-0.0570625
150202783792246,6.745649,0.0383625,-0.3642375,-0.160875
150202793793248,6.755650,0.0616,-0.2737625,-0.18287499
150202803794094,6.765651,0.0713625,0.091437496,-0.1535875
150202813795015,6.775652,0.0603625,0.379775,-0.1401125
150202823795939,6.785653,0.0529375,0.5105375,-0.094875
150202833796968,6.795654,0.170225,0.4285875,0.0125124995
150202843797891,6.805655,0.2937,0.246675,0.12375
150202853798751,6.815655,0.291225,0.1269125,0.259325
150202863799688,6.825656,0.2228875,0.1219625,0.3900875
150202873800611,6.835657,0.1458875,0.1744875,0.47685
150202883801539,6.845658,0.0506,0.1464375,0.4145625
150202893802520,6.855659,-0.1082125,-0.0539,0.159225
150202903803366,6.865660,-0.2695,-0.3617625,-0.2231625
150202913804285,6.875661,-0.3122625,-0.674575,-0.6177875
150202923805222,6.885662,-0.31845,-0.73562497,-0.8413625
150202933806134,6.895663,-0.2047375,-0.3642375,-0.7522625
150202943807059,6.905664,-0.023924999,0.2369125,-0.40645
150202953807987,6.915665,0.1189375,0.7414,0.0259875
150202963808910,6.925666,0.1153625,0.8086375,0.32285
150202973809833,6.935667,0.0286,0.379775,0.39985
150202983810756,6.945667,-0.0814,-0.2542375,0.3095125
150202993811679,6.955668,-0.1216875,-0.6683875,0.126225
150203003812587,6.965669,-0.0924,-0.6268625,4.125E-4
150203013813510,6.975670,-0.0691625,-0.2872375,0.0064625
150203023814434,6.985671,-0.0521125,0.0902,0.0944625
150203033815343,6.995672,-0.0116875,0.2624875,0.18727499
150203043816271,7.005673,0.031075,0.2319625,0.2508
150203053817193,7.015674,0.056649998,0.0999625,0.3851375
150203063818131,7.025675,0.0493625,-0.0246125,0.5586625
150203073819054,7.035676,-0.0031625,-0.0979,0.7187125
150203083819995,7.045677,-0.0924,-0.16995,0.8507125
150203093820918,7.055678,-0.1694,-0.2457125,0.9142375
150203103821855,7.065679,-0.21573749,-0.3422375,0.88605
150203113822774,7.075679,-0.2316875,-0.46928748,0.722425
150203123823698,7.085680,-0.2145,-0.564575,0.4145625
150203133824396,7.095681,-0.15345,-0.564575,0.05775
150203143825548,7.105682,-0.0862125,-0.51205,-0.2024
150203153826471,7.115683,-0.0251625,-0.3312375,-0.2745875
150203163827394,7.125684,0.0383625,-0.029424999,-0.14135
150203173828086,7.135685,0.087175,0.2894375,0.132275
150203183829011,7.145686,0.0933625,0.4140125,0.4279
150203193829926,7.155687,0.0383625,0.241725,0.590425
150203203830835,7.165688,-0.056925,-0.1907125,0.5561875
150203213831748,7.175688,-0.1656875,-0.65381247,0.36685
150203223832888,7.185690,-0.2242625,-0.9334875,0.010175
150203233833585,7.195690,-0.2231625,-0.9224875,-0.408925
150203243834522,7.205691,-0.1681625,-0.702625,-0.7803125
150203253835431,7.215692,-0.0484,-0.2982375,-0.9818875
150203263836354,7.225693,0.1214125,0.21367499,-0.9233125
150203273837277,7.235694,0.274175,0.71335,-0.6337375
150203283838200,7.245695,0.318175,0.9392625,-0.2451625
150203293839124,7.255696,0.24475,0.798875,0.0444125
150203303840047,7.265697,0.1056,0.407825,0.2398
150203313840970,7.275698,-0.0276375,0.0572,0.369325
150203323841893,7.285699,-0.1216875,-0.10285,0.452375
150203333842816,7.295700,-0.1852125,-0.00385,0.46585
150203343843734,7.305700,-0.2132625,0.208725,0.4035625
150203353844642,7.315701,-0.19745,0.2734875,0.226325
150203363845573,7.325702,-0.14739999,0.1464375,-0.011825
150203373846508,7.335703,-0.032449998,-0.0086624995,-0.1926375
150203383847664,7.345704,0.0847,0.05115,-0.231825
150203393848357,7.355705,0.1274625,0.291775,-0.1376375
150203403849203,7.365706,0.10065,0.51301247,0.0235125
150203413850201,7.375707,0.1568875,0.313775,0.082225
150203423851044,7.385708,0.1324125,-0.0710875,0.043175
150203433852042,7.395709,-0.043449998,-0.6831,-0.1181125
150203443852886,7.405710,-0.012925,-1.1204875,-0.386925
150203453853809,7.415710,0.098175,-0.7649125,-0.43945
150203463854727,7.425711,0.208175,0.136675,-0.17435
150203473855645,7.435712,0.274175,1.0982125,0.3400375
150203483856583,7.445713,0.2154625,1.7029375,0.85305
150203493857492,7.455714,0.186175,1.5074124,1.1011
150203503858415,7.465715,0.1568875,0.832975,1.0522875
150203513859328,7.475716,-0.0704,0.2234375,0.95823747
150203523860266,7.485717,-0.1705,-0.6611,0.722425
150203533861189,7.495718,-0.050875,-1.0349625,0.4756125
150203543862112,7.505719,0.054175,-0.7173375,0.3730375
150203553863040,7.515720,0.1984125,-0.3287625,0.2825625
150203563863747,7.525720,0.3315125,-0.0539,0.12979999
150203573864900,7.535722,0.40974998,0.0572,-0.0215875
150203583865819,7.545723,0.4037,0.0609125,-0.072875
150203593866488,7.555723,0.2704625,0.0963875,-0.01925
150203603867421,7.565724,0.0836,0.1733875,0.098037496
150203613868344,7.575725,-0.0556875,0.1269125,0.2190375
150203623869267,7.585726,-0.139975,-0.16995,0.2410375
150203633870209,7.595727,-0.144925,-0.4973375,0.1420375
150203643871137,7.605728,-0.0606375,-0.669625,0.0565125
150203653872045,7.615729,0.056649998,-0.5597625,0.0284625
150203663872969,7.625730,0.169125,-0.0466125,0.1139875
150203673873813,7.635731,0.2679875,0.6413,0.347325
150203683874736,7.645731,0.3157,0.9174,0.5929
150203693875752,7.655732,0.2594625,0.6644,0.6686625
150203703876584,7.665733,0.1056,0.04015,0.53185
150203713877507,7.675734,-0.0056375,-0.47547498,0.275275
150203723878502,7.685735,0.0103124995,-0.4973375,0.076175
150203733879334,7.695736,0.076175,-0.1296625,0.027224999
150203743880266,7.705737,0.12265,0.313775,0.055275
150203753881179,7.715738,0.1324125,0.423775,0.0224125
150203763882112,7.725739,0.0969375,0.2369125,-0.1181125
150203773883030,7.735740,0.059125,-0.0209,-0.298925
150203783883949,7.745741,0.026124999,-0.1626625,-0.4662625
150203793884876,7.755742,-0.0251625,-0.1711875,-0.6142125
150203803885785,7.765742,-0.078925,-0.018424999,-0.707025
150203813886479,7.775743,-0.1021625,0.130625,-0.6898375
150203823887402,7.785744,-0.094875,0.2160125,-0.5592125
150203833888326,7.795745,-0.0386375,0.3650625,-0.2561625
150203843889493,7.805746,0.0273625,0.5996375,0.11275
150203853890186,7.815747,0.0518375,0.7486875,0.45113748
150203863891109,7.825748,0.0273625,0.5801125,0.6441875
150203873892276,7.835749,-0.0361625,0.124437496,0.6111875
150203883892965,7.845750,-0.1082125,-0.40205,0.3315125
150203893893892,7.855751,-0.13145,-0.7381,-0.0985875
150203903894806,7.865751,-0.0704,-0.6353875,-0.4651625
150203913895719,7.875752,0.034649998,-0.1199,-0.586025
150203923896566,7.885753,0.14465,0.4995375,-0.447975
150203933897472,7.895754,0.2424125,0.853875,-0.1315875
150203943898474,7.905755,0.2607,0.8586875,0.2349875
150203953899313,7.915756,0.17765,0.4665375,0.502425
150203963900236,7.925757,0.026124999,-0.2102375,0.557425
150203973901168,7.935758,-0.100925,-0.7429125,0.408375
150203983902077,7.945759,-0.122925,-0.8822,0.1909875
150203993902986,7.955760,-0.0581625,-0.70015,0.0114124995
150204003903894,7.965761,0.0603625,-0.3007125,-0.091299996
150204013904817,7.975762,0.1898875,0.1769625,-0.0655875
150204023905505,7.985762,0.263175,0.500775,0.0589875
150204033906659,7.995763,0.2594625,0.4995375,0.2055625
150204043907353,8.005764,0.1898875,0.2112,0.3130875
150204053908276,8.015765,0.10065,-0.133375,0.353375
150204063909199,8.025766,0.0334125,-0.40205,0.34485
150204073910127,8.035767,-0.0105875,-0.49005,0.3278
150204083911050,8.045768,-0.00935,-0.4387625,0.2655125
150204093911909,8.055769,0.0163625,-0.2982375,0.1775125
150204103912921,8.065770,0.031075,-0.139425,0.12375
150204113913854,8.075771,0.0664125,0.070675,0.0589875
150204123914702,8.085771,0.098175,-0.0026125,-0.0510125
150204133915693,8.095772,0.056649998,-0.017324999,-0.099825
150204143916518,8.105773,0.0286,-0.0979,-0.127875
150204153917452,8.115774,0.0664125,-0.332475,-0.1694
150204163918389,8.125775,0.1079375,-0.652575,-0.215875
150204173919336,8.135776,0.0946,-0.901725,-0.2696375
150204183920260,8.145777,0.0713625,-0.845625,-0.30745
150204193920957,8.155778,0.103125,-0.517,-0.2976875
150204203921882,8.165779,0.147125,-0.1626625,-0.2525875
150204213922800,8.175779,0.1494625,-0.051425,-0.115637496
150204223923738,8.185780,0.1153625,-0.133375,0.104225
150204233924646,8.195781,0.1739375,-0.3337125,0.215325
150204243925569,8.205782,0.1678875,-0.338525,0.1835625
150204253926492,8.215783,0.0688875,-0.2616625,0.1274625
150204263927416,8.225784,0.095699996,-0.2762375,0.060225
150204273928262,8.235785,0.17765,-0.2519,-0.0460625
150204283929176,8.245786,0.258225,0.0083875,-0.1560625
150204293930082,8.255787,0.368225,0.32725,-0.1450625
150204303931019,8.265788,0.39627498,0.4054875,4.125E-4
150204313931947,8.275789,0.3694625,0.27225,0.1824625
150204323932884,8.285790,0.34375,0.2734875,0.2850375
150204333933803,8.295790,0.2937,0.27719998,0.30827498
150204343934474,8.305791,0.1299375,0.34925,0.0809875
150204353935611,8.315792,0.0859375,0.0218625,-0.1584
150204363936529,8.325793,0.065175,-0.08195,-0.3234
150204373937238,8.335794,0.0066,0.1744875,-0.4224
150204383938165,8.345795,-0.001925,0.3529625,-0.43821248
150204393939088,8.355796,0.021175,0.390775,-0.276925
150204403940002,8.365797,0.092125,0.4970625,0.0039875
150204413940937,8.375798,0.14093749,0.5753,0.3205125
150204423941867,8.385799,0.164175,0.528825,0.57695
150204433942726,8.395799,0.1238875,0.423775,0.6809
150204443943640,8.405800,-0.0471625,0.1709125,0.6271375
150204453944563,8.415801,-0.127875,-0.2066625,0.3900875
150204463945515,8.425802,-0.1192125,-0.4522375,0.115225
150204473946423,8.435803,-0.072875,-0.3581875,-0.0143
150204483947117,8.445804,-0.03135,-0.0551375,-0.0400125
150204493948011,8.455805,-0.012925,0.180675,-0.0033
150204503948935,8.465806,0.020075,0.3480125,0.0259875
150204513949873,8.475807,0.0628375,0.34925,0.00275
150204523950805,8.485807,0.0836,0.2124375,-0.0400125
150204533951719,8.495808,0.0774125,0.048675,-0.0521125
150204543952545,8.505809,0.0053625,-0.0966625,-0.02035
150204553953466,8.515810,-0.093637496,-0.183425,-0.0045375
150204563954476,8.525811,-0.205975,-0.31295,-0.0143
150204573955317,8.535812,-0.100925,-0.4387625,-0.0143
150204583956235,8.545813,0.1494625,-0.27995,0.0699875
150204593957155,8.555814,0.28393748,0.092675,0.226325
150204603957829,8.565815,0.307175,0.462825,0.3375625
150204613958981,8.575816,0.247225,0.561825,0.3400375
150204623959691,8.585816,0.158125,0.4384875,0.2618
150204633960585,8.595817,0.0946,0.2039125,0.1714625
150204643961508,8.605818,0.0726,-0.0416625,0.0174625
150204653962421,8.615819,0.026124999,-0.2176625,-0.1511125
150204663963268,8.625820,-0.0044,-0.3031875,-0.30635
150204673964266,8.635821,0.0468875,-0.2847625,-0.3832125
150204683965112,8.645822,0.076175,-0.1749,-0.359975
150204693966035,8.655823,0.2057,-0.0661375,-0.237875
150204703966958,8.665824,0.1824625,0.11715,-0.0680625
150204713967666,8.675824,-6.875E-4,0.3004375,0.170225
150204723968580,8.685825,-0.1034,0.3370125,0.3950375
150204733969489,8.695826,-0.1131625,0.2624875,0.518375
150204743970412,8.705827,-0.0801625,0.16115,0.5586625
150204753971330,8.715828,-0.0446875,0.0034375,0.496375
150204763972244,8.725829,-0.14739999,-0.18095,0.330275
150204773973150,8.735830,-0.0521125,-0.1992375,0.0944625
150204783973998,8.745831,0.01265,-0.0209,-0.093637496
150204793974934,8.755832,0.0603625,0.120725,-0.2134
150204803975857,8.765833,0.0848375,0.131725,-0.23539999
150204813976789,8.775833,0.117699996,0.0902,-0.1315875
150204823977492,8.785834,0.1153625,0.0059125,0.0039875
150204833978656,8.795835,0.1287,-0.0759,0.0394625
150204843979350,8.805836,-0.061875,-0.1736625,-0.0595375
150204853980263,8.815837,-0.0924,-0.264,-0.2256375
150204863981186,8.825838,-0.0496375,-0.1992375,-0.348975
150204873982039,8.835839,-0.0264,0.0133375,-0.2916375
150204883982962,8.845840,-0.02035,0.180675,-0.093637496
150204893983886,8.855841,-0.00935,0.313775,0.14575
150204903984800,8.865841,-0.0044,0.31501248,0.3705625
150204913985713,8.875842,-0.023924999,0.2344375,0.52442497
150204923986405,8.885843,-0.0411125,0.053625,0.568425
150204933987335,8.895844,-0.0581625,-0.194425,0.513425
150204943988258,8.905845,-0.072875,-0.3997125,0.358325
150204953989186,8.915846,-0.0642125,-0.49005,0.1494625
150204963990104,8.925847,-0.012925,-0.34595,-0.0350625
150204973990944,8.935848,0.0408375,-0.0356125,-0.13035
150204983991867,8.945849,0.0933625,0.2319625,-0.1596375
150204993992795,8.955849,0.13365,0.28325,-0.115637496
150205003993722,8.965850,0.1458875,0.0999625,-0.049775
150205013994443,8.975851,0.120175,-0.139425,-0.0265375
150205023995368,8.985852,0.0664125,-0.25795,-0.00935
150205033996301,8.995853,0.009075,-0.2176625,-0.027775
150205043997223,9.005854,-0.0556875,-0.161425,-0.083875
150205053998073,9.015855,-0.078925,-0.13695,-0.165825
150205063998998,9.025856,-0.043449998,-0.139425,-0.2206875
150205073999919,9.035857,0.0188375,-0.0611875,-0.2476375
150205084000856,9.045858,0.0616,0.124437496,-0.2281125
150205094001793,9.055858,0.095837496,0.3432,-0.1681625
150205104002721,9.065859,0.1153625,0.45925,-0.1010625
150205114003438,9.075860,0.125125,0.4115375,-0.0473
150205124004382,9.085861,0.12265,0.2454375,-0.0081124995
150205134005296,9.095862,0.1104125,-0.0246125,-0.0253
150205144006147,9.105863,0.1153625,-0.2371875,-0.0705375
150205154007087,9.115864,0.1238875,-0.1992375,-0.1071125
150205164008010,9.125865,0.1214125,-0.006325,-0.0875875
150205174008708,9.135865,0.1166,0.2404875,0.016224999
150205184009632,9.145866,0.114125,0.4005375,0.1885125
150205194010528,9.155867,0.10065,0.4213,0.3680875
150205204011455,9.165868,0.0518375,0.36025,0.568425
150205214012378,9.175869,-0.02145,0.2479125,0.71995
150205224013198,9.185870,-0.100925,0.026675,0.7407125
150205234014107,9.195871,-0.1364,-0.2726625,0.5941375
150205244015044,9.205872,-0.0826375,-0.5511,0.2910875
150205254015967,9.215873,-0.056925,-0.7088125,-0.0900625
150205264016646,9.225873,0.0994125,-0.630575,-0.463925
150205274017571,9.235874,0.2129875,-0.253,-0.71555
150205284018503,9.245875,0.2814625,0.252725,-0.7668375
150205294019323,9.255876,0.28875,0.6351125,-0.5995
150205304020237,9.265877,0.29741248,0.6754,-0.3136375
150205314021174,9.275878,0.2789875,0.407825,-0.0240625
150205324022082,9.285879,0.1898875,0.037675,0.203225
150205334022751,9.295879,0.065175,-0.211475,0.3180375
150205344023676,9.305880,-0.034925,-0.29947498,0.3180375
150205354024589,9.315881,-0.0776875,-0.2567125,0.2789875
150205364025493,9.325882,-0.056925,-0.1626625,0.2165625
150205374026339,9.335883,0.0053625,-0.058849998,0.13475
150205384027260,9.345884,0.08965,0.0108624995,-0.027775
150205394028178,9.355885,0.16293749,0.0584375,-0.2536875
150205404028880,9.365886,0.203225,0.0889625,-0.5212625
150205414029820,9.375887,0.21065,0.0999625,-0.72655
150205424030741,9.385887,0.1959375,0.130625,-0.7913125
150205434031666,9.395888,0.1654125,0.2270125,-0.7033125
150205444032505,9.405889,0.11165,0.3089625,-0.48221248
150205454033428,9.415890,0.056649998,0.324775,-0.193875
150205464034113,9.425891,0.02365,0.2479125,0.0614625
150205474035046,9.435892,-0.006875,0.1342,0.2154625
150205484035974,9.445893,-0.017875,0.004675,0.2765125
150205494036911,9.455894,0.004125,-0.1419,0.2605625
150205504037844,9.465895,0.0468875,-0.1797125,0.1824625
150205514038776,9.475895,0.0823625,-0.10285,0.0847
150205524039644,9.485896,0.109175,0.0364375,0.03575
150205534040577,9.495897,0.131175,0.1342,0.0187
150205544041286,9.505898,0.1434125,0.1684375,0.0309375
150205554042209,9.515899,0.14093749,0.1452,0.099275
150205564043135,9.525900,0.1263625,0.1012,0.170225
150205574043983,9.535901,0.1056,0.048675,0.2569875
150205584044894,9.545902,0.0688875,0.037675,0.369325
150205594045803,9.555902,0.0176,0.0829125,0.47808748
150205604046496,9.565903,-0.0276375,0.13915,0.5660875
150205614047431,9.575904,-0.054449998,0.1634875,0.6076125
150205624048344,9.585905,-0.067925,0.1219625,0.5671875
150205634049262,9.595906,-0.072875,0.0303875,0.4670875
150205644050106,9.605907,-0.0814,-0.0600875,0.3315125
150205654050795,9.615907,-0.0911625,-0.08195,0.2068
150205664051690,9.625908,-0.1021625,-0.029424999,0.073699996
150205674052613,9.635909,-0.1021625,0.064625,-0.0350625
150205684053534,9.645910,-0.0886875,0.1219625,-0.09735
150205694054441,9.655911,-0.0631125,0.08415,-0.127875
150205704055285,9.665912,-0.0386375,0.0083875,-0.143825
150205714056213,9.675913,-0.0336875,-0.0270875,-0.13035
150205724057136,9.685914,-0.050875,0.004675,-0.0875875
150205734057831,9.695915,-0.067925,0.0328625,-0.0363
150205744058749,9.705915,-0.067925,0.009625,0.02475
150205754059593,9.715916,-0.0374,-0.0661375,0.0479875
150205764060539,9.725917,0.0028875,-0.1126125,0.005225
150205774061448,9.735918,0.0358875,-0.08085,-0.06435
150205784062376,9.745919,0.045649998,0.026675,-0.115637496
150205794063068,9.755920,0.0408375,0.147675,-0.1401125
150205804063907,9.765921,0.020075,0.1879625,-0.0985875
150205814064819,9.775922,0.0053625,0.1219625,-0.0521125
150205824065742,9.785922,-6.875E-4,0.0034375,-0.0253
150205834066688,9.795923,4.125E-4,-0.0746625,-0.04235
150205844067386,9.805924,0.0066,-0.08085,-0.0925375
150205854068311,9.815925,0.0176,-0.0209,-0.1571625
150205864069167,9.825926,0.015125,0.0658625,-0.2096875
150205874070095,9.835927,0.0053625,0.142725,-0.21835
150205884071001,9.845928,-0.001925,0.1439625,-0.1951125
150205894071681,9.855928,-0.001925,0.0963875,-0.1535875
150205904072590,9.865929,0.00165,0.0572,-0.113299996
150205914073436,9.875930,0.0053625,0.0694375,-0.072875
150205924074371,9.885931,0.0053625,0.11715,-0.0485375
150205934075300,9.895932,0.0066,0.130625,-0.0595375
150205944076223,9.905933,0.0114124995,0.092675,-0.1120625
150205954076900,9.915934,0.0176,0.0694375,-0.18535
150205964077825,9.925935,0.0286,0.064625,-0.26345
150205974078669,9.935935,0.0358875,0.0889625,-0.353925
150205984079602,9.945936,0.0444125,0.113437496,-0.4272125
150205994080526,9.955937,0.053075,0.1329625,-0.46145
150206004081239,9.965938,0.056649998,0.158675,-0.4467375
150206014082153,9.975939,0.045649998,0.1964875,-0.3722125
150206024082981,9.985940,0.0163625,0.23925,-0.2451625
150206034083890,9.995941,-0.0276375,0.2600125,-0.0985875
150206044084585,10.005941,-0.072875,0.241725,0.0444125
150206054085517,10.015942,-0.111925,0.1769625,0.159225
150206064086440,10.025943,-0.12773749,0.0303875,0.225225
150206074087378,10.035944,-0.1021625,-0.1431375,0.2410375
150206084088226,10.045945,-0.0581625,-0.2787125,0.1848
150206094089149,10.055946,-0.017875,-0.2957625,0.082225
150206104089829,10.065947,0.00165,-0.1772375,-0.0180125
150206114090762,10.075947,0.01265,-0.047849998,-0.1034
150206124091700,10.085948,0.0176,0.009625,-0.1425875
150206134092544,10.095949,0.0103124995,-0.0501875,-0.1254
150206144093481,10.105950,-0.006875,-0.172425,-0.113299996
150206154094173,10.115951,-0.0251625,-0.2872375,-0.1340625
150206164095098,10.125952,-0.045925,-0.3361875,-0.1804
150206174096007,10.135953,-0.0716375,-0.2737625,-0.20487499
150206184096847,10.145954,-0.094875,-0.1161875,-0.154825
150206194097779,10.155954,-0.106975,0.0584375,-0.033825
150206204098478,10.165955,-0.12045,0.175725,0.154275
150206214099396,10.175956,-0.144925,0.208725,0.385275
150206224100245,10.185957,-0.1804,0.164725,0.5806625
150206234101178,10.195958,-0.223025,0.102437496,0.711425
150206244101866,10.205959,-0.2817375,0.0303875,0.7517125
150206254102777,10.215959,-0.3293125,-0.0356125,0.6551875
150206264103700,10.225960,-0.35021248,-0.0966625,0.490325
150206274104534,10.235961,-0.337975,-0.1651375,0.28875
150206284105457,10.245962,-0.315975,-0.161425,0.0834625
150206294106141,10.255963,-0.293975,-0.0661375,-0.083875
150206304107066,10.265964,-0.28545,0.081675,-0.19635
150206314107901,10.275965,-0.29273748,0.19525,-0.2316875
150206324108833,10.285966,-0.304975,0.18315,-0.2061125
150206334109751,10.295966,-0.315975,0.0474375,-0.149875
150206344110434,10.305967,-0.326975,-0.1126125,-0.1010625
150206354111364,10.315968,-0.3355,-0.2261875,-0.0496375
150206364112213,10.325969,-0.333025,-0.2542375,-0.0386375
150206374113127,10.335970,-0.3172125,-0.2041875,-0.061875
150206384113819,10.345971,-0.2732125,-0.1247125,-0.088825
150206394114744,10.355971,-0.21945,-0.0281875,-0.1010625
150206404115590,10.365972,-0.1656875,0.042625,-0.0790625
150206414116521,10.375973,-0.1241625,0.064625,-0.0045375
150206424117203,10.385974,-0.100925,0.078099996,0.0847
150206434118128,10.395975,-0.08745,0.0341,0.1640375
150206444119061,10.405976,-0.08745,-0.07095,0.198275
150206454119900,10.415977,-0.0924,-0.2079,0.132275
150206464120593,10.425977,-0.095975,-0.294525,0.0039875
150206474121518,10.435978,-0.1034,-0.282425,-0.1120625
150206484122451,10.445979,-0.104637496,-0.1969,-0.1645875
150206494123295,10.455980,-0.100925,-0.09185,-0.1266375
150206504124218,10.465981,-0.09845,-0.013612499,-0.028875
150206514124914,10.475982,-0.0996875,-0.00385,0.0774125
150206524125835,10.485983,-0.1254,-0.045375,0.143275
150206534126665,10.495983,-0.1742125,-0.1051875,0.16293749
150206544127573,10.505984,-0.2206875,-0.1309,0.1665125
150206554128270,10.515985,-0.2402125,-0.1211375,0.1640375
150206564129137,10.525986,-0.2242625,-0.09295,0.1494625
150206574130053,10.535987,-0.1791625,-0.0881375,0.1067
150206584130966,10.545988,-0.10945,-0.1577125,0.0064625
150206594131674,10.555988,-0.0471625,-0.1797125,-0.154825
150206604132628,10.565989,-0.02035,-0.0941875,-0.314875
150206614133488,10.575990,-0.0166375,0.0231,-0.4076875
150206624134185,10.585991,-0.014162499,0.108625,-0.4332625
150206634135108,10.595992,-0.0031625,0.113437496,-0.4162125
150206644135955,10.605993,0.02365,0.09515,-0.3636875
150206654136876,10.615994,0.045649998,0.09515,-0.2611125
150206664137789,10.625994,0.0603625,0.108625,-0.0875875
150206674138474,10.635995,0.076175,0.1342,0.1445125
150206684139310,10.645996,0.075075,0.130625,0.369325
150206694140236,10.655997,0.054175,0.0743875,0.53185
150206704141160,10.665998,0.0213125,-0.001375,0.6527125
150206714141867,10.675999,-0.0031625,-0.10395,0.6991875
150206724142797,10.685999,5.5E-4,-0.1907125,0.6771875
150206734143626,10.696000,0.0078375,-0.1871375,0.64185
150206744144312,10.706001,0.0188375,-0.11495,0.63195
150206754145239,10.716002,0.0323125,-0.034375,0.623425
150206764146085,10.726003,0.0433125,-0.0099,0.567325
150206774147006,10.736004,0.0433125,-0.045375,0.46461248
150206784147676,10.746004,0.0518375,-0.13695,0.33275
150206794148575,10.756005,0.064075,-0.19195,0.1909875
150206804149420,10.766006,0.065175,-0.1601875,0.0884125
150206814150348,10.776007,0.0433125,-0.0771375,0.0614625
150206824151281,10.786008,5.5E-4,-0.00385,0.109175
150206834151977,10.796009,-0.043449998,-0.001375,0.1689875
150206844152833,10.806010,-0.0814,-0.0941875,0.22275
150206854153756,10.816010,-0.1144,-0.2261875,0.2165625
150206864154454,10.826011,-0.150975,-0.2847625,0.159225
150206874155386,10.836012,-0.172975,-0.2481875,0.0699875
150206884156222,10.846013,-0.1705,-0.1577125,-0.0191125
150206894157145,10.856014,-0.1584,-0.067375,-0.0790625
150206904157832,10.866015,-0.150975,0.0083875,-0.1120625
150206914158690,10.876015,-0.128975,0.0584375,-0.110825
150206924159392,10.886016,-0.0996875,0.0572,-0.1071125
150206934160315,10.896017,-0.07645,0.0561,-0.1230625
150206944161238,10.906018,-0.07645,0.0474375,-0.1376375
150206954162079,10.916019,-0.0911625,0.026675,-0.149875
150206964163010,10.926020,-0.1144,0.0023375,-0.1511125
150206974163688,10.936020,-0.12773749,-0.051425,-0.14739999
150206984164618,10.946021,-0.122925,-0.1161875,-0.1364
150206994165438,10.956022,-0.1167375,-0.1357125,-0.143825
150207004166137,10.966023,-0.1192125,-0.089375,-0.138875
150207014167050,10.976024,-0.1364,0.0011,-0.091299996
150207024167900,10.986025,-0.1522125,0.053625,-0.017875
150207034168832,10.996026,-0.1522125,0.0243375,0.0724625
150207044169524,11.006026,-0.13145,-0.0771375,0.143275
150207054170372,11.016027,-0.09845,-0.1639,0.1555125
150207064171318,11.026028,-0.0704,-0.1687125,0.137225
150207074172002,11.036029,-0.0422125,-0.111375,0.0944625
150207084172907,11.046030,-0.017875,-0.0331375,0.04675
150207094173763,11.056030,-0.001925,-0.017324999,0.0297
150207104174684,11.066031,0.0028875,-0.0306625,0.0297
150207114175362,11.076032,-0.0081124995,-0.067375,0.0369875
150207124176210,11.086033,-0.032449998,-0.0771375,0.043175
150207134177127,11.096034,-0.0581625,-0.067375,0.032175
150207144177819,11.106035,-0.061875,-0.106425,0.0064625
150207154178749,11.116035,-0.028875,-0.1626625,-0.0435875
150207164179595,11.126036,0.0176,-0.18095,-0.0985875
150207174180535,11.136037,0.042075,-0.1199,-0.14135
150207184181228,11.146038,0.031075,0.0023375,-0.1584
150207194182088,11.156039,-0.001925,0.102437496,-0.1315875
150207204183016,11.166040,-0.014162499,0.103675,-0.0900625
150207214183705,11.176040,-0.001925,0.0121,-0.0595375
150207224184561,11.186041,0.0188375,-0.086899996,-0.0521125
150207234185453,11.196042,0.0396,-0.084425,-0.0680625
150207244186169,11.206043,0.0554125,0.0133375,-0.07535
150207254187022,11.216044,0.0688875,0.1183875,-0.07535
150207264187704,11.226044,0.0738375,0.169675,-0.05335
150207274188622,11.236045,0.076175,0.1109625,-0.022824999
150207284189570,11.246046,0.0713625,0.0108624995,-0.0240625
150207294190424,11.256047,0.0578875,-0.034375,-0.0496375
150207304191352,11.266048,0.042075,-0.017324999,-0.0875875
150207314191983,11.276049,0.037125,0.0193875,-0.121825
150207324192906,11.286050,0.0334125,0.0463375,-0.13035
150207334193594,11.296050,0.0358875,0.05115,-0.13035
150207344194508,11.306051,0.0408375,0.0108624995,-0.1254
150207354195429,11.316052,0.0543125,-0.06985,-0.1511125
150207364196275,11.326053,0.0713625,-0.106425,-0.1986875
150207374196957,11.336054,0.059125,-0.023375,-0.221925
150207384197881,11.346055,0.0188375,0.102437496,-0.20845
150207394198717,11.356055,-0.017875,0.1452,-0.1511125
150207404199419,11.366056,-0.0226875,0.102437496,-0.099825
150207414200252,11.376057,-0.0031625,0.0451,-0.0545875
150207424201180,11.386058,0.0213125,0.0231,0.0174625
150207434201864,11.396059,0.0468875,0.0572,0.1189375
150207444202787,11.406059,0.065175,0.12815,0.247225
150207454203645,11.416060,0.064075,0.169675,0.36574998
150207464204344,11.426061,0.0444125,0.153725,0.4610375
150207474205267,11.436062,0.0188375,0.0584375,0.4939
150207484206107,11.446063,-0.001925,-0.036849998,0.42185
150207494206806,11.456063,-0.0116875,-0.1027125,0.270325
150207504207738,11.466064,-0.0116875,-0.1051875,0.115225
150207514208577,11.476065,-0.0116875,-0.02585,0.0089375
150207524209279,11.486066,-0.0301125,0.0609125,-0.022824999
150207534210205,11.496067,-0.0704,0.1513875,-0.0240625
150207544211035,11.506068,-0.1216875,0.152625,-0.017875
150207554211957,11.516069,-0.1656875,0.0743875,-0.006875
150207564212664,11.526069,-0.1962125,-0.0331375,-0.0081124995
150207574213519,11.536070,-0.2096875,-0.10395,-0.00935
150207584214214,11.546071,-0.2096875,-0.0941875,4.125E-4
150207594215128,11.556072,-0.199925,-0.0576125,0.0259875
150207604215969,11.566073,-0.1815,-0.0209,0.0334125
150207614216685,11.576073,-0.1546875,0.0169125,0.010175
150207624217507,11.586074,-0.1241625,0.0561,-0.03135
150207634218414,11.596075,-0.10945,0.097625,-0.0826375
150207644219097,11.606076,-0.0947375,0.1098625,-0.1205875
150207654219954,11.616077,-0.073975,0.103675,-0.14135
150207664220871,11.626078,-0.06545,0.1183875,-0.1241625
150207674221546,11.636078,-0.0666875,0.11715,-0.07535
150207684222392,11.646079,-0.051975,0.07315,-0.016775
150207694223323,11.656080,-0.023924999,0.014575,0.0297
150207704224002,11.666081,-0.006875,0.0169125,0.06765
150207714224863,11.676082,-0.0191125,0.08415,0.11275
150207724225798,11.686082,-0.0361625,0.1293875,0.13475
150207734226472,11.696083,-0.0374,0.0768625,0.14575
150207744227315,11.706084,-0.032449998,-0.0209,0.1274625
150207754227998,11.716085,-0.023924999,-0.08195,0.095699996
150207764228930,11.726086,-0.017875,-0.0526625,0.07975
150207774229772,11.736086,-0.00935,0.0353375,0.082225
150207784230679,11.746087,0.00165,0.0939125,0.098175
150207794231400,11.756088,0.009075,0.097625,0.1164625
150207804232241,11.766089,0.015125,0.0438625,0.1287
150207814232959,11.776090,0.0286,-0.0380875,0.1115125
150207824233883,11.786091,0.0444125,-0.095425,0.071225
150207834234722,11.796091,0.0628375,-0.0979,0.0138875
150207844235411,11.806092,0.0726,-0.056375,-0.0521125
150207854236267,11.816093,0.06765,0.0193875,-0.0985875
150207864237183,11.826094,0.0554125,0.0804375,-0.11935
150207874237881,11.836095,0.0383625,0.0988625,-0.10835
150207884238712,11.846095,0.0323125,0.0719125,-0.0583
150207894239635,11.856096,0.0334125,0.04015,0.0064625
150207904240327,11.866097,0.0273625,0.0231,0.049225
150207914241168,11.876098,0.0213125,0.02915,0.0627
150207924241879,11.886099,0.0188375,0.05115,0.073699996
150207934242792,11.896099,0.020075,0.042625,0.082225
150207944243636,11.906100,0.026124999,0.0023375,0.0724625
150207954244325,11.916101,0.0298375,-0.0501875,0.0334125
150207964245254,11.926102,0.0334125,-0.078375,-0.0301125
150207974246083,11.936103,0.034649998,-0.040425,-0.0790625
150207984246766,11.946103,0.0334125,0.009625,-0.105875
150207994247594,11.956104,0.037125,0.0218625,-0.1131625
150208004248273,11.966105,0.0543125,0.003575,-0.121825
150208014249119,11.976106,0.056649998,-0.0050875,-0.1120625
150208024250040,11.986107,0.026124999,0.014575,-0.093637496
150208034250737,11.996107,-0.006875,0.0133375,-0.0545875
150208044251570,12.006108,-0.0336875,0.0279125,-0.0045375
150208054252491,12.016109,-0.054449998,0.0413875,0.0847
150208064253184,12.026110,-0.062975,0.04015,0.21175
150208074254032,12.036111,-0.0666875,0.02915,0.32175
150208084254715,12.046111,-0.0826375,0.00715,0.385275
150208094255628,12.056112,-0.0947375,-0.0270875,0.38775
150208104256473,12.066113,-0.0947375,-0.0636625,0.330275
150208114257179,12.076114,-0.0911625,-0.10395,0.2277
150208124258040,12.086115,-0.0911625,-0.1126125,0.1067
150208134258719,12.096115,-0.0801625,-0.0966625,0.0064625
150208144259566,12.106116,-0.061875,-0.0771375,-0.0594
150208154260473,12.116117,-0.051975,-0.0686125,-0.1120625
150208164261181,12.126118,-0.062975,-0.007425,-0.1181125
150208174262032,12.136119,-0.09845,0.07315,-0.055825
150208184262968,12.146120,-0.1387375,0.0804375,0.0468875
150208194263661,12.156120,-0.1632125,0.0231,0.1617
150208204264507,12.166121,-0.1632125,-0.084425,0.2215125
150208214265186,12.176122,-0.1546875,-0.117425,0.1885125
150208224266042,12.186123,-0.12773749,-0.106425,0.10065
150208234266744,12.196123,-0.093637496,-0.0576125,-0.039875
150208244267672,12.206124,-0.0704,0.0364375,-0.1621125
150208254268526,12.216125,-0.0704,0.152625,-0.2146375
150208264269478,12.226126,-0.0826375,0.2112,-0.1694
150208274270094,12.236127,-0.08745,0.197725,-0.0801625
150208284271021,12.246128,-0.07645,0.108625,0.0187
150208294271713,12.256128,-0.0642125,0.0011,0.093225
150208304272651,12.266129,-0.051975,-0.084425,0.1115125
150208314273497,12.276130,-0.0374,-0.1076625,0.0944625
150208324274189,12.286131,-0.028875,-0.08085,0.07975
150208334275036,12.296132,-0.0496375,-1.375E-4,0.06875
150208344275737,12.306132,-0.0752125,0.0891,0.0578875
150208354276583,12.316133,-0.0911625,0.10615,0.093225
150208364277282,12.326134,-0.100925,0.0573375,0.14575
150208374278206,12.336135,-0.1057375,-0.0171875,0.192225
150208384279064,12.346136,-0.1192125,-0.0831875,0.1909875
150208394279756,12.356136,-0.1254,-0.1296625,0.1434125
150208404280602,12.366137,-0.1131625,-0.150425,0.0774125
150208414281288,12.376138,-0.0886875,-0.14795,0.0138875
150208424282138,12.386139,-0.0532125,-0.1357125,-0.028875
150208434283030,12.396140,-0.02145,-0.1027125,-0.050875
150208444283722,12.406140,0.0053625,-0.064899996,-0.0545875
150208454284563,12.416141,0.0248875,-0.0501875,-0.0240625
150208464285246,12.426142,0.0433125,-0.0831875,0.004125
150208474286099,12.436143,0.0554125,-0.13213749,0.005225
150208484286786,12.446143,0.0493625,-0.12595,-0.0215875
150208494287637,12.456144,0.034649998,-0.10395,-0.061875
150208504288553,12.466145,0.0334125,-0.084425,-0.104637496
150208514289246,12.476146,0.059125,-0.08085,-0.13035
150208524290097,12.486147,0.0848375,-0.062425,-0.116875
150208534290786,12.496147,0.081125,-0.0111375,-0.0814
150208544291709,12.506148,0.059125,0.0279125,-0.044825
150208554292554,12.516149,0.037125,0.01815,0.004125
150208564293161,12.526150,0.015125,-0.02585,0.071225
150208574294082,12.536151,-0.001925,-0.07095,0.1287
150208584294769,12.546151,-0.0092124995,-0.0746625,0.1397
150208594295621,12.556152,5.5E-4,-0.0906125,0.1067
150208604296310,12.566153,0.0334125,-0.1016125,0.0517
150208614297156,12.576154,0.0726,-0.12595,-0.02035
150208624297848,12.586155,0.0946,-0.1309,-0.0924
150208634298686,12.596155,0.0908875,-0.128425,-0.160875
150208644299598,12.606156,0.086075,-0.1296625,-0.2096875
150208654300297,12.616157,0.086075,-0.1247125,-0.22687499
150208664301151,12.626158,0.092125,-0.0966625,-0.20735
150208674301840,12.636159,0.0848375,-0.047849998,-0.160875
150208684302682,12.646159,0.0664125,-0.006325,-0.1010625
150208694303374,12.656160,0.0493625,0.0083875,-0.055825
150208704304277,12.666161,0.0468875,-0.02585,-0.04235
150208714305126,12.676162,0.056649998,-0.0856625,-0.055825
150208724305814,12.686163,0.0628375,-0.0991375,-0.0680625
150208734306646,12.696163,0.056649998,-0.051425,-0.0594
150208744307357,12.706164,0.0468875,0.031625,-0.013062499
150208754308226,12.716165,0.059125,0.0573375,0.0468875
150208764308919,12.726166,0.0884125,0.0303875,0.082225
150208774309767,12.736166,0.1079375,-1.375E-4,0.098175
150208784310459,12.746167,0.11165,-0.0196625,0.0884125
150208794311388,12.756168,0.0946,-0.0441375,0.0699875
150208804312242,12.766169,0.056649998,-0.036849998,0.065175
150208814312934,12.776170,0.0213125,-0.0391875,0.0688875
150208824313776,12.786170,-0.006875,-0.058849998,0.071225
150208834314470,12.796171,-0.0166375,-0.086899996,0.060225
150208844315300,12.806172,-0.023924999,-0.0746625,0.054175
150208854316004,12.816173,-0.0251625,-0.0441375,0.073699996
150208864316843,12.826174,-0.028875,0.020624999,0.1287
150208874317537,12.836174,-0.045925,0.0743875,0.2239875
150208884318377,12.846175,-0.0704,0.1318625,0.3009875
150208894319080,12.856176,-0.100925,0.180675,0.35475
150208904319926,12.866177,-0.128975,0.1709125,0.391325
150208914320843,12.876178,-0.1241625,0.10615,0.402325
150208924321506,12.886178,-0.100925,0.015675,0.3498
150208934322340,12.896179,-0.0716375,-0.08195,0.2264625
150208944323032,12.906180,-0.0532125,-0.11495,0.082225
150208954323895,12.916181,-0.0471625,-0.06985,-0.011825
150208964324593,12.926181,-0.0496375,-0.0281875,-0.061875
150208974325426,12.936182,-0.043449998,0.014575,-0.0790625
150208984326108,12.946183,-0.034925,0.0218625,-0.061875
150208994327041,12.956184,-0.0191125,0.0133375,-0.0155375
150209004327642,12.966184,-0.0031625,0.0108624995,0.0554125
150209014328503,12.976185,-0.0031625,0.0011,0.137225
150209024329180,12.986186,-0.012925,-0.007425,0.186175
150209034330031,12.996187,-0.017875,-0.0270875,0.176275
150209044330952,13.006188,-0.0081124995,-0.0551375,0.104225
150209054331645,13.016188,0.0138875,-0.0686125,0.015125
150209064332486,13.026189,0.034649998,-0.051425,-0.0924
150209074333193,13.036190,0.03355,0.0523875,-0.1694
150209084334041,13.046191,0.0138875,0.175725,-0.177925
150209094334746,13.056191,-0.01045,0.2319625,-0.1095875
150209104335377,13.066192,-0.0092124995,0.19167499,-0.0081124995
150209114336300,13.076193,0.0066,0.0768625,0.07865
150209124337132,13.086194,0.026124999,-0.01485,0.12375
150209134337833,13.096195,0.03355,-0.0281875,0.1079375
150209144338694,13.106195,0.0383625,0.0193875,0.06765
150209154339396,13.116196,0.0396,0.075625,0.0174625
150209164340244,13.126197,0.0468875,0.0829125,-0.0081124995
150209174340951,13.136198,0.0506,0.0463375,-0.028875
150209184341797,13.146198,0.053075,0.00715,-0.044825
150209194342718,13.156199,0.053075,-0.007425,-0.0545875
150209204343349,13.166200,0.042075,0.0108624995,-0.06435
150209214344270,13.176201,0.0298375,0.0108624995,-0.0741125
150209224344896,13.186202,0.0078375,-0.013612499,-0.105875
150209234345595,13.196202,-6.875E-4,-0.0391875,-0.14739999
150209244346445,13.206203,0.0053625,-0.0636625,-0.2072125
150209254347363,13.216204,0.0273625,-0.067375,-0.2671625
150209264348026,13.226205,0.0554125,-0.0281875,-0.3037375
150209274348857,13.236206,0.081125,0.0694375,-0.293975
150209284349564,13.246206,0.0946,0.1464375,-0.2244
150209294350177,13.256207,0.1018875,0.1843875,-0.1291125
150209304351023,13.266208,0.1018875,0.1329625,-0.0411125
150209314351953,13.276209,0.097075,0.0609125,0.0407
150209324352640,13.286209,0.0884125,0.025575,0.0749375
150209334353487,13.296210,0.0664125,0.0853875,0.13475
150209344354169,13.306211,0.0396,0.1549625,0.1775125
150209354355010,13.316212,0.0213125,0.2112,0.23127499
150209364355627,13.326212,0.0103124995,0.20019999,0.291225
150209374356306,13.336213,0.004125,0.1672,0.319275
150209384357138,13.346214,-0.0031625,0.0743875,0.27775
150209394358049,13.356215,-0.0116875,-0.012375,0.203225
150209404358666,13.366215,-0.0336875,-0.0501875,0.08965
150209414359588,13.376216,-0.0606375,-0.029424999,-0.017875
150209424360285,13.386217,-0.093637496,0.0413875,-0.06435
150209434360916,13.396218,-0.1021625,0.0743875,-0.06435
150209444361853,13.406219,-0.0911625,0.0853875,-0.0594
150209454362469,13.416219,-0.0776875,0.0548625,-0.0545875
150209464363315,13.426220,-0.073975,0.004675,-0.077825
150209474364012,13.436221,-0.0814,-0.0526625,-0.14739999
150209484364849,13.446222,-0.09845,-0.0661375,-0.2096875
150209494365776,13.456222,-0.13145,-0.0221375,-0.2536875
150209504366398,13.466223,-0.1485,0.053625,-0.2464
150209514367099,13.476224,-0.1522125,0.10615,-0.193875
150209524367951,13.486225,-0.128975,0.1354375,-0.110825
150209534368872,13.496226,-0.0911625,0.1379125,-0.028875
150209544369503,13.506226,-0.054449998,0.1513875,0.0334125
150209554370195,13.516227,-0.0386375,0.17215,0.095699996
150209564371052,13.526228,-0.0422125,0.1709125,0.1274625
150209574371737,13.536228,-0.0446875,0.1098625,0.1324125
150209584372583,13.546229,-0.0374,0.0231,0.11275
150209594373270,13.556230,-0.045925,-0.0306625,0.0699875
150209604374114,13.566231,-0.0581625,-0.0281875,0.0077
150209614374792,13.576231,-0.0666875,0.0083875,-0.0814
150209624375636,13.586232,-0.0691625,0.078099996,-0.16335
150209634376328,13.596233,-0.0606375,0.1183875,-0.193875
150209644377175,13.606234,-0.0532125,0.1183875,-0.18645
150209654377862,13.616235,-0.0484,0.0792,-0.1486375
150209664378702,13.626235,-0.056925,0.0389125,-0.0801625
150209674379394,13.636236,-0.0666875,-0.0246125,-0.055825
150209684379998,13.646237,-0.067925,-0.0771375,-0.0961125
150209694380844,13.656238,-0.0716375,-0.117425,-0.1804
150209704381752,13.666238,-0.067925,-0.1431375,-0.2586375
150209714382383,13.676239,-0.0617375,-0.0941875,-0.29273748
150209724383087,13.686240,-0.062975,-0.0221375,-0.26221249
150209734383926,13.696241,-0.056925,0.014575,-0.1986875
150209744384618,13.706241,-0.039875,0.00715,-0.1291125
150209754385469,13.716242,-0.0081124995,-0.0331375,-0.0655875
150209764386155,13.726243,0.0163625,-0.0526625,-0.0350625
150209774387003,13.736244,0.0286,-0.0391875,-0.039875
150209784387684,13.746244,0.0273625,0.003575,-0.0240625
150209794388540,13.756245,0.004125,0.0584375,0.0297
150209804389152,13.766246,-0.0312125,0.1098625,0.11275
150209814390061,13.776247,-0.0716375,0.1318625,0.2190375
150209824390676,13.786247,-0.0924,0.1049125,0.313225
150209834391616,13.796248,-0.100925,0.064625,0.38885
150209844392226,13.806249,-0.0924,-0.00385,0.42185
150209854392906,13.816250,-0.0704,-0.058849998,0.3865125
150209864393753,13.826250,-0.0471625,-0.0966625,0.2850375
150209874394443,13.836251,-0.029975,-0.0807125,0.153175
150209884395305,13.846252,-0.028875,-0.0270875,0.0407
150209894395968,13.856253,-0.0336875,0.0364375,-0.017875
150209904396799,13.866253,-0.0374,0.048675,-0.0460625
150209914397505,13.876254,-0.023924999,0.00715,-0.06435
150209924398118,13.886255,-0.02145,-0.029424999,-0.072875
150209934399041,13.896256,-0.0044,-0.0686125,-0.094875
150209944399657,13.906256,0.0053625,-0.0526625,-0.1144
150209954400503,13.916257,0.02365,-0.0391875,-0.1461625
150209964401209,13.926258,0.034649998,0.0364375,-0.1351625
150209974402060,13.936259,0.0396,0.07315,-0.0826375
150209984402741,13.946259,0.048125,0.075625,-0.0301125
150209994403597,13.956260,0.04455,0.0548625,0.045649998
150210004404270,13.966261,0.0286,0.0218625,0.12375
150210014405121,13.976262,0.0248875,-1.375E-4,0.142175
150210024405739,13.986262,0.0273625,0.0193875,0.14093749
150210034406431,13.996263,0.026124999,0.037675,0.1139875
150210044407261,14.006264,0.02365,0.05115,0.0908875
150210054407949,14.016265,0.0273625,0.0169125,0.054175
150210064408809,14.026265,0.0433125,-0.064899996,-0.0056375
150210074409508,14.036266,0.0468875,-0.1186625,-0.0606375
150210084410110,14.046267,0.04455,-0.1381875,-0.09735
150210094410956,14.056268,0.0248875,-0.0661375,-0.100925
150210104411662,14.066268,0.004125,0.031625,-0.05335
150210114412511,14.076269,-0.0154,0.0719125,0.0273625
150210124413204,14.086270,-0.0226875,0.0083875,0.08965
150210134414037,14.096271,-0.0154,-0.1199,0.1067
150210144414727,14.106271,-0.0056375,-0.22495,0.0639375
150210154415583,14.116272,0.0028875,-0.23595,-0.0166375
150210164416281,14.126273,0.015125,-0.139425,-0.088825
150210174417131,14.136274,0.0163625,0.0193875,-0.127875
150210184417738,14.146274,0.0188375,0.1208625,-0.1071125
150210194418431,14.156275,0.031075,0.1073875,-0.0826375
150210204419277,14.166276,0.053075,0.00715,-0.06435
150210214419892,14.176277,0.064075,-0.11495,-0.0826375
150210224420585,14.186277,0.0578875,-0.1736625,-0.116875
150210234421421,14.196278,0.0358875,-0.13695,-0.1681625
150210244422097,14.206279,0.020075,-0.056375,-0.216975
150210254422964,14.216280,0.0176,0.004675,-0.216975
150210264423655,14.226280,0.026124999,0.01815,-0.1951125
150210274424506,14.236281,0.0433125,-0.0196625,-0.18645
150210284425193,14.246282,0.0554125,-0.0306625,-0.1804
150210294426029,14.256283,0.056649998,-0.0196625,-0.18645
150210304426671,14.266283,0.0396,0.0328625,-0.188925
150210314427368,14.276284,0.0053625,0.0853875,-0.1511125
150210324428217,14.286285,-0.029975,0.100099996,-0.099825
150210334428904,14.296286,-0.0446875,0.0683375,-0.0350625
150210344429522,14.306286,-0.017875,-0.02585,0.0114124995
150210354430359,14.316287,0.0298375,-0.1199,0.0199375
150210364431066,14.326288,0.0664125,-0.117425,0.004125
150210374431921,14.336289,0.05555,-0.0246125,0.0138875
150210384432613,14.346289,0.0053625,0.0671,0.0468875
150210394433258,14.356290,-0.0484,0.0573375,0.081125
150210404434181,14.366291,-0.0617375,-0.0501875,0.08965
150210414435041,14.376292,-0.0507375,-0.16995,0.0468875
150210424435662,14.386292,-0.0336875,-0.24447499,-0.00935
150210434436354,14.396293,-0.054449998,-0.1529,-0.0081124995
150210444436970,14.406294,-0.10945,0.00715,0.056649998
150210454437802,14.416294,-0.1607375,0.1012,0.175175
150210464438494,14.426295,-0.1766875,0.070675,0.2619375
150210474439347,14.436296,-0.188925,-0.0331375,0.2875125
150210484440026,14.446297,-0.177925,-0.17613749,0.2814625
150210494440857,14.456298,-0.1326875,-0.2432375,0.2300375
150210504441470,14.466298,-0.0886875,-0.1467125,0.1714625
150210514442167,14.476299,-0.0837375,0.0548625,0.1837
150210524443021,14.486300,-0.1106875,0.2552,0.2679875
150210534443709,14.496300,-0.13145,0.3309625,0.385275
150210544444558,14.506301,-0.1582625,0.313775,0.52085
150210554445256,14.516302,-0.177925,0.1684375,0.56485
150210564445873,14.526303,-0.15345,0.0121,0.5220875
150210574446702,14.536303,-0.0996875,-0.1271875,0.380325
150210584447325,14.546304,-0.0374,-0.2371875,0.1714625
150210594448008,14.556305,0.009075,-0.20047499,-0.0105875
150210604448833,14.566306,0.0408375,-0.0686125,-0.1571625
150210614449528,14.576306,0.0628375,0.0561,-0.2574
150210624450367,14.586307,0.0848375,0.103675,-0.315975
150210634451059,14.596308,0.095837496,0.059675,-0.3722125
150210644451667,14.606308,0.092125,0.015675,-0.410025
150210654452532,14.616309,0.0946,0.0413875,-0.42955
150210664453224,14.626310,0.08965,0.1219625,-0.4222625
150210674454070,14.636311,0.0726,0.2209625,-0.309925
150210684454672,14.646311,0.0628375,0.23567499,-0.127875
150210694455350,14.656312,0.0823625,0.1782,0.037125
150210704456199,14.666313,0.1166,0.0561,0.0919875
150210714456811,14.676313,0.147125,-0.0221375,0.0444125
150210724457499,14.686314,0.16665,-0.01485,-0.0545875
150210734458340,14.696315,0.16665,0.141625,-0.0631125
150210744459030,14.706316,0.14093749,0.324775,0.045649998
150210754459653,14.716316,0.0798875,0.40425,0.18975
150210764460581,14.726317,0.01155,0.28325,0.2850375
150210774461200,14.736318,-0.0116875,-0.04895,0.220275
150210784462046,14.746319,0.0066,-0.3788125,0.032175
150210794462742,14.756319,0.0176,-0.4778125,-0.2146375
150210804463369,14.766320,0.0053625,-0.3482875,-0.45155
150210814464215,14.776321,-0.0031625,-0.058849998,-0.54202497
150210824464891,14.786322,0.0103124995,0.1794375,-0.49555
150210834465742,14.796322,0.0408375,0.219725,-0.37345
150210844466449,14.806323,0.0603625,0.108625,-0.215875
150210854467095,14.816324,0.0653125,-0.105325,-0.128975
150210864467941,14.826325,0.0677875,-0.3106125,-0.1364
150210874468551,14.836325,0.0642125,-0.347325,-0.1705
150210884469472,14.846326,0.0653125,-0.204325,-0.155925
150210894470090,14.856327,0.0763125,0.0754875,-0.0361625
150210904470791,14.866327,0.084975,0.297825,0.15565
150210914471402,14.876328,0.0947375,0.39545,0.385275
150210924472249,14.886329,0.1117875,0.36987498,0.58575
150210934472943,14.896330,0.1142625,0.2904,0.72985
150210944473565,14.906330,0.106975,0.16335,0.7909
150210954474421,14.916331,0.0972125,0.038775,0.776325
150210964475113,14.926332,0.0715,-0.0455125,0.69685
150210974475943,14.936333,0.0287375,-0.044275,0.5918
150210984476579,14.946333,-0.0103124995,-0.0125124995,0.4830375
150210994477272,14.956334,-0.0067375,-0.0614625,0.3229875
150211004478116,14.966335,0.040975,-0.2715625,0.0554125
150211014478808,14.976335,0.1227875,-0.47685,-0.28655
150211024479412,14.986336,0.1936,-0.46585,-0.6433625
150211034480248,14.996337,0.2107875,-0.2996125,-0.91574997
150211044480954,15.006338,0.185075,-0.038225,-1.0575125
150211054481789,15.016338,0.15455,0.18287499,-1.0709875
150211064482421,15.026339,0.14355,0.2855875,-0.9867
150211074483026,15.036340,0.1595,0.264825,-0.83393747
150211084483714,15.046340,0.1753125,0.2343,-0.636075
150211094484551,15.056341,0.14973749,0.24035,-0.383075
150211104485176,15.066342,0.0922625,0.2464,-0.0911625
150211114485858,15.076343,0.0347875,0.2330625,0.1617
150211124486693,15.086343,-0.007975,0.1793,0.357225
150211134487385,15.096344,-0.0495,0.0875875,0.48675
150211144488227,15.106345,-0.0715,-0.02475,0.5099875
150211154488845,15.116346,-0.0543125,-0.1518,0.4769875
150211164489532,15.126346,0.0092124995,-0.2508,0.4085125
150211174490376,15.136347,0.0972125,-0.2630375,0.3377
150211184490983,15.146348,0.168025,-0.198275,0.2717
150211194491679,15.156348,0.22659999,-0.0834625,0.2033625
150211204492520,15.166349,0.2413125,0.022824999,0.13365
150211214493123,15.176350,0.2168375,0.0815375,0.1166
150211224493829,15.186351,0.1802625,0.0473,0.1214125
150211234494651,15.196351,0.1533125,-0.0834625,0.117837496
150211244495268,15.206352,0.1337875,-0.242275,0.070125
150211254495973,15.216353,0.12155,-0.32285,-0.028875
150211264496590,15.226353,0.12773749,-0.3081375,-0.1485
150211274497451,15.236354,0.1375,-0.2215125,-0.27555
150211284498127,15.246355,0.14355,-0.1469875,-0.4026
150211294498973,15.256356,0.1582625,-0.1139875,-0.51507497
150211304499605,15.266356,0.1667875,-0.0650375,-0.576125
150211314500299,15.276357,0.14973749,0.0680625,-0.5528875
150211324500927,15.286358,0.1032625,0.2464,-0.4112625
150211334501773,15.296358,0.05555,0.39435,-0.1815
150211344502448,15.306359,0.02145,0.4321625,0.0603625
150211354503305,15.316360,-0.003025,0.3601125,0.2253625
150211364503922,15.326361,-0.02255,0.2476375,0.2704625
150211374504537,15.336361,-0.0262625,0.0875875,0.2143625
150211384505235,15.346362,-0.0042625,-0.0149875,0.1018875
150211394506088,15.356363,0.014025,-0.01375,-0.0251625
150211404506690,15.366363,0.02145,0.069299996,-0.1021625
150211414507407,15.376364,0.0567875,0.11935,-0.1485
150211424508239,15.386365,0.1117875,0.1425875,-0.201025
150211434508854,15.396366,0.1557875,0.11935,-0.2597375
150211444509530,15.406366,0.1705,0.0815375,-0.30621248
150211454510147,15.416367,0.163075,0.041249998,-0.3342625
150211464510993,15.426368,0.1472625,0.038775,-0.3073125
150211474511608,15.436368,0.13255,0.041249998,-0.23045
150211484512525,15.446369,0.1313125,0.038775,-0.1241625
150211494513137,15.456370,0.1447875,0.0545875,0.0028875
150211504513752,15.466370,0.16555,0.0803,0.13859999
150211514514431,15.476371,0.190025,0.09735,0.224125
150211524515051,15.486372,0.2143625,0.03025,0.2264625
150211534515979,15.496373,0.2437875,-0.0625625,0.1508375
150211544516590,15.506373,0.2743125,-0.1310375,0.0176
150211554517195,15.516374,0.279125,-0.132275,-0.111925
150211564518041,15.526375,0.256025,-0.0955625,-0.2426875
150211574518732,15.536375,0.229075,-0.04675,-0.326975
150211584519364,15.546376,0.2083125,-0.0039875,-0.337975
150211594520194,15.556377,0.19607499,-0.011275,-0.3427875
150211604520822,15.566378,0.179025,-0.049225,-0.3587375
150211614521528,15.576378,0.15455,-0.0565125,-0.3452625
150211624522388,15.586379,0.11055,-0.0015125,-0.311025
150211634523083,15.596380,0.0605,0.11825,-0.2462625
150211644523701,15.606380,0.0017875,0.275825,-0.139975
150211654524321,15.616381,-0.0323125,0.3441625,-0.028875
150211664525186,15.626382,-0.042075,0.342925,0.0823625
150211674525802,15.636382,-0.0495,0.2891625,0.1508375
150211684526513,15.646383,-0.0507375,0.20487499,0.1813625
150211694527157,15.656384,-0.042075,0.121825,0.16665
150211704527998,15.666385,-0.0397375,0.066825,0.1276
150211714528700,15.676385,-0.047025,0.038775,0.0664125
150211724529320,15.686386,-0.04455,0.060775,0.02255
150211734530167,15.696387,-0.0385,0.1315875,0.0078375
150211744530777,15.706387,-0.025024999,0.220825,0.0286
150211754531454,15.716388,-0.0275,0.2990625,0.108075
150211764532306,15.726389,-0.0408375,0.31735,0.19965
150211774532916,15.736390,-0.0507375,0.2574,0.2338875
150211784533608,15.746390,-0.0592625,0.115775,0.2118875
150211794534224,15.756391,-0.0592625,-0.0735625,0.08965
150211804535070,15.766392,-0.042075,-0.2288,-0.07645
150211814535680,15.776392,-0.0042625,-0.3130875,-0.249975
150211824536357,15.786393,0.0457875,-0.3045625,-0.3977875
150211834537174,15.796394,0.08855,-0.215325,-0.488125
150211844537777,15.806394,0.113025,-0.0210375,-0.476025
150211854538463,15.816395,0.0983125,0.2123,-0.3207875
150211864539051,15.826396,0.069025,0.3625875,-0.078925
150211874539905,15.836397,0.043449998,0.3625875,0.1788875
150211884540597,15.846397,0.0312125,0.18535,0.32793748
150211894541200,15.856398,0.03355,-0.0297,0.340175
150211904541815,15.866399,0.0372625,-0.220275,0.235125
150211914542659,15.876399,0.043449998,-0.26785,0.0774125
150211924543277,15.886400,0.04455,-0.1958,-0.08745
150211934543980,15.896401,0.0397375,-0.0394625,-0.1827375
150211944544596,15.906401,0.036025,0.115775,-0.19745
150211954545440,15.916402,0.0347875,0.2085875,-0.1461625
150211964546132,15.926403,0.0116875,0.20487499,-0.0484
150211974546745,15.936403,-0.025024999,0.1390125,0.0408375
150211984547360,15.946404,-0.06655,0.043725,0.081125
150211994548215,15.956405,-0.106837496,-0.05775,0.081125
150212004548905,15.966406,-0.124025,-0.1359875,0.0383625
150212014549546,15.976406,-0.1263625,-0.1579875,-0.039875
150212024550374,15.986407,-0.113025,-0.1590875,-0.1595
150212034550998,15.996408,-0.0738375,-0.1725625,-0.30855
150212044551691,16.006408,-0.025024999,-0.16885,-0.4222625
150212054552306,16.016409,0.02145,-0.127325,-0.4893625
150212064552926,16.026410,0.054449998,-0.0308,-0.5028375
150212074553759,16.036410,0.06655,0.0473,-0.4576
150212084554439,16.046411,0.07755,0.0595375,-0.3685
150212094555067,16.056412,0.0837375,0.021724999,-0.27555
150212104555911,16.066413,0.0873125,-0.0785125,-0.20845
150212114556588,16.076413,0.08855,-0.20927499,-0.212025
150212124557228,16.086414,0.0972125,-0.24585,-0.2682625
150212134557831,16.096415,0.08855,-0.116325,-0.2805
150212144558686,16.106415,0.0592625,0.10725,-0.1522125
150212154559320,16.116416,0.0262625,0.297825,0.0713625
150212164560013,16.126417,0.0116875,0.3881625,0.3119875
150212174560632,16.136417,-0.003025,0.3674,0.51975
150212184561486,16.146418,-0.0347875,0.2770625,0.660275
150212194562080,16.156419,-0.0787875,0.13035,0.7151375
150212204562775,16.166419,-0.1032625,-0.03575,0.672375
150212214563396,16.176420,-0.104499996,-0.204325,0.511225
150212224564032,16.186421,-0.0848375,-0.2618,0.324225
150212234564878,16.196422,-0.0592625,-0.2068,0.1128875
150212244565584,16.206422,-0.0275,-0.071225,-0.073975
150212254566210,16.216423,-0.01155,0.0803,-0.1632125
150212264566825,16.226424,0.003025,0.1560625,-0.177925
150212274567680,16.236424,0.0017875,0.17435,-0.1082125
150212284568296,16.246425,-0.0103124995,0.1670625,0.0028875
150212294569007,16.256426,-0.0605,0.1475375,0.14093749
150212304569595,16.266426,-0.1276,0.06325,0.2717
150212314570438,16.276427,-0.1813625,-0.0479875,0.3597
150212324571046,16.286428,-0.1948375,-0.15675,0.32065
150212334571707,16.296428,-0.179025,-0.1945625,0.19965
150212344572320,16.306429,-0.1472625,-0.1579875,0.0628375
150212354572925,16.316430,-0.1007875,-0.0625625,-0.0594
150212364573771,16.326430,-0.0653125,0.0460625,-0.1436875
150212374574387,16.336431,-0.0482625,0.1120625,-0.1852125
150212384575079,16.346432,-0.04455,0.1010625,-0.1766875
150212394575682,16.356432,-0.0605,0.0460625,-0.1607375
150212404576282,16.366433,-0.0715,-0.016224999,-0.1142625
150212414577200,16.376434,-0.0935,-0.016224999,-0.045925
150212424577802,16.386434,-0.108075,0.027775,0.0298375
150212434578432,16.396435,-0.1117875,0.0570625,0.0823625
150212444579261,16.406436,-0.1093125,0.066825,0.1043625
150212454579884,16.416437,-0.095837496,0.033825,0.0713625
150212464580489,16.426437,-0.0763125,0.00825,0.0176
150212474581179,16.436438,-0.0628375,0.0119624995,-0.007975
150212484582039,16.446439,-0.080025,0.0314875,-0.02145
150212494582643,16.456439,-0.1142625,0.038775,-0.012925
150212504583258,16.466440,-0.146025,-0.0187,0.009075
150212514583973,16.476441,-0.1557875,-0.1408,0.01155
150212524584590,16.486441,-0.1496,-0.2740375,-0.0617375
150212534585219,16.496442,-0.1276,-0.3716625,-0.1876875
150212544586067,16.506443,-0.1153625,-0.3936625,-0.3293125
150212554586672,16.516443,-0.1032625,-0.342375,-0.4453625
150212564587376,16.526444,-0.08855,-0.26427498,-0.5308875
150212574587990,16.536445,-0.0726,-0.160325,-0.5786
150212584588838,16.546446,-0.0592625,-0.0675125,-0.52965
150212594589455,16.556446,-0.047025,-0.016224999,-0.4246
150212604590071,16.566447,-0.0177375,-0.01375,-0.2963125
150212614590739,16.576447,0.0067375,0.0094875,-0.1607375
150212624591354,16.586448,0.0127875,0.0460625,-0.062975
150212634592184,16.596449,0.007975,0.113299996,0.056649998
150212644592801,16.606449,-0.0127875,0.19635,0.2167
150212654593500,16.616450,-0.0347875,0.2673,0.37675
150212664594128,16.626451,-0.0628375,0.3001625,0.5209875
150212674594748,16.636451,-0.0946,0.2476375,0.6358
150212684595582,16.646452,-0.1166,0.1170125,0.6760875
150212694596210,16.656453,-0.1142625,-0.0735625,0.5979875
150212704596885,16.666454,-0.1032625,-0.2385625,0.4415125
150212714597532,16.676454,-0.0922625,-0.29479998,0.2607
150212724598147,16.686455,-0.097075,-0.253275,0.114125
150212734598986,16.696456,-0.0922625,-0.1615625,0.0213125
150212744599609,16.706456,-0.0763125,-0.0504625,-0.0642125
150212754600210,16.716457,-0.05555,-0.0149875,-0.1387375
150212764600905,16.726458,-0.031075,-0.0455125,-0.2132625
150212774601523,16.736458,-0.0127875,-0.0565125,-0.267025
150212784602376,16.746459,-0.0165,-0.016224999,-0.2633125
150212794602988,16.756460,-0.0408375,0.060775,-0.1912625
150212804603620,16.766460,-0.0677875,0.1500125,-0.045925
150212814604225,16.776461,-0.082499996,0.2085875,0.136125
150212824604907,16.786462,-0.0617375,0.1951125,0.263175
150212834605509,16.796462,-0.0275,0.113299996,0.3144625
150212844606355,16.806463,0.001925,0.0485375,0.30965
150212854606970,16.816464,0.01045,0.0680625,0.274175
150212864607661,16.826464,-0.007975,0.187825,0.268125
150212874608266,16.836465,-0.0482625,0.3271125,0.3487
150212884608908,16.846466,-0.080025,0.4236375,0.48427498
150212894609723,16.856466,-0.09955,0.40535,0.589325
150212904610355,16.866467,-0.1043625,0.3111625,0.611325
150212914610961,16.876468,-0.0983125,0.1560625,0.54175
150212924611576,16.886468,-0.0873125,0.0094875,0.401225
150212934612287,16.896469,-0.06655,-0.09075,0.2228875
150212944612908,16.906470,-0.0543125,-0.0625625,0.070125
150212954613528,16.916470,-0.0397375,0.041249998,0.0078375
150212964614369,16.926471,-0.03355,0.176825,-6.875E-4
150212974615047,16.936472,-0.0298375,0.2476375,0.0237875
150212984615662,16.946472,-0.0237875,0.20735,0.056649998
150212994616281,16.956473,-0.003025,0.071775,0.0298375
150213004616897,16.966474,0.0042625,-0.0528,-0.014162499
150213014617743,16.976474,0.014025,-0.1139875,-0.07645
150213024618358,16.986475,0.0262625,-0.1029875,-0.1131625
150213034618974,16.996476,0.0482625,-0.0785125,-0.12045
150213044619671,17.006476,0.0837375,-0.038225,-0.1192125
150213054620272,17.016477,0.1142625,-0.0089375,-0.1082125
150213064620897,17.026478,0.14355,-0.0284625,-0.1155
150213074621738,17.036478,0.1557875,-0.0479875,-0.1216875
150213084622354,17.046479,0.157025,-0.082225,-0.1387375
150213094623030,17.056480,0.141075,-0.094325,-0.172975
150213104623647,17.066480,0.1117875,-0.1139875,-0.20845
150213114624244,17.076481,0.0715,-0.093225,-0.19745
150213124625090,17.086482,0.02145,-0.0528,-0.122925
150213134625688,17.096482,-0.0298375,0.016775,-0.0251625
150213144626391,17.106483,-0.0543125,0.0424875,0.0543125
150213154627016,17.116484,-0.047025,0.0143,0.0848375
150213164627643,17.126484,-0.018975,-0.055275,0.0383625
150213174628273,17.136485,0.001925,-0.088275,-0.028875
150213184629136,17.146486,-0.007975,-0.027224999,-0.056925
150213194629762,17.156486,-0.0262625,0.0253,-0.032449998
150213204630374,17.166487,-0.047025,0.091299996,0.0347875
150213214631050,17.176488,-0.069025,0.13035,0.1238875
150213224631658,17.186488,-0.0873125,0.11935,0.24365
150213234632273,17.196489,-0.0836,0.043725,0.29865
150213244633117,17.206490,-0.053075,-0.0650375,0.25465
150213254633725,17.216490,-0.0213125,-0.1188,0.1728375
150213264634444,17.226491,-0.0042625,-0.1260875,0.0763125
150213274635073,17.236492,-0.0067375,-0.082225,0.0127875
150213284635691,17.246492,-0.018975,-0.027224999,-0.0154
150213294636297,17.256493,-0.0262625,-0.0320375,-0.054449998
150213304636913,17.266494,-0.0397375,-0.0760375,-0.0886875
150213314637556,17.276494,-0.0518375,-0.143275,-0.1472625
150213324638412,17.286495,-0.0715,-0.1885125,-0.2267375
150213334639028,17.296496,-0.086075,-0.1945625,-0.2963125
150213344639713,17.306496,-0.097075,-0.138325,-0.3073125
150213354640315,17.316497,-0.1043625,-0.044275,-0.2597375
150213364640917,17.326498,-0.1007875,0.0375375,-0.146025
150213374641767,17.336498,-0.091025,0.06325,-0.0056375
150213384642449,17.346499,-0.0702625,0.0620125,0.103125
150213394643001,17.356500,-0.0567875,0.016775,0.169125
150213404643631,17.366500,-0.0397375,-0.060225,0.1618375
150213414644323,17.376501,-0.02255,-0.132275,0.07865
150213424644931,17.386502,-0.0213125,-0.1480875,-0.0496375
150213434645560,17.396502,-0.0372625,-0.12979999,-0.1742125
150213444646385,17.406503,-0.05555,-0.0895125,-0.2402125
150213454647003,17.416504,-0.069025,-0.00275,-0.245025
150213464647618,17.426504,-0.0738375,0.0460625,-0.205975
150213474648335,17.436505,-0.064075,0.066825,-0.1607375
150213484648929,17.446506,-0.0495,0.0705375,-0.117975
150213494649541,17.456506,-0.0323125,0.0265375,-0.1032625
150213504650386,17.466507,-0.020075,-0.00275,-0.0911625
150213514650994,17.476508,-0.02255,0.0204875,-0.0496375
150213524651618,17.486508,-0.03355,0.0790625,0.0248875
150213534652234,17.496509,-0.031075,0.1463,0.0933625
150213544652848,17.506510,-0.0188375,0.1793,0.1728375
150213554653533,17.516510,-0.007975,0.176825,0.241175
150213564654162,17.526511,-0.0055,0.1535875,0.2998875
150213574654992,17.536512,-0.0188375,0.1120625,0.3119875
150213584655594,17.546512,-0.0347875,0.0510125,0.2827
150213594656225,17.556513,-0.0457875,-0.016224999,0.20693749
150213604656835,17.566514,-0.0457875,-0.06875,0.1056
150213614657456,17.576514,-0.0433125,-0.121275,-0.0202125
150213624658132,17.586515,-0.03355,-0.12375,-0.157025
150213634658749,17.596515,-0.0385,-0.044275,-0.21945
150213644659355,17.606516,-0.05555,0.0290125,-0.223025
150213654660206,17.616517,-0.0677875,0.0583,-0.1876875
150213664660821,17.626518,-0.0702625,0.038775,-0.13145
150213674661426,17.636518,-0.06655,-0.0284625,-0.0801625
150213684662051,17.646519,-0.0433125,-0.1469875,-0.0776875
150213694662665,17.656519,0.003025,-0.23485,-0.1375
150213704663364,17.666520,0.054449998,-0.23127499,-0.223025
150213714663964,17.676521,0.080025,-0.0748,-0.2475
150213724664575,17.686521,0.0642125,0.1390125,-0.18645
150213734665190,17.696522,0.0372625,0.2721125,-0.067925
150213744665821,17.706523,0.0275,0.24887499,0.042075
150213754666667,17.716523,0.0482625,0.071775,0.0873125
150213764667282,17.726524,0.0897875,-0.143275,0.086075
150213774667897,17.736525,0.1142625,-0.2226125,0.0616
150213784668573,17.746525,0.0983125,-0.12375,0.0468875
150213794669204,17.756526,0.051975,0.0460625,0.0798875
150213804669820,17.766527,0.018975,0.143825,0.12265
150213814670445,17.776527,0.025024999,0.10725,0.1458875
150213824671054,17.786528,0.047025,-0.0077,0.119075
150213834671888,17.796529,0.06655,-0.1285625,0.0543125
150213844672498,17.806529,0.07755,-0.18727499,-0.043449998
150213854673129,17.816530,0.0787875,-0.1530375,-0.13145
150213864673824,17.826531,0.0787875,-0.0638,-0.1546875
150213874674364,17.836531,0.0862125,0.010725,-0.1241625
150213884675076,17.846532,0.102025,0.0375375,-0.062975
150213894675691,17.856532,0.1057375,0.0644875,0.004125
150213904676317,17.866533,0.0862125,0.0790625,0.0457875
150213914677163,17.876534,0.0482625,0.0765875,0.0713625
150213924677792,17.886534,0.015262499,0.0485375,0.070125
150213934678408,17.896535,0.014025,-0.0320375,-0.0031625
150213944679028,17.906536,0.029975,-0.1505625,-0.1436875
150213954679723,17.916536,0.0556875,-0.2068,-0.2792625
150213964680341,17.926537,0.0556875,-0.1225125,-0.36355
150213974680965,17.936538,0.0397375,0.0204875,-0.37454998
150213984681581,17.946538,0.0226875,0.1511125,-0.3183125
150213994682435,17.956539,6.875E-4,0.21835,-0.2132625
150214004683052,17.966540,-0.02255,0.2220625,-0.0862125
150214014683677,17.976540,-0.053075,0.2305875,0.0493625
150214024684277,17.986541,-0.095837496,0.1951125,0.1568875
150214034684892,17.996542,-0.1227875,0.12925,0.18259999
150214044685520,18.006542,-0.1166,-0.0284625,0.1056
150214054686116,18.016543,-0.0763125,-0.18727499,-0.056925
150214064686734,18.026543,-0.04455,-0.1835625,-0.2022625
150214074687436,18.036544,-0.0653125,0.005775,-0.2022625
150214084688036,18.046545,-0.1142625,0.2550625,-0.0594
150214094688876,18.056546,-0.1618375,0.41635,0.1678875
150214104689258,18.066546,-0.180125,0.37235,0.3487
150214114690102,18.076547,-0.1557875,0.148775,0.3927
150214124690720,18.086547,-0.1313125,-0.1640375,0.3304125
150214134691344,18.096548,-0.05555,-0.4120875,0.15565
150214144692036,18.106549,0.040975,-0.5281375,-0.1216875
150214154692655,18.116549,0.113025,-0.4401375,-0.3427875
150214164693281,18.126550,0.141075,-0.2055625,-0.4148375
150214174693907,18.136551,0.146025,0.0460625,-0.3867875
150214184694535,18.146551,0.1375,0.2061125,-0.3183125
150214194695141,18.156552,0.1472625,0.2525875,-0.267025
150214204695996,18.166553,0.1472625,0.220825,-0.205975
150214214696604,18.176553,0.1192125,0.14135,-0.122925
150214224697215,18.186554,0.080025,0.0864875,0.0066
150214234697830,18.196555,0.0482625,0.049775,0.1483625
150214244698450,18.206555,0.0422125,0.01925,0.2314125
150214254699133,18.216556,0.0567875,0.027775,0.23265
150214264699748,18.226556,0.082499996,0.0705375,0.1874125
150214274700363,18.236557,0.106975,0.1425875,0.1324125
150214284700969,18.246558,0.1082125,0.2110625,0.0933625
150214294701575,18.256558,0.0983125,0.2305875,0.06655
150214304702189,18.266559,0.0715,0.2000625,0.0738375
150214314702799,18.276559,0.0397375,0.110825,0.081125
150214324703417,18.286560,0.014025,0.0363,0.0738375
150214334704234,18.296561,-0.0067375,0.0240625,0.0848375
150214344704840,18.306562,-0.020075,0.088825,0.1104125
150214354705451,18.316562,-0.020075,0.1535875,0.114125
150214364706071,18.326563,-0.0177375,0.1720125,0.108075
150214374706690,18.336563,0.0067375,0.0705375,0.01155
150214384707381,18.346564,0.058025,-0.1175625,-0.155925
150214394707919,18.356565,0.113025,-0.25685,-0.3257375
150214404708623,18.366565,0.1447875,-0.2410375,-0.471075
150214414709243,18.376566,0.1423125,-0.127325,-0.504075
150214424709868,18.386567,0.12155,0.14135,-0.3843125
150214434710469,18.396567,0.09955,0.40535,-0.168025
150214444711309,18.406568,0.08745,0.4846875,0.07755
150214454711930,18.416569,0.0935,0.3491125,0.22165
150214464712313,18.426569,0.12773749,0.0155375,0.1703625
150214474712928,18.436570,0.17173749,-0.320375,0.015125
150214484713785,18.446570,0.1838375,-0.47685,-0.1876875
150214494714397,18.456571,0.150975,-0.3741375,-0.3488375
150214504715017,18.466572,0.08745,-0.0540375,-0.3403125
150214514715633,18.476572,0.0202125,0.2783,-0.223025
150214524716252,18.486573,-0.0298375,0.424875,-0.084975
150214534716869,18.496574,-0.0495,0.330825,-0.006875
150214544717486,18.506574,-0.05555,0.06325,-0.001925
150214554718183,18.516575,-0.064075,-0.20927499,-0.0594
150214564718796,18.526575,-0.0726,-0.2996125,-0.1362625
150214574719411,18.536576,-0.0836,-0.2068,-0.17545
150214584720022,18.546577,-0.080025,-0.0125124995,-0.1546875
150214594720608,18.556577,-0.05555,0.1621125,-0.082499996
150214604721226,18.566578,-0.0323125,0.2586375,0.014025
150214614721842,18.576579,-0.0067375,0.1890625,0.0726
150214624722482,18.586579,0.012925,0.027775,0.0653125
150214634723334,18.596580,0.0226875,-0.1480875,-0.0056375
150214644723945,18.606581,0.007975,-0.232375,-0.089925
150214654724580,18.616581,-0.0262625,-0.1860375,-0.1057375
150214664725181,18.626582,-0.058025,-0.0284625,-0.007975
150214674725786,18.636582,-0.069025,0.1401125,0.158125
150214684726414,18.646583,-0.0518375,0.2171125,0.2937
150214694727040,18.656584,-0.0275,0.1720125,0.3194125
150214704727656,18.666584,-0.0103124995,0.03025,0.235125
150214714728272,18.676585,6.875E-4,-0.1848,0.0457875
150214724728943,18.686586,0.0226875,-0.3081375,-0.1667875
150214734729534,18.696586,0.018975,-0.276375,-0.2877875
150214744730150,18.706587,-0.0067375,-0.1285625,-0.289025
150214754730767,18.716587,-0.0372625,0.0875875,-0.19745
150214764731375,18.726588,-0.0543125,0.2123,-0.0814
150214774731990,18.736589,-0.0457875,0.192775,0.0127875
150214784732605,18.746589,-0.025024999,0.0119624995,0.0213125
150214794733204,18.756590,0.0116875,-0.1835625,-0.0666875
150214804733806,18.766590,0.0372625,-0.26785,-0.172975
150214814734422,18.776591,0.040975,-0.1628,-0.2547875
150214824735042,18.786592,0.0262625,0.0375375,-0.2523125
150214834735648,18.796592,0.0262625,0.2061125,-0.157025
150214844736276,18.806593,0.0495,0.24653749,-0.0471625
150214854737124,18.816594,0.0787875,0.18535,0.0726
150214864737747,18.826594,0.09955,0.069299996,0.1544125
150214874738105,18.836595,0.1203125,-0.0504625,0.1678875
150214884738951,18.846596,0.1252625,-0.105325,0.125125
150214894739562,18.856596,0.102025,-0.066275,0.0726
150214904740182,18.866597,0.0666875,-0.0015125,-0.001925
150214914740821,18.876598,0.0482625,0.052249998,-0.0605
150214924741435,18.886598,0.047025,0.0803,-0.1021625
150214934742051,18.896599,0.0567875,0.0510125,-0.135025
150214944742667,18.906599,0.0592625,0.027775,-0.1375
150214954743292,18.916600,0.0556875,0.03025,-0.1057375
150214964743908,18.926601,0.0457875,0.0460625,-0.0397375
150214974744536,18.936601,0.0457875,0.0253,0.025024999
150214984745169,18.946602,0.058025,-0.0039875,0.0603625
150214994745864,18.956603,0.07645,-0.0455125,0.0383625
150215004746479,18.966603,0.095975,-0.0479875,-0.02145
150215014747089,18.976604,0.1032625,-0.0284625,-0.0812625
150215024747616,18.986604,0.0972125,0.038775,-0.1106875
150215034748303,18.996605,0.07645,0.0950125,-0.1167375
150215044748915,19.006606,0.069025,0.082775,-0.12045
150215054749539,19.016606,0.0605,0.0583,-0.0972125
150215064750174,19.026607,0.047025,0.0400125,-0.043449998
150215074750714,19.036607,0.0275,0.0339625,0.015125
150215084751401,19.046608,0.003025,0.0583,0.05555
150215094752017,19.056609,-0.0275,0.09625,0.0908875
150215104752623,19.066609,-0.047025,0.1243,0.1214125
150215114753234,19.076610,-0.05555,0.1084875,0.1128875
150215124753854,19.086611,-0.0628375,0.069299996,0.106837496
150215134754393,19.096611,-0.0726,0.032725,0.117837496
150215144755009,19.106612,-0.0933625,0.0363,0.13365
150215154755699,19.116612,-0.117837496,0.0765875,0.1618375
150215164756288,19.126613,-0.141075,0.1205875,0.22165
150215174756922,19.136614,-0.1508375,0.1280125,0.2509375
150215184757527,19.146614,-0.1458875,0.082775,0.257125
150215194758141,19.156615,-0.14355,-0.0100375,0.2228875
150215204758772,19.166615,-0.13859999,-0.1029875,0.1606
150215214759383,19.176616,-0.1458875,-0.18727499,0.1324125
150215224760008,19.186617,-0.1496,-0.2470875,0.08855
150215234760628,19.196617,-0.147125,-0.2800875,0.037125
150215244761230,19.206618,-0.1483625,-0.32285,-0.0166375
150215254761848,19.216619,-0.13859999,-0.3155625,-0.0727375
150215264762464,19.226619,-0.12155,-0.2935625,-0.12773749
150215274763079,19.236620,-0.097075,-0.2531375,-0.16445
150215284763690,19.246620,-0.0702625,-0.226325,-0.1925
150215294764315,19.256621,-0.0347875,-0.2105125,-0.2022625
150215304764931,19.266622,-0.0078375,-0.22385,-0.2145
150215314765552,19.276622,0.0092124995,-0.2226125,-0.23155
150215324766176,19.286623,0.0165,-0.2068,-0.2352625
150215334766776,19.296623,0.025024999,-0.160325,-0.2022625
150215344767407,19.306624,0.0287375,-0.1065625,-0.1082125
150215354768023,19.316625,0.036025,-0.0625625,0.0053625
150215364768639,19.326625,0.054449998,-0.0528,0.0983125
150215374769277,19.336626,0.0715,-0.06875,0.147125
150215384769892,19.346627,0.084975,-0.0858,0.164175
150215394770517,19.356627,0.091025,-0.087037496,0.169125
150215404771128,19.366628,0.084975,-0.0968,0.1544125
150215414771744,19.376628,0.07645,-0.093225,0.1203125
150215424772374,19.386629,0.0592625,-0.116325,0.0713625
150215434772988,19.396630,0.0446875,-0.165275,-0.0251625
150215444773603,19.406630,0.02145,-0.23485,-0.1412125
150215454774223,19.416631,-0.009075,-0.281325,-0.2365
150215464774830,19.426632,-0.0482625,-0.292325,-0.295075
150215474775446,19.436632,-0.086075,-0.2838,-0.29755
150215484776072,19.446633,-0.106837496,-0.2520375,-0.2682625
150215494776681,19.456633,-0.11055,-0.2410375,-0.23773749
150215504777216,19.466634,-0.09955,-0.23485,-0.205975
150215514777925,19.476635,-0.086075,-0.23485,-0.17655
150215524778528,19.486635,-0.075075,-0.226325,-0.150975
150215534779144,19.496636,-0.0812625,-0.1860375,-0.1167375
150215544779677,19.506636,-0.0922625,-0.138325,-0.0556875
150215554780368,19.516637,-0.102025,-0.0675125,0.0457875
150215564780906,19.526638,-0.102025,-0.0259875,0.1508375
150215574781593,19.536638,-0.0922625,-0.01375,0.23265
150215584782134,19.546639,-0.086075,-0.0125124995,0.2864125
150215594782734,19.556639,-0.086075,-0.011275,0.3034625
150215604783408,19.566640,-0.0897875,-0.016224999,0.2814625
150215614783930,19.576641,-0.095837496,-0.06875,0.213125
150215624784622,19.586641,-0.0946,-0.09075,0.1203125
150215634785146,19.596642,-0.097075,-0.1078,0.0286
150215644785778,19.606642,-0.1007875,-0.1040875,-0.0056375
150215654786401,19.616643,-0.1056,-0.0625625,0.0066
150215664787007,19.626644,-0.102025,-0.0210375,0.0738375
150215674787623,19.636644,-0.08855,-0.0187,0.13859999
150215684788243,19.646645,-0.069025,-0.027224999,0.1764125
150215694788859,19.656646,-0.047025,-0.0699875,0.1923625
150215704789471,19.666646,-0.0213125,-0.1395625,0.191125
150215714790085,19.676647,-0.0017875,-0.1640375,0.1898875
150215724790700,19.686647,0.001925,-0.143275,0.2033625
150215734791315,19.696648,0.001925,-0.0675125,0.2399375
150215744791931,19.706649,0.0092124995,0.005775,0.296175
150215754792307,19.716649,0.0275,0.0155375,0.3084125
150215764792920,19.726650,0.0397375,-0.00275,0.2778875
150215774793526,19.736650,0.0446875,-0.06875,0.219175
150215784794151,19.746651,0.0397375,-0.093225,0.1838375
150215794794757,19.756651,0.0275,-0.105325,0.163075
150215804795373,19.766652,0.0092124995,-0.0638,0.147125
150215814795989,19.776653,-0.014025,0.0204875,0.1483625
150215824796595,19.786653,-0.0275,0.0644875,0.1618375
150215834797196,19.796654,-0.0385,0.032725,0.1508375
150215844797795,19.806654,-0.0372625,-0.0259875,0.1128875
150215854798400,19.816655,-0.036025,-0.077275,0.0713625
150215864799016,19.826656,-0.0408375,-0.060225,0.031075
150215874799637,19.836656,-0.0457875,0.016775,0.037125
150215884800174,19.846657,-0.03355,0.0985875,0.0688875
150215894800790,19.856657,-0.01155,0.1425875,0.09955
150215904801467,19.866658,0.029975,0.1095875,0.0946
150215914801997,19.876659,0.054449998,0.0583,0.0567875
150215924802588,19.886659,0.06545,0.0363,-6.875E-4
150215934803203,19.896660,0.0495,0.0790625,-0.029975
150215944803843,19.906661,0.029975,0.1560625,-0.0177375
150215954804468,19.916661,0.014025,0.2061125,0.0053625
150215964805070,19.926662,0.007975,0.170775,-0.0067375
150215974805469,19.936662,-0.0067375,0.10725,-0.0385
150215984806325,19.946663,-0.0275,0.0350625,-0.104499996
150215994806955,19.956664,-0.0616,-0.0100375,-0.1815
150216004807335,19.966664,-0.0933625,0.00825,-0.2303125
150216014807953,19.976665,-0.1153625,0.043725,-0.2597375
150216024808568,19.986665,-0.1166,0.0875875,-0.2597375
150216034809194,19.996666,-0.1043625,0.099825,-0.2365
150216044809810,20.006666,-0.097075,0.0680625,-0.20955
150216054810416,20.016667,-0.097075,0.0363,-0.168025
150216064811016,20.026668,-0.102025,0.021724999,-0.0935
150216074811647,20.036668,-0.119075,0.0570625,-0.0067375
150216084812191,20.046669,-0.1398375,0.1060125,0.0787875
150216094812809,20.056669,-0.14355,0.110825,0.1018875
150216104813424,20.066670,-0.13255,0.1035375,0.059125
150216114814025,20.076671,-0.113025,0.032725,-0.0361625
150216124814631,20.086671,-0.0836,-0.077275,-0.1852125
150216134815015,20.096672,-0.0616,-0.1420375,-0.3256
150216144815655,20.106672,-0.042075,-0.132275,-0.40507498
150216154816503,20.116673,-0.025024999,-0.0369875,-0.4013625
150216164817123,20.126674,0.0031625,0.143825,-0.333025
150216174817506,20.136674,0.0226875,0.341825,-0.2217875
150216184818135,20.146675,0.0287375,0.441925,-0.0776875
150216194818751,20.156675,0.0275,0.419925,0.0726
150216204819366,20.166676,0.015262499,0.2673,0.185075
150216214819998,20.176677,0.0042625,0.0644875,0.2473625
150216224820542,20.186677,-0.0078375,-0.138325,0.268125
150216234821162,20.196678,-0.025024999,-0.2398,0.2583625
150216244821870,20.206679,-0.0433125,-0.21285,0.21065
150216254822401,20.216679,-0.0457875,-0.093225,0.1838375
150216264823026,20.226680,-0.0433125,0.0534875,0.213125
150216274823632,20.236680,-0.042075,0.1731125,0.279125
150216284824248,20.246681,-0.0543125,0.20253749,0.3597
150216294824636,20.256681,-0.0738375,0.154825,0.4219875
150216304825251,20.266682,-0.097075,0.0864875,0.4269375
150216314826113,20.276683,-0.1166,-0.0479875,0.346225
150216324826478,20.286683,-0.124025,-0.16885,0.224125
150216334827094,20.296684,-0.1373625,-0.2556125,0.0543125
150216344827704,20.306684,-0.136125,-0.2630375,-0.111925
150216354828245,20.316685,-0.1458875,-0.2140875,-0.234025
150216364828855,20.326686,-0.136125,-0.1150875,-0.3243625
150216374829470,20.336686,-0.1423125,0.010725,-0.3562625
150216384830069,20.346687,-0.13255,0.1475375,-0.3293125
150216394830669,20.356687,-0.1007875,0.2684,-0.23773749
150216404831285,20.366688,-0.0603625,0.3234,-0.1265
150216414831666,20.376688,-0.0262625,0.2806375,-0.034925
150216424832280,20.386689,-0.0165,0.181775,0.009075
150216434832886,20.396690,-0.031075,0.0875875,0.025024999
150216444833488,20.406690,-0.0677875,0.01925,0.0237875
150216454834112,20.416691,-0.11055,-0.0039875,0.0127875
150216464834746,20.426691,-0.1568875,0.0119624995,-0.0031625
150216474835285,20.436692,-0.1948375,0.0595375,-0.007975
150216484835900,20.446693,-0.235125,0.0925375,-0.012925
150216494836526,20.456693,-0.2668875,0.09625,-0.0287375
150216504837127,20.466694,-0.2718375,0.0974875,-0.0812625
150216514837757,20.476694,-0.24365,0.11825,-0.106975
150216524838369,20.486695,-0.2033625,0.11825,-0.0886875
150216534838743,20.496695,-0.17765,0.13653749,-0.029975
150216544839367,20.506696,-0.163075,0.1475375,0.031075
150216554840002,20.516697,-0.16555,0.1120625,0.05555
150216564840618,20.526697,-0.17407499,0.06325,0.0347875
150216574841224,20.536698,-0.19965,0.0583,0.0323125
150216584841764,20.546698,-0.22165,0.069299996,0.0726
150216594842370,20.556699,-0.24007499,0.09625,0.1593625
150216604842997,20.566700,-0.2363625,0.055825,0.219175
150216614843623,20.576700,-0.2204125,-0.03575,0.2033625
150216624844242,20.586701,-0.1973125,-0.10175,0.1153625
150216634844622,20.596701,-0.180125,-0.143275,-0.0226875
150216644845235,20.606702,-0.1753125,-0.17985,-0.1827375
150216654845834,20.616703,-0.17655,-0.1810875,-0.2938375
150216664846449,20.626703,-0.180125,-0.127325,-0.339075
150216674847074,20.636704,-0.1788875,-0.022275,-0.3158375
150216684847589,20.646704,-0.185075,0.11825,-0.201025
150216694848204,20.656705,-0.18259999,0.214775,-0.062975
150216704848820,20.666706,-0.1728375,0.1915375,0.0603625
150216714849436,20.676706,-0.1728375,0.091299996,0.14355
150216724850042,20.686707,-0.18865,-0.1040875,0.130075
150216734850666,20.696707,-0.19965,-0.2935625,0.0543125
150216744851065,20.706708,-0.2033625,-0.4021875,-0.051975
150216754851680,20.716708,-0.1936,-0.4120875,-0.14355
150216764852234,20.726709,-0.169125,-0.2910875,-0.168025
150216774852836,20.736710,-0.13859999,-0.088275,-0.150975
150216784853444,20.746710,-0.095837496,0.038775,-0.1227875
150216794854055,20.756711,-0.0433125,0.0974875,-0.08745
150216804854436,20.766711,-5.5E-4,0.055825,-0.062975
150216814855043,20.776712,0.036025,-0.049225,-0.089925
150216824855675,20.786712,0.0556875,-0.165275,-0.139975
150216834856295,20.796713,0.0642125,-0.204325,-0.1852125
150216844856920,20.806714,0.0702625,-0.1786125,-0.212025
150216854857536,20.816714,0.091025,-0.0895125,-0.1852125
150216864858176,20.826715,0.12155,0.0155375,-0.1252625
150216874858703,20.836715,0.168025,0.049775,-0.0862125
150216884859095,20.846716,0.2035,0.0620125,-0.0702625
150216894859708,20.856716,0.2035,0.0339625,-0.054449998
150216904860310,20.866717,0.179025,0.0595375,-0.0044
150216914860910,20.876718,0.1595,0.132825,0.07755
150216924861550,20.886718,0.1557875,0.21835,0.21807499
150216934862166,20.896719,0.17407499,0.24887499,0.3304125
150216944862713,20.906719,0.1973125,0.21835,0.34141248
150216954863336,20.916720,0.201025,0.1560625,0.2949375
150216964863953,20.926721,0.1925,0.066825,0.1716
150216974864340,20.936721,0.1607375,0.0204875,0.009075
150216984865186,20.946722,0.113025,0.01925,-0.106975
150216994865584,20.956722,0.08745,0.0570625,-0.2107875
150217004866194,20.966723,0.084975,0.1035375,-0.295075
150217014866748,20.976723,0.0947375,0.1500125,-0.3146
150217024867440,20.986724,0.1007875,0.1535875,-0.31707498
150217034867968,20.996725,0.095975,0.1720125,-0.3243625
150217044868593,21.006725,0.0837375,0.1951125,-0.3012625
150217054869001,21.016726,0.0727375,0.2415875,-0.2657875
150217064869850,21.026727,0.080025,0.2501125,-0.2475
150217074870227,21.036727,0.0897875,0.225775,-0.2365
150217084870828,21.046728,0.095975,0.2061125,-0.212025
150217094871383,21.056728,0.1057375,0.214775,-0.172975
150217104871973,21.066729,0.1155,0.2831125,-0.100925
150217114872583,21.076729,0.1337875,0.3491125,-0.018975
150217124872979,21.086730,0.1447875,0.3856875,0.0616
150217134873583,21.096730,0.1485,0.3295875,0.0628375
150217144874202,21.106731,0.139975,0.2550625,0.009075
150217154874828,21.116732,0.128975,0.16335,-0.0581625
150217164875373,21.126732,0.12155,0.0840125,-0.1326875
150217174875987,21.136733,0.1192125,0.091299996,-0.14973749
150217184876587,21.146733,0.128975,0.1573,-0.12773749
150217194877194,21.156734,0.1705,0.2123,-0.095975
150217204877580,21.166734,0.212025,0.19635,-0.09845
150217214878186,21.176735,0.245025,0.115775,-0.1595
150217224878799,21.186735,0.23773749,0.013062499,-0.234025
150217234879400,21.196736,0.2255,-0.0589875,-0.28655
150217244879945,21.206737,0.2168375,-0.0565125,-0.2608375
150217254880574,21.216737,0.23773749,0.0155375,-0.15455
150217264881185,21.226738,0.2743125,0.110825,-6.875E-4
150217274881800,21.236738,0.322025,0.198825,0.13859999
150217284882199,21.246739,0.3548875,0.203775,0.2058375
150217294882809,21.256739,0.36107498,0.14135,0.21065
150217304883350,21.266740,0.3293125,0.0864875,0.1483625
150217314884042,21.276741,0.2926,0.0204875,0.0763125
150217324884560,21.286741,0.23155,0.00825,0.031075
150217334885170,21.296742,0.1802625,0.0240625,0.0078375
150217344885552,21.306742,0.1447875,0.066825,0.0347875
150217354886165,21.316743,0.12773749,0.1060125,0.0616
150217364886766,21.326743,0.117975,0.1353,0.0848375
150217374887310,21.336744,0.1007875,0.1610125,0.11055
150217384887934,21.346745,0.0776875,0.121825,0.1018875
150217394888555,21.356745,0.054449998,0.0449625,0.0286
150217404889176,21.366746,0.029975,-0.022275,-0.0702625
150217414889560,21.376746,0.01045,-0.13475,-0.1692625
150217424890160,21.386747,0.0092124995,-0.2140875,-0.238975
150217434890781,21.396747,0.02145,-0.1725625,-0.2547875
150217444891415,21.406748,0.0482625,-0.060225,-0.223025
150217454891965,21.416749,0.0812625,0.0840125,-0.150975
150217464892569,21.426749,0.11055,0.1830125,-0.062975
150217474893184,21.436750,0.139975,0.2171125,0.020075
150217484893586,21.446750,0.1595,0.1683,0.0763125
150217494894208,21.456751,0.1632125,0.07425,0.11165
150217504894824,21.466752,0.157025,-0.011275,0.1018875
150217514895353,21.476752,0.1447875,-0.060225,0.069025
150217524895969,21.486753,0.12045,-0.0528,0.0383625
150217534896598,21.496753,0.10945,-0.0455125,-0.0226875
150217544896980,21.506754,0.104499996,-0.0088,-0.0556875
150217554897593,21.516754,0.1057375,0.0155375,-0.080025
150217564898208,21.526755,0.095975,0.0534875,-0.095975
150217574898815,21.536756,0.0715,0.0595375,-0.09845
150217584899431,21.546756,0.043449998,0.06325,-0.045925
150217594899985,21.556757,0.015262499,0.0803,-6.875E-4
150217604900578,21.566757,0.0055,0.049775,0.0408375
150217614901165,21.576758,0.0031625,-0.0284625,0.0127875
150217624901539,21.586758,-0.003025,-0.1040875,-0.0727375
150217634902141,21.596759,-0.0127875,-0.2006125,-0.2255
150217644902741,21.606759,-0.0372625,-0.23127499,-0.3683625
150217654903282,21.616760,-0.0506,-0.198275,-0.455125
150217664903907,21.626761,-0.064075,-0.0675125,-0.455125
150217674904506,21.636761,-0.0702625,0.1084875,-0.3623125
150217684904888,21.646762,-0.0616,0.214775,-0.2193125
150217694905501,21.656762,-0.0433125,0.2453,-0.0922625
150217704906119,21.666763,-0.0286,0.1463,-0.032449998
150217714906741,21.676763,-0.0298375,0.0143,-0.0264
150217724907357,21.686764,-0.0457875,-0.0845625,-0.0666875
150217734907890,21.696765,-0.064075,-0.061325,-0.095975
150217744908516,21.706765,-0.075075,0.0424875,-0.0776875
150217754909122,21.716766,-0.064075,0.1535875,-0.0226875
150217764909492,21.726766,-0.0396,0.203775,0.020075
150217774910338,21.736767,-0.01155,0.1450625,0.0408375
150217784910722,21.746767,0.01045,-2.75E-4,0.0237875
150217794911348,21.756768,0.015262499,-0.132275,-0.0275
150217804911963,21.766769,-0.0103124995,-0.1810875,-0.0482625
150217814912516,21.776769,-0.05555,-0.1115125,-0.014162499
150217824913145,21.786770,-0.080025,0.0070125,0.0286
150217834913747,21.796770,-0.0726,0.07425,0.095837496
150217844914123,21.806771,-0.0433125,0.0570625,0.141075
150217854914747,21.816771,-0.015262499,-0.0418,0.117837496
150217864915376,21.826772,6.875E-4,-0.1590875,0.0506
150217874915977,21.836773,-0.0017875,-0.2275625,-0.0067375
150217884916508,21.846773,-0.009075,-0.1590875,-0.0154
150217894917126,21.856774,-0.0213125,-0.038225,0.0518375
150217904917732,21.866774,-0.0055,0.06325,0.1263625
150217914918366,21.876775,0.0055,0.113299996,0.1948375
150217924918753,21.886775,0.0202125,0.0339625,0.202125
150217934919361,21.896776,0.029975,-0.087037496,0.13255
