time,seconds_elapsed,z,y,x
1788107815712774700,0.129774658203125,-0.35909900069236755,0.10587900131940842,-0.18743599951267242
1788107815722865400,0.139865478515625,-0.4486739933490753,0.07142200320959091,-0.11334799975156784
1788107815732963000,0.149963134765625,-0.5135440230369568,0.05175900086760521,-0.09231700003147125
1788107815743052000,0.160052001953125,-0.6366170048713684,-0.4042719900608063,0.1155410036444664
1788107815753136000,0.17013623046875,-0.9151290059089661,0.23651300370693207,0.004701999947428703
1788107815763231700,0.180231689453125,-0.7907379865646362,-0.08807799965143204,-0.09051000326871872
1788107815773326800,0.190326904296875,-0.8871570229530334,0.11071900278329849,-0.3143399953842163
1788107815783423700,0.200423828125,-0.7654020190238953,0.20511400699615479,-0.2049739956855774
1788107815793514200,0.21051416015625,-0.542153000831604,0.1013609990477562,-0.3842960000038147
1788107815803608800,0.22060888671875,-0.848908007144928,0.14190000295639038,-0.2300270050764084
1788107815813700600,0.23070068359375,-0.08324199914932251,1.057541012763977,-0.189177006483078
1788107815823795000,0.240794921875,-0.33319199085235596,0.1653980016708374,0.6344370245933533
1788107815843982800,0.26098291015625,-1.3053079843521118,-0.3866029977798462,1.321884036064148
1788107815864162300,0.281162353515625,-2.2137598991394043,0.03476500138640404,-0.3517509996891022
1788107815874259000,0.291259033203125,-2.1287760734558105,0.5573229789733887,-0.8675780296325684
1788107815884354000,0.30135400390625,-1.6502840518951416,1.4641449451446533,-1.1995500326156616
1788107815894445300,0.3114453125,-1.3531030416488647,0.18969400227069855,-0.7947360277175903
1788107815904541700,0.321541748046875,-0.7103520035743713,-0.3564000129699707,-0.6306859850883484
1788107815914634500,0.331634521484375,-0.13330399990081787,-0.5404120087623596,-1.5266319513320923
1788107815924722200,0.34172216796875,0.3565270006656647,0.011033999733626842,-1.1830329895019531
1788107815934820400,0.3518203125,0.3002510070800781,0.10824199765920639,-1.5666699409484863
1788107815944915200,0.361915283203125,1.7838549613952637,1.145082950592041,-0.4552299976348877
1788107815954998300,0.371998291015625,2.8552489280700684,1.2784940004348755,0.5810379981994629
1788107815965090800,0.3820908203125,3.372246026992798,0.13594399392604828,0.8917379975318909
1788107815975171600,0.392171630859375,4.023944854736328,-0.3624599874019623,1.1119379997253418
1788107815985267500,0.402267333984375,4.014647006988525,-0.5776110291481018,1.3704500198364258
1788107815995360300,0.4123603515625,3.236335039138794,-0.40790900588035583,1.1118470430374146
1788107816005448700,0.42244873046875,2.108160972595215,-0.15220099687576294,0.43462899327278137
1788107816015531500,0.432531494140625,1.529919981956482,0.07321000099182129,-0.29062700271606445
1788107816025625300,0.442625244140625,1.2310839891433716,0.1522890031337738,-0.7588580250740051
1788107816035716400,0.45271630859375,0.9273449778556824,0.014919999986886978,-0.9619709849357605
1788107816045811200,0.462811279296875,0.35057300329208374,0.096949003636837,-0.9522340297698975
1788107816055894300,0.472894287109375,-0.16079500317573547,-0.334320992231369,-0.6966019868850708
1788107816065992200,0.4829921875,-1.0519859790802002,-0.22288499772548676,-0.5959889888763428
1788107816076081200,0.4930810546875,-1.368366003036499,-0.2344519942998886,-0.11266999691724777
1788107816086173200,0.503173095703125,-1.1483830213546753,-0.3373749852180481,-0.03127099946141243
1788107816096263700,0.513263671875,-0.6489019989967346,-0.2898409962654114,0.06653600186109543
1788107816106357500,0.523357421875,-0.9449319839477539,-0.26968398690223694,-0.1586340069770813
1788107816116437800,0.533437744140625,-1.632370948791504,-0.281497985124588,0.2592580020427704
1788107816126537000,0.543536865234375,-2.865886926651001,-0.44297999143600464,0.39611199498176575
1788107816136622000,0.5536220703125,-2.940418004989624,0.029095999896526337,-0.389970988035202
1788107816146715100,0.563715087890625,-2.790466070175171,0.02386399917304516,-0.34579500555992126
1788107816156810500,0.573810546875,-2.2949419021606445,1.2716519832611084,-3.2655460834503174
1788107816166903000,0.583903076171875,-0.8807520270347595,2.1568570137023926,-4.348118782043457
1788107816176992800,0.59399267578125,0.39689400792121887,0.56597900390625,-1.824476957321167
1788107816187088100,0.604088134765625,0.4381360113620758,-0.3243269920349121,0.46155500411987305
1788107816197179100,0.61417919921875,-0.0643479973077774,-0.2927370071411133,1.1020569801330566
1788107816207269400,0.624269287109375,0.34881800413131714,-0.02707500010728836,1.0292810201644897
1788107816217361200,0.634361083984375,0.6908929944038391,0.05513300001621246,0.4966360032558441
1788107816227455700,0.644455810546875,0.5462599992752075,0.08983500301837921,-0.03517699986696243
1788107816237544200,0.654544189453125,0.25307801365852356,0.07433199882507324,-0.04432399943470955
1788107816247638500,0.664638427734375,0.21507300436496735,0.2397560030221939,-0.07686500251293182
1788107816257730000,0.67472998046875,-0.04636099934577942,0.13383500277996063,-0.12428800016641617
1788107816267825700,0.68482568359375,-0.08812599629163742,0.03396200016140938,-0.05933799967169762
1788107816277913600,0.69491357421875,0.19235700368881226,0.23544800281524658,0.08788800239562988
1788107816288009700,0.705009765625,-0.18951000273227692,0.35958701372146606,-0.03036700002849102
1788107816298090500,0.715090576171875,-0.7939280271530151,0.41603899002075195,-0.2221589982509613
1788107816308180500,0.725180419921875,-1.004480004310608,0.3715969920158386,-0.4020499885082245
1788107816318264300,0.735264404296875,-1.0333529710769653,0.2674260139465332,-0.709559977054596
1788107816328356000,0.745356201171875,-0.8318920135498047,0.2738949954509735,-0.7425490021705627
1788107816338446800,0.75544677734375,-0.8569120168685913,0.16502699255943298,-0.296656996011734
1788107816348540200,0.7655400390625,-1.004412055015564,0.1750440001487732,-0.16785000264644623
1788107816358629400,0.77562939453125,-0.6083329916000366,0.18026800453662872,-0.03321300074458122
1788107816368729300,0.785729248046875,-0.16777999699115753,0.04058400169014931,0.023781999945640564
1788107816378822100,0.795822265625,-0.07150600105524063,0.033918000757694244,0.02024500072002411
1788107816388913700,0.80591357421875,-0.053387001156806946,0.20655199885368347,-0.24432100355625153
1788107816399008500,0.816008544921875,0.14761599898338318,0.11699900031089783,-0.1556060016155243
1788107816409107000,0.82610693359375,0.3183329999446869,0.12949299812316895,-0.043161001056432724
1788107816419195100,0.836195068359375,0.06394600123167038,0.2676289975643158,0.11421599984169006
1788107816429288700,0.846288818359375,-0.1512340009212494,0.5231119990348816,0.13551299273967743
1788107816439378200,0.856378173828125,-1.02080500125885,-0.3418009877204895,0.9357669949531555
1788107816449469400,0.866469482421875,-0.9243429899215698,0.1656239926815033,0.23537500202655792
1788107816459555800,0.876555908203125,-0.07346600294113159,0.016071999445557594,-0.19062699377536774
1788107816469643300,0.886643310546875,0.31909099221229553,-0.2612000107765198,-0.2601659893989563
1788107816479725000,0.89672509765625,0.5929290056228638,-0.1864670068025589,-0.28484299778938293
1788107816489812500,0.9068125,0.6169019937515259,-0.1302649974822998,-0.3040420114994049
1788107816499897300,0.9168974609375,0.46930500864982605,-0.16655799746513367,-0.2554419934749603
1788107816509980700,0.926980712890625,0.3034200072288513,-0.04543200135231018,-0.39359399676322937
1788107816520065000,0.93706494140625,0.18313699960708618,-0.11640200018882751,-0.3387809991836548
1788107816530154200,0.947154296875,0.020351000130176544,-0.0973849967122078,-0.47018900513648987
1788107816540237000,0.957237060546875,-0.1036510020494461,0.028220999985933304,-0.592831015586853
1788107816550320400,0.9673203125,-0.18655100464820862,0.17971499264240265,-0.24217799305915833
1788107816560404000,0.977404052734375,-0.3299570083618164,0.21498100459575653,0.006428999826312065
1788107816570495000,0.987494873046875,-0.4377390146255493,0.2771250009536743,0.3506320118904114
1788107816580585700,0.997585693359375,-0.32125601172447205,0.1585409939289093,0.28502699732780457
1788107816590676500,1.007676513671875,-0.12117700278759003,0.17456699907779694,0.06736300140619278
1788107816600759300,1.01775927734375,-0.009428000077605247,0.12965500354766846,-0.15862399339675903
1788107816610850000,1.02785009765625,0.10334599763154984,0.168846994638443,-0.2530229985713959
1788107816620934700,1.0379345703125,0.0976409986615181,0.14075499773025513,-0.2747479975223541
1788107816631022800,1.04802294921875,-0.010862999595701694,0.06609699875116348,-0.32774800062179565
1788107816641104100,1.058104248046875,-0.15691199898719788,0.10182300209999084,-0.06134200096130371
1788107816651191300,1.06819140625,-0.22303199768066406,0.05447600036859512,-0.05889600142836571
1788107816661277000,1.07827685546875,-0.23090499639511108,-0.01813100092113018,-0.08738099783658981
1788107816671359500,1.088359375,-0.17317399382591248,0.04353699833154678,-0.12698300182819366
1788107816681446100,1.098446044921875,-0.14646700024604797,0.06056100130081177,-0.1728529930114746
1788107816691529000,1.108529052734375,-0.28629299998283386,0.024796999990940094,-0.17262199521064758
1788107816701607400,1.118607421875,-0.34140700101852417,0.09940200299024582,-0.2512269914150238
1788107816711689200,1.128689208984375,-0.41745901107788086,0.16022899746894836,-0.26065298914909363
1788107816721781800,1.13878173828125,-0.4203149974346161,0.14273099601268768,-0.23871800303459167
1788107816731863800,1.14886376953125,-0.32093000411987305,0.1297760009765625,-0.3500779867172241
1788107816741955800,1.158955810546875,-0.4161889851093292,0.4864020049571991,0.2343990057706833
1788107816752044800,1.169044921875,-1.5297369956970215,0.8135210275650024,1.4274040460586548
1788107816762130700,1.179130615234375,-1.522104024887085,0.5487800240516663,2.488842010498047
1788107816772224000,1.18922412109375,-1.3087929487228394,0.7974159717559814,1.105422019958496
1788107816782316300,1.19931640625,-0.9216700196266174,0.5884209871292114,0.4036270081996918
1788107816792404700,1.20940478515625,-0.383105993270874,0.3709770143032074,0.03640599921345711
1788107816802501400,1.21950146484375,-0.05308099836111069,0.3546850085258484,-0.3802720010280609
1788107816812592000,1.229592041015625,0.372516006231308,0.05445199832320213,-0.3115389943122864
1788107816822680300,1.239680419921875,0.6287059783935547,0.042190998792648315,-0.20586399734020233
1788107816832764200,1.24976416015625,0.5442720055580139,-0.01815599948167801,-0.16089800000190735
1788107816842859500,1.259859619140625,0.19548499584197998,-0.09566400200128555,0.0391869992017746
1788107816852948700,1.26994873046875,-0.0789090022444725,-0.10006300359964371,0.0661270022392273
1788107816863042800,1.280042724609375,-0.3824729919433594,-0.014146000146865845,-0.218983992934227
1788107816873130500,1.290130615234375,-0.49663200974464417,0.18509100377559662,-0.5802639722824097
1788107816883227000,1.300226806640625,-0.3673279881477356,0.2661370038986206,-0.8359320163726807
1788107816893324800,1.31032470703125,-0.26279398798942566,0.12834499776363373,-0.7451069951057434
1788107816903422700,1.320422607421875,0.05341000109910965,0.19246800243854523,-0.4483950138092041
1788107816913507600,1.330507568359375,0.043754998594522476,0.24643799662590027,-0.22712700068950653
1788107816923597600,1.34059765625,-0.37611401081085205,0.19899600744247437,-0.21886299550533295
1788107816933685500,1.350685546875,-0.5445050001144409,0.1577879935503006,-0.2029390037059784
1788107816943775700,1.360775634765625,-0.48619499802589417,0.07364699989557266,-0.17600199580192566
1788107816953868300,1.370868408203125,-0.15471899509429932,0.03487199917435646,0.013818999752402306
1788107816963967000,1.380967041015625,0.012214000336825848,0.004910000134259462,0.10777000337839127
1788107816974062600,1.3910625,0.2365729957818985,-0.0776979997754097,0.10844899713993073
1788107816984157200,1.4011572265625,0.34049201011657715,-0.04100500047206879,0.16418400406837463
1788107816994254800,1.4112548828125,0.035068999975919724,-0.0974930003285408,0.1245879977941513
1788107817004349000,1.421348876953125,-0.06451699882745743,-0.13759000599384308,0.203683003783226
1788107817014446800,1.43144677734375,-0.05570799857378006,-0.154462993144989,0.0993570014834404
1788107817024545300,1.441545166015625,0.001990000018849969,-0.16788099706172943,0.011222000233829021
1788107817034637600,1.451637451171875,0.050547998398542404,-0.10993000119924545,0.044241998344659805
1788107817044731000,1.46173095703125,-0.007714000064879656,-0.10560700297355652,0.16714000701904297
1788107817054819800,1.47181982421875,-0.2776170074939728,-0.12863899767398834,0.2597210109233856
1788107817064908800,1.48190869140625,-0.5089719891548157,-0.17826500535011292,0.36390599608421326
1788107817075003100,1.492003173828125,-0.6434779763221741,-0.1969819962978363,0.3345170021057129
1788107817085086200,1.502086181640625,-0.5366830229759216,-0.21521000564098358,0.15682299435138702
1788107817095174000,1.512173828125,-0.4460200071334839,-0.3080720007419586,0.00802600011229515
1788107817105267000,1.522266845703125,-0.46735700964927673,-0.298770010471344,-0.18103699386119843
1788107817115357700,1.532357666015625,-0.3812040090560913,-0.25385499000549316,-0.2717980146408081
1788107817125453000,1.542453125,-0.4530870020389557,-0.192112997174263,-0.28780999779701233
1788107817135541200,1.552541259765625,-0.5710020065307617,-0.09491799771785736,-0.31200098991394043
1788107817145628000,1.5626279296875,-0.7106620073318481,-0.07240600138902664,-0.307900995016098
1788107817155712300,1.572712158203125,-0.8083930015563965,-0.0924530029296875,-0.2671999931335449
1788107817165800200,1.58280029296875,-0.7984039783477783,0.026038000360131264,-0.31366100907325745
1788107817175883000,1.592883056640625,-0.7128589749336243,0.07055900245904922,-0.2199530005455017
1788107817185972500,1.602972412109375,-0.7401589751243591,0.19643999636173248,-0.22853800654411316
1788107817196055800,1.613055908203125,-0.785614013671875,0.22500300407409668,-0.11864200234413147
1788107817206137900,1.623137939453125,-0.7914459705352783,0.158719003200531,-0.06565900146961212
1788107817216212200,1.633212158203125,-0.5636659860610962,0.17137299478054047,-0.13367800414562225
1788107817226304800,1.6433046875,-0.2982819974422455,0.20970800518989563,-0.25595200061798096
1788107817236398000,1.653398193359375,-0.2415270060300827,0.25419101119041443,-0.5023660063743591
1788107817246487800,1.66348779296875,-0.101173996925354,0.27894100546836853,-0.4708099961280823
1788107817256566800,1.67356689453125,0.03542499989271164,0.2802709937095642,-0.3103809952735901
1788107817266656300,1.68365625,0.05367400124669075,0.34556499123573303,0.09392099827528
1788107817276739800,1.69373974609375,-0.07659599930047989,0.2812980115413666,0.4506079852581024
1788107817286827800,1.703827880859375,0.0900529995560646,0.3900820016860962,0.33645400404930115
1788107817296915700,1.713915771484375,0.23500600457191467,0.3543680012226105,0.05992000177502632
1788107817307006700,1.7240068359375,0.367125004529953,0.338468998670578,-0.2016730010509491
1788107817317093600,1.73409375,0.5205829739570618,0.3719469904899597,-0.18503700196743011
1788107817327180800,1.744180908203125,0.4732249975204468,0.41416001319885254,-0.1556670069694519
1788107817337270300,1.754270263671875,0.25459399819374084,0.5279139876365662,-0.2405499964952469
1788107817347359200,1.764359130859375,0.015445999801158905,0.5960040092468262,-0.3116529881954193
1788107817357437200,1.774437255859375,-0.17405200004577637,0.6249589920043945,-0.20739899575710297
1788107817367524000,1.784524169921875,-0.2759590148925781,0.611395001411438,-0.08171900361776352
1788107817377606400,1.7946064453125,-0.2386309951543808,0.5771219730377197,0.03369000181555748
1788107817387699000,1.804698974609375,0.006947000045329332,0.6870740056037903,-0.010115000419318676
1788107817397782800,1.81478271484375,-0.005524999927729368,0.7132310271263123,-0.15528100728988647
1788107817407874300,1.824874267578125,-0.10279999673366547,0.681859016418457,-0.16989199817180634
1788107817417961700,1.834961669921875,-0.24295400083065033,0.6725220084190369,-0.15540899336338043
1788107817428051200,1.84505126953125,-0.4128980040550232,0.6491889953613281,-0.2759209871292114
1788107817438136000,1.855135986328125,-0.271109014749527,0.6765289902687073,-0.35349100828170776
1788107817448227600,1.8652275390625,-0.22732099890708923,0.6289669871330261,-0.45871201157569885
1788107817458315300,1.875315185546875,-0.23333099484443665,0.5272030234336853,-0.45204800367355347
1788107817468401000,1.88540087890625,-0.09460300207138062,0.420958012342453,-0.33727800846099854
1788107817478495700,1.895495849609375,0.05717499926686287,0.4817819893360138,-0.25724801421165466
1788107817488584200,1.905584228515625,0.09520799666643143,0.5172719955444336,-0.2519730031490326
1788107817498662400,1.915662353515625,-0.003495000069960952,0.43897199630737305,-0.3695429861545563
1788107817508755700,1.925755615234375,-0.07533299922943115,0.41389599442481995,-0.5098649859428406
1788107817518836500,1.93583642578125,-0.028828000649809837,0.370261013507843,-0.5793409943580627
1788107817528924200,1.945924072265625,-0.06047999858856201,0.3461570143699646,-0.6486340165138245
1788107817539014000,1.956013916015625,-0.10581500083208084,0.396928995847702,-0.7644450068473816
1788107817549098000,1.966097900390625,-0.1968580037355423,0.39450401067733765,-0.6934329867362976
1788107817559193300,1.976193359375,-0.4348509907722473,0.3298709988594055,-0.5751720070838928
1788107817569283600,1.98628369140625,-0.4350059926509857,0.3353300094604492,-0.6180599927902222
1788107817579355100,1.996355224609375,-0.20711100101470947,0.39421701431274414,-0.6510699987411499
1788107817589440500,2.0064404296875,-0.09308800101280212,0.3790929913520813,-0.6559609770774841
1788107817599520500,2.0165205078125,0.054065000265836716,0.4112600088119507,-0.6433910131454468
1788107817609606700,2.026606689453125,0.19487999379634857,0.3570860028266907,-0.6833530068397522
1788107817619695600,2.036695556640625,0.2509140074253082,0.41721999645233154,-0.7847650051116943
1788107817629787600,2.04678759765625,0.22770600020885468,0.5308070182800293,-0.9047589898109436
1788107817639865300,2.056865234375,0.013918999582529068,0.45336300134658813,-0.8360530138015747
1788107817649956600,2.06695654296875,-0.09262999892234802,0.4683080017566681,-0.7764449715614319
1788107817660038000,2.077037841796875,-0.18750299513339996,0.5254769921302795,-0.6956009864807129
1788107817670126800,2.087126953125,-0.16502800583839417,0.45725199580192566,-0.6876639723777771
1788107817680211200,2.097211181640625,-0.02033100090920925,0.47621598839759827,-0.7093560099601746
1788107817690304000,2.107303955078125,0.15623599290847778,0.45482999086380005,-0.7216759920120239
1788107817700404500,2.117404541015625,0.19601799547672272,0.37969499826431274,-0.6384549736976624
1788107817710496800,2.127496826171875,0.14990900456905365,0.478969007730484,-0.6774669885635376
1788107817720577300,2.137577392578125,-0.043939001858234406,0.4654810130596161,-0.6647710204124451
1788107817730667500,2.14766748046875,-0.3983669877052307,0.4986709952354431,-0.7212759852409363
1788107817740752100,2.157752197265625,-0.5856490135192871,0.5046809911727905,-0.630478024482727
1788107817750837200,2.167837158203125,-0.7235260009765625,0.4658859968185425,-0.42633000016212463
1788107817760920000,2.177920166015625,-0.7013360261917114,0.43806400895118713,-0.45287400484085083
1788107817771008500,2.188008544921875,-0.574737012386322,0.527999997138977,-0.4730120003223419
1788107817781101300,2.198101318359375,-0.5854229927062988,0.43071499466896057,-0.35989901423454285
1788107817791195600,2.208195556640625,-0.6060979962348938,0.3498849868774414,-0.3663310110569
1788107817801283000,2.218282958984375,-0.5846419930458069,0.40225300192832947,-0.38810399174690247
1788107817811373000,2.228373046875,-0.7262240052223206,0.394430011510849,-0.2690809965133667
1788107817831540500,2.24854052734375,-1.186498999595642,0.3977839946746826,-0.239546999335289
1788107817841623300,2.258623291015625,-1.0551600456237793,0.3541550040245056,-0.4108940064907074
1788107817851708400,2.26870849609375,-0.8305910229682922,0.37716901302337646,-0.6144099831581116
1788107817861801200,2.27880126953125,-0.704675018787384,0.4067409932613373,-0.7344239950180054
1788107817871889200,2.28888916015625,-0.7377210259437561,0.30027198791503906,-0.6776289939880371
1788107817881983200,2.298983154296875,-0.6923589706420898,0.2981700003147125,-0.5518069863319397
1788107817892065500,2.3090654296875,-0.6035509705543518,0.3542090058326721,-0.4844909906387329
1788107817902156000,2.319156005859375,-0.5378100275993347,0.3288559913635254,-0.49867698550224304
1788107817912245000,2.329244873046875,-0.5876870155334473,0.29100900888442993,-0.6699399948120117
1788107817932424000,2.349423828125,-0.7139989733695984,0.30831199884414673,-0.7927089929580688
1788107817942517000,2.35951708984375,-0.7909529805183411,0.32102900743484497,-0.75348299741745
1788107817952640000,2.369639892578125,-0.7842569947242737,0.3187530040740967,-0.6687049865722656
1788107817962730800,2.379730712890625,-0.7016140222549438,0.3016040027141571,-0.641211986541748
1788107817972815400,2.3898154296875,-0.6711210012435913,0.3737429976463318,-0.7864270210266113
1788107817982907100,2.3999072265625,-0.7028819918632507,0.36802801489830017,-0.8189120292663574
1788107817992991700,2.40999169921875,-0.7126489877700806,0.4472779929637909,-0.8070350289344788
1788107818003083500,2.42008349609375,-0.6535120010375977,0.4544309973716736,-0.646930992603302
1788107818013167900,2.43016796875,-0.7680500149726868,0.4886919856071472,-0.5163300037384033
1788107818023259100,2.440259033203125,-0.7980359792709351,0.5449830293655396,-0.628055989742279
1788107818033340200,2.450340087890625,-0.7472580075263977,0.5319229960441589,-0.6254969835281372
1788107818043423000,2.460423095703125,-0.6792719960212708,0.47920098900794983,-0.6794379949569702
1788107818053509600,2.470509521484375,-0.49333399534225464,0.5449060201644897,-0.5809260010719299
1788107818063600600,2.4806005859375,-0.3170180022716522,0.6021620035171509,-0.5492519736289978
1788107818073688000,2.49068798828125,-0.1827239990234375,0.5712180137634277,-0.4766559898853302
1788107818083779000,2.500779052734375,-0.09785900264978409,0.5810030102729797,-0.3994869887828827
1788107818093867800,2.51086767578125,-0.042073000222444534,0.6209040284156799,-0.36435800790786743
1788107818103959600,2.52095947265625,-0.06640800088644028,0.5790809988975525,-0.2706240117549896
1788107818114046200,2.531046142578125,-0.09785699844360352,0.5693939924240112,-0.23235000669956207
1788107818124141000,2.54114111328125,-0.096001997590065,0.5293970108032227,-0.30830898880958557
1788107818134227200,2.551227294921875,-0.06808099895715714,0.5434269905090332,-0.4467040002346039
1788107818144319500,2.561319580078125,0.006814999971538782,0.5232849717140198,-0.5418319702148438
1788107818154407700,2.57140771484375,0.0345430001616478,0.5015529990196228,-0.5143259763717651
1788107818164520000,2.58152001953125,0.08848199993371964,0.38572001457214355,-0.31821998953819275
1788107818174605800,2.591605712890625,0.2151069939136505,0.28391000628471375,-0.1542769968509674
1788107818184694300,2.6016943359375,0.4914439916610718,0.3663119971752167,-0.15143300592899323
1788107818194783700,2.61178369140625,0.5789539813995361,0.323529988527298,-0.15448099374771118
1788107818204872700,2.621872802734375,0.6528739929199219,0.3242050111293793,-0.17233499884605408
1788107818214965800,2.6319658203125,0.5328199863433838,0.3268199861049652,-0.28053900599479675
1788107818225054500,2.642054443359375,0.22063300013542175,0.19111600518226624,-0.2996309995651245
1788107818235144700,2.652144775390625,0.14376600086688995,0.15867500007152557,-0.2829799950122833
1788107818245237200,2.6622373046875,0.33124101161956787,0.19183699786663055,-0.17861899733543396
1788107818255322400,2.672322265625,0.5382599830627441,0.14763900637626648,-0.1557690054178238
1788107818265406000,2.682406005859375,0.746408998966217,0.22551800310611725,-0.24329900741577148
1788107818275489800,2.69248974609375,0.7736709713935852,0.37806200981140137,-0.45878300070762634
1788107818285571800,2.70257177734375,0.49823999404907227,0.3111349940299988,-0.5833050012588501
1788107818295657200,2.7126572265625,0.31372299790382385,0.31431499123573303,-0.5592380166053772
1788107818305738800,2.72273876953125,0.29071900248527527,0.40620601177215576,-0.5141699910163879
1788107818315824600,2.73282470703125,0.1625860035419464,0.4246619939804077,-0.34667399525642395
1788107818325903600,2.742903564453125,0.05567200109362602,0.44188499450683594,-0.286404013633728
1788107818335989000,2.752989013671875,0.07399299740791321,0.6337040066719055,-0.3901369869709015
1788107818346070500,2.763070556640625,0.01308399997651577,0.6711210012435913,-0.44949600100517273
1788107818356159000,2.773158935546875,-0.18323099613189697,0.6419600248336792,-0.41922399401664734
1788107818366248000,2.783248046875,-0.34417998790740967,0.6556180119514465,-0.38183099031448364
1788107818376340200,2.79334033203125,-0.4128049910068512,0.7316619753837585,-0.4132719933986664
1788107818386421200,2.803421142578125,-0.3141689896583557,0.7616599798202515,-0.2990649938583374
1788107818396498700,2.813498779296875,-0.3447889983654022,0.7210639715194702,-0.20973800122737885
1788107818406579200,2.8235791015625,-0.4923189878463745,0.7509959936141968,-0.17031699419021606
1788107818416664300,2.833664306640625,-0.5796719789505005,0.6526769995689392,-0.11545299738645554
1788107818426749000,2.8437490234375,-0.8200089931488037,0.4510059952735901,0.06303299963474274
1788107818436859600,2.853859619140625,-0.8380839824676514,0.4110740125179291,0.15281499922275543
1788107818446941400,2.86394140625,-0.7177379727363586,0.47366100549697876,-0.1721850037574768
1788107818457027800,2.87402783203125,-0.6129800081253052,0.2133370041847229,-0.3795129954814911
1788107818467106600,2.8841064453125,-0.4118979871273041,0.014270000159740448,-0.5077260136604309
1788107818477188600,2.894188720703125,-0.13694900274276733,0.026812000200152397,-0.5683000087738037
1788107818487271400,2.904271484375,-0.0763780027627945,0.08549399673938751,-0.5774499773979187
1788107818497362200,2.914362060546875,-0.2355870008468628,0.09868200123310089,-0.6198880076408386
1788107818507447600,2.924447509765625,-0.604498028755188,-0.04979399964213371,-0.6020770072937012
1788107818517531000,2.93453076171875,-1.0563969612121582,-0.17379899322986603,-0.642320990562439
1788107818527606300,2.944606201171875,-1.1411030292510986,-0.06681899726390839,-0.931132972240448
1788107818537694200,2.954694091796875,-0.9497630000114441,0.07419899851083755,-1.043573021888733
1788107818547775700,2.964775634765625,-0.8134589791297913,0.0903559997677803,-1.1557869911193848
1788107818557867800,2.97486767578125,-0.7161120176315308,0.13193899393081665,-1.2960909605026245
1788107818567955700,2.984955810546875,-0.6523249745368958,0.21136899292469025,-1.3208539485931396
1788107818578045200,2.995045166015625,-0.7744870185852051,0.1932390034198761,-1.084015965461731
1788107818588129500,3.005129638671875,-1.0121699571609497,0.1898369938135147,-0.7379670143127441
1788107818598218800,3.01521875,-0.8394140005111694,-0.3283199965953827,-0.15643300116062164
1788107818608300800,3.02530078125,-0.3936010003089905,0.26296699047088623,-0.09186100214719772
1788107818618386000,3.035385986328125,-0.036688998341560364,1.987231969833374,-1.6693840026855469
1788107818628467500,3.045467529296875,-0.5845069885253906,1.0470919609069824,-1.8644089698791504
1788107818638556400,3.055556396484375,-0.6718739867210388,-0.1483130007982254,-0.6260089874267578
1788107818648673500,3.065673583984375,-0.34943899512290955,0.8275439739227295,-0.46983399987220764
1788107818658761500,3.075761474609375,-0.4274680018424988,0.8211809992790222,-0.18757100403308868
1788107818668840400,3.08584033203125,-0.7921810150146484,0.5641499757766724,-0.28064998984336853
1788107818678937000,3.09593701171875,-0.6909409761428833,0.43739500641822815,-0.4058150053024292
1788107818689019100,3.10601904296875,-0.6095219850540161,0.4995169937610626,-0.6085929870605469
1788107818699105500,3.11610546875,-0.6545850038528442,0.4760029911994934,-0.8728740215301514
1788107818709187800,3.126187744140625,-0.7964329719543457,0.4121749997138977,-1.1245479583740234
1788107818719278300,3.1362783203125,-1.0175950527191162,0.3090350031852722,-1.2563899755477905
1788107818729363200,3.14636328125,-1.1627249717712402,0.38049399852752686,-1.4531170129776
1788107818739459300,3.156459228515625,-1.3049039840698242,0.5437890291213989,-1.6207929849624634
1788107818749546200,3.166546142578125,-1.3313039541244507,0.5363399982452393,-1.540578007698059
1788107818759632600,3.176632568359375,-1.282034993171692,0.4932979941368103,-1.302351951599121
1788107818769717200,3.18671728515625,-1.109740972518921,0.5349569916725159,-0.9950879812240601
1788107818779805000,3.196804931640625,-0.9588630199432373,0.6731110215187073,-0.9095330238342285
1788107818789887700,3.2068876953125,-0.7977190017700195,0.5538430213928223,-0.7293930053710938
1788107818799977200,3.216977294921875,-0.7539910078048706,0.46666601300239563,-0.6287919878959656
1788107818810062600,3.2270625,-0.6264569759368896,0.5795919895172119,-0.6642450094223022
1788107818820153300,3.2371533203125,-0.5954470038414001,0.7396590113639832,-0.6375529766082764
1788107818830237200,3.2472373046875,-0.7316200137138367,0.8078889846801758,-0.7014369964599609
1788107818840326000,3.257325927734375,-0.7564640045166016,0.9573659896850586,0.6429359912872314
1788107818850407700,3.26740771484375,-1.373311996459961,1.436089038848877,1.1253490447998047
1788107818860500700,3.277500732421875,-1.053665041923523,1.680906057357788,1.7642890214920044
1788107818870583000,3.2875830078125,-1.3932490348815918,1.8943079710006714,1.5857340097427368
1788107818880668400,3.29766845703125,-0.7812049984931946,1.3962680101394653,0.7685589790344238
1788107818890767600,3.307767578125,-0.3308570086956024,1.317605972290039,-0.04645700007677078
1788107818900857600,3.317857666015625,0.19137899577617645,0.9929829835891724,-0.1780710071325302
1788107818910955800,3.327955810546875,0.5887290239334106,0.5140249729156494,-0.4506799876689911
1788107818921048300,3.33804833984375,0.9050009846687317,0.18857300281524658,-0.7104949951171875
1788107818931125000,3.348125,1.123626947402954,-0.11898200213909149,-0.9941710233688354
1788107818941214000,3.3582138671875,1.2772810459136963,-0.3306970000267029,-1.2513699531555176
1788107818951302000,3.368302001953125,0.9762009978294373,-0.5429350137710571,-1.301764965057373
1788107818961395500,3.3783955078125,0.40628600120544434,-0.6467390060424805,-1.2514959573745728
1788107818971484400,3.388484375,-0.2851710021495819,-0.5078570246696472,-0.9846109747886658
1788107818981570800,3.39857080078125,-0.7562459707260132,-0.4782019853591919,-0.612392008304596
1788107818991652000,3.408652099609375,-1.075618028640747,-0.5102699995040894,-0.4232029914855957
1788107819001741000,3.418740966796875,-1.181758999824524,-0.25710800290107727,-0.4396960139274597
1788107819011829200,3.428829345703125,-1.2973309755325317,-0.0957150012254715,-0.4584139883518219
1788107819021917200,3.438917236328125,-1.5059239864349365,-0.06507299840450287,-0.5042629837989807
1788107819032004900,3.4490048828125,-1.6631920337677002,-0.09031900018453598,-0.4542829990386963
1788107819042093000,3.459093017578125,-1.672428011894226,-0.0947280004620552,-0.3370620012283325
1788107819062272800,3.479272705078125,-1.467797040939331,0.020414000377058983,-0.34391000866889954
1788107819072367600,3.48936767578125,-1.2493259906768799,-0.14457100629806519,-0.36037200689315796
1788107819082464800,3.49946484375,-0.9630150198936462,-0.17555800080299377,-0.30686599016189575
1788107819092557300,3.509557373046875,-0.7661219835281372,-0.10319799929857254,-0.3713180124759674
1788107819102645200,3.519645263671875,-0.7026110291481018,-0.08750399947166443,-0.34709298610687256
1788107819112731400,3.5297314453125,-0.6573500037193298,-0.09415899962186813,-0.22319500148296356
1788107819122818800,3.53981884765625,-0.5850870013237,0.05748400092124939,-0.08200299739837646
1788107819132908300,3.549908203125,-0.59682697057724,0.1902260035276413,0.005055000074207783
1788107819142987800,3.55998779296875,-0.7199699878692627,0.267657995223999,0.12358099967241287
1788107819153082000,3.57008203125,-0.529246985912323,0.4188239872455597,0.1378609985113144
1788107819163156700,3.58015673828125,-0.2116290032863617,0.656620979309082,0.17490500211715698
1788107819173245700,3.59024560546875,0.023509999737143517,0.7923780083656311,0.20102399587631226
1788107819183330600,3.60033056640625,0.22617800533771515,0.8006799817085266,0.25414198637008667
1788107819193419000,3.6104189453125,0.4076949954032898,0.86558997631073,0.1869480013847351
1788107819203504600,3.620504638671875,0.4670430123806,0.897292971611023,0.11039599776268005
1788107819213589000,3.630589111328125,0.3763830065727234,0.8605989813804626,0.03890199959278107
1788107819223675000,3.6406748046875,0.5174139738082886,0.8271089792251587,0.07291799783706665
1788107819233759700,3.650759765625,0.7503089904785156,0.6826260089874268,0.1612910032272339
1788107819243845400,3.660845458984375,1.0650850534439087,0.5011029839515686,0.26080000400543213
1788107819253935600,3.670935546875,1.3853689432144165,0.4578689932823181,0.2269279956817627
1788107819264021200,3.681021240234375,1.412019968032837,0.3925890028476715,0.17237499356269836
1788107819274111200,3.691111328125,1.4761669635772705,0.2565929889678955,0.19265000522136688
1788107819284186400,3.701186279296875,1.4091459512710571,0.2372259944677353,0.28821900486946106
1788107819294281500,3.711281494140625,1.062445044517517,0.22252300381660461,0.3639979958534241
1788107819304367600,3.72136767578125,0.7120810151100159,0.19009700417518616,0.42691901326179504
1788107819314453000,3.731452880859375,0.3407059907913208,0.17638200521469116,0.47297000885009766
1788107819324532000,3.741531982421875,-0.07346600294113159,0.22563700377941132,0.44582900404930115
1788107819334619100,3.751619140625,-0.31099799275398254,0.2010120004415512,0.3812040090560913
1788107819344704800,3.761704833984375,-0.5724999904632568,0.20032499730587006,0.343625009059906
1788107819354794800,3.771794677734375,-0.7474949955940247,0.2111629992723465,0.2897320091724396
1788107819364878600,3.781878662109375,-0.7434620261192322,0.10635200142860413,0.283255010843277
1788107819374968000,3.791968017578125,-0.6413379907608032,-0.007654000073671341,0.41359201073646545
1788107819385053700,3.8020537109375,-0.4770509898662567,-0.07612500339746475,0.431549996137619
1788107819395138300,3.81213818359375,-0.3791620135307312,-0.197270005941391,0.44758498668670654
1788107819405234000,3.82223388671875,-0.27564001083374023,-0.20549100637435913,0.4133009910583496
1788107819415317800,3.83231787109375,-0.27729400992393494,-0.11081899702548981,0.2552030086517334
1788107819425396700,3.842396728515625,-0.3618740141391754,-0.12998899817466736,0.10127300024032593
1788107819435482400,3.852482421875,-0.5002890229225159,-0.1484380066394806,0.017091000452637672
1788107819445567700,3.862567626953125,-0.5268710255622864,-0.12179899960756302,-0.09125100076198578
1788107819455654000,3.87265380859375,-0.5245389938354492,-0.1816360056400299,-0.018275000154972076
1788107819465735400,3.8827353515625,-0.10294800251722336,-0.3174090087413788,0.11156799644231796
1788107819475817700,3.892817626953125,-0.02485699951648712,-0.11590500175952911,0.033587999641895294
1788107819485904100,3.902904052734375,-0.2944220006465912,-0.09446799755096436,0.14725300669670105
1788107819495991600,3.912991455078125,-0.48712098598480225,-0.07116899639368057,0.19098900258541107
1788107819506063600,3.923063720703125,-0.6115930080413818,-0.13225999474525452,0.33978599309921265
1788107819516153600,3.933153564453125,-0.5269860029220581,-0.06970600038766861,0.35716500878334045
1788107819526248000,3.943248046875,-0.2400590032339096,0.010507999919354916,0.24004299938678741
1788107819536336000,3.9533359375,-0.06700800359249115,0.20610199868679047,-0.0812230035662651
1788107819546421800,3.963421875,-0.15751899778842926,0.14967499673366547,-0.2304760068655014
1788107819556506000,3.973506103515625,-0.28360500931739807,0.19299200177192688,-0.25912201404571533
1788107819566590200,3.983590087890625,-0.3489469885826111,0.30913999676704407,-0.27549299597740173
1788107819576679000,3.993678955078125,-0.3674989938735962,0.32296499609947205,-0.18956899642944336
1788107819586760200,4.00376025390625,-0.23398399353027344,0.2774229943752289,-0.015236999839544296
1788107819596852200,4.013852294921875,-0.02276800014078617,0.29514798521995544,0.17549900710582733
1788107819606933500,4.02393359375,0.09589999914169312,0.3123230040073395,0.31598100066185
1788107819617023200,4.034023193359375,0.11431100219488144,0.34805598855018616,0.33130499720573425
1788107819627103000,4.04410302734375,0.048833999782800674,0.46724799275398254,0.24158799648284912
1788107819637188900,4.05418896484375,-0.0283649992197752,0.5896779894828796,0.09190099686384201
1788107819647270400,4.0642705078125,-0.19273599982261658,0.659267008304596,-0.007422999944537878
1788107819657360000,4.07435986328125,-0.33193299174308777,0.7338150143623352,-0.10428500175476074
1788107819667439600,4.084439697265625,-0.35899800062179565,0.8390160202980042,-0.18872599303722382
1788107819677518300,4.094518310546875,-0.2820909917354584,0.9348000288009644,-0.3113720118999481
1788107819687598000,4.10459814453125,-0.2791939973831177,0.9030299782752991,-0.4348759949207306
1788107819697689300,4.114689453125,-0.24749800562858582,0.8296459913253784,-0.27164599299430847
1788107819707769600,4.12476953125,-0.03840399906039238,0.7310590147972107,0.05045099928975105
1788107819717859800,4.13485986328125,0.2777769863605499,0.753587007522583,0.14664800465106964
1788107819727946800,4.14494677734375,0.5180330276489258,0.8230119943618774,0.00042799999937415123
1788107819738032400,4.155032470703125,0.39330199360847473,0.7937160134315491,-0.23251299560070038
1788107819748119800,4.165119873046875,0.12509000301361084,0.7148020267486572,-0.3807910084724426
1788107819758206700,4.175206787109375,-0.1301169991493225,0.7031729817390442,-0.3871319890022278
1788107819768285400,4.185285400390625,-0.22159400582313538,0.6059880256652832,-0.2724280059337616
1788107819778377200,4.195377197265625,-0.08829700201749802,0.6563130021095276,-0.1703609973192215
1788107819788468000,4.205468017578125,0.1502619981765747,0.6333889961242676,-0.0370279997587204
1788107819798558700,4.215558837890625,0.26322001218795776,0.5505959987640381,0.06218799948692322
1788107819808643000,4.22564306640625,0.13965299725532532,0.5487499833106995,0.06496699899435043
1788107819818736600,4.235736572265625,0.038979001343250275,0.5109000205993652,0.08769699931144714
1788107819828825600,4.24582568359375,-0.15129299461841583,0.5102750062942505,0.08470000326633453
1788107819838921700,4.255921630859375,-0.32826998829841614,0.519091010093689,0.009433000348508358
1788107819849001700,4.266001708984375,-0.49327999353408813,0.40258198976516724,-0.019548999145627022
1788107819859094800,4.2760947265625,-0.5380489826202393,0.21586699783802032,0.01931600086390972
1788107819869174000,4.286174072265625,-0.413331001996994,0.03317499905824661,0.024939000606536865
1788107819879262500,4.296262451171875,-0.07377699762582779,0.015793999657034874,0.08201300352811813
1788107819889341200,4.306341064453125,0.13899800181388855,-0.014488999731838703,0.07516100257635117
1788107819899417600,4.31641748046875,0.03997600078582764,-0.16901299357414246,0.15832200646400452
1788107819909495800,4.326495849609375,-0.0827770009636879,-0.1839810013771057,0.1691969931125641
1788107819919581700,4.336581787109375,-0.32152000069618225,-0.14611199498176575,0.027867000550031662
1788107819929658400,4.346658447265625,-0.6466619968414307,-0.17286500334739685,-0.11811699718236923
1788107819939751200,4.356751220703125,-0.8918280005455017,-0.22055499255657196,-0.2557069957256317
1788107819949837600,4.366837646484375,-1.0055530071258545,-0.2932400107383728,-0.3008610010147095
1788107819959931400,4.376931396484375,-0.9880629777908325,-0.28708699345588684,-0.2375909984111786
1788107819970009900,4.387009765625,-0.9448580145835876,-0.2075600028038025,-0.19350199401378632
1788107819980106200,4.397106201171875,-0.8790460228919983,-0.04150800034403801,-0.22033900022506714
1788107819990187800,4.407187744140625,-0.9858940243721008,0.03015200048685074,-0.22436100244522095
1788107820000275700,4.417275634765625,-1.183230996131897,-0.013968000188469887,-0.21339499950408936
1788107820010354700,4.427354736328125,-1.2203199863433838,-0.010673999786376953,-0.14072999358177185
1788107820020438500,4.4374384765625,-1.0628650188446045,0.02290399931371212,-0.036625999957323074
1788107820030521900,4.44752197265625,-0.7615489959716797,0.0360880009829998,0.07964400202035904
1788107820040612400,4.4576123046875,-0.5573509931564331,0.021703999489545822,0.20028500258922577
1788107820050694000,4.46769384765625,-0.373522013425827,0.09284599870443344,0.17793899774551392
1788107820060782000,4.477781982421875,-0.3121599853038788,0.15204699337482452,0.05527300015091896
1788107820070857000,4.48785693359375,-0.35718899965286255,0.2083439975976944,-0.020711999386548996
1788107820080946200,4.4979462890625,-0.353424996137619,0.23005899786949158,-0.0284269992262125
1788107820091036000,4.508035888671875,-0.2099130004644394,0.395238995552063,-0.06011800095438957
1788107820101125400,4.51812548828125,-0.13856999576091766,0.30446699261665344,0.004879999905824661
1788107820111215000,4.528215087890625,-0.027211999520659447,0.17866399884223938,0.1305759996175766
1788107820121304000,4.538303955078125,0.02271600067615509,0.2907710075378418,0.11377599835395813
1788107820131391700,4.548391845703125,-0.06206899881362915,0.3697989881038666,0.05810200050473213
1788107820141477600,4.5584775390625,-0.20362800359725952,0.4926620125770569,0.01082799956202507
1788107820151564000,4.56856396484375,-0.43907299637794495,0.6091200113296509,-0.07026299834251404
1788107820161646600,4.578646484375,-0.6096510291099548,0.7149249911308289,-0.22453700006008148
1788107820171731000,4.58873095703125,-0.8254780173301697,0.6467540264129639,-0.33887800574302673
1788107820181815800,4.59881591796875,-0.9360560178756714,0.5806519985198975,-0.30742400884628296
1788107820191906600,4.608906494140625,-0.9022039771080017,0.6416419744491577,-0.4511910080909729
1788107820202001000,4.6190009765625,-0.8239049911499023,0.5885670185089111,-0.589040994644165
1788107820212091100,4.629091064453125,-0.8620110154151917,0.45675399899482727,-0.578249990940094
1788107820222169900,4.639169921875,-0.6889500021934509,0.2620280086994171,-0.33772000670433044
1788107820232263700,4.649263671875,-0.4031740128993988,0.16352400183677673,-0.16137200593948364
1788107820242347800,4.65934765625,-0.25735801458358765,0.12342800199985504,-0.0734729990363121
1788107820252436000,4.66943603515625,-0.17289799451828003,0.12819300591945648,-0.07852300256490707
1788107820262518800,4.679518798828125,-0.2287829965353012,0.1654919981956482,-0.05865500122308731
1788107820272610800,4.68961083984375,-0.3695249855518341,0.15663500130176544,-0.030160000547766685
1788107820282694700,4.699694580078125,-0.4787220060825348,0.09266900271177292,0.07981900125741959
1788107820292783400,4.709783447265625,-0.261898010969162,0.05088699981570244,0.26862800121307373
1788107820302872800,4.719872802734375,0.09091900289058685,0.07951200008392334,0.4408870041370392
1788107820312962800,4.729962890625,0.3708209991455078,0.07804200053215027,0.6025559902191162
1788107820323051500,4.740051513671875,0.5076850056648254,0.14303700625896454,0.6727399826049805
1788107820333141500,4.7501416015625,0.5493950247764587,0.26149100065231323,0.6043800115585327
1788107820343229200,4.760229248046875,0.3573969900608063,0.44076400995254517,0.48493900895118713
1788107820353320200,4.7703203125,0.058368001133203506,0.5211589932441711,0.3858430087566376
1788107820363408400,4.780408447265625,-0.10748899728059769,0.5542749762535095,0.4988020062446594
1788107820373492700,4.79049267578125,-0.12783600389957428,0.4813069999217987,0.708296000957489
1788107820383580700,4.80058056640625,0.12525199353694916,0.57989102602005,0.7977740168571472
1788107820393662000,4.810661865234375,0.26553401350975037,0.753017008304596,0.6065530180931091
1788107820403751400,4.82075146484375,0.07000900059938431,0.6676669716835022,0.4148600101470947
1788107820413837600,4.830837646484375,-0.16174499690532684,0.7364140152931213,0.2287209928035736
1788107820423921700,4.840921630859375,-0.26373299956321716,0.7561389803886414,0.10337299853563309
1788107820434003700,4.851003662109375,-0.25719499588012695,0.6186460256576538,0.14662499725818634
1788107820444092400,4.861092529296875,-0.014938999898731709,0.4701859951019287,0.27672699093818665
1788107820454176000,4.871176025390625,0.34991899132728577,0.34794700145721436,0.41935598850250244
1788107820464264400,4.881264404296875,0.6259689927101135,0.4312790036201477,0.3336710035800934
1788107820474352000,4.89135205078125,0.5811700224876404,0.43227800726890564,0.17211200296878815
1788107820484440600,4.901440673828125,0.3606860041618347,0.29277899861335754,0.06606700271368027
1788107820494532400,4.911532470703125,0.27117300033569336,0.1224220022559166,0.05010100081562996
1788107820504612400,4.9216123046875,0.2400989979505539,-0.06043900176882744,0.18837100267410278
1788107820514703400,4.931703369140625,0.2118699997663498,-0.12004300206899643,0.25557398796081543
1788107820524786200,4.9417861328125,0.2726840078830719,-0.19397500157356262,0.1709669977426529
1788107820534872600,4.95187255859375,0.25318801403045654,-0.38230401277542114,0.1194629967212677
1788107820544961300,4.961961181640625,0.3699600100517273,-0.5649030208587646,0.23827999830245972
1788107820555052300,4.97205224609375,0.48675599694252014,-0.7080889940261841,0.48148998618125916
1788107820565140200,4.98214013671875,0.4415090084075928,-0.8489559888839722,0.6235340237617493
1788107820575232500,4.992232421875,0.4891110062599182,-0.9690110087394714,0.8265510201454163
1788107820585317400,5.0023173828125,0.405580997467041,-1.0936260223388672,0.9516860246658325
1788107820595411700,5.01241162109375,0.43419399857521057,-1.1234630346298218,0.992222011089325
1788107820605496000,5.02249609375,0.3615019917488098,-1.0298949480056763,0.9567739963531494
1788107820615589000,5.032589111328125,0.0488939993083477,-1.0683280229568481,1.0036879777908325
1788107820625681000,5.042680908203125,-0.26372501254081726,-1.014652967453003,1.0588339567184448
1788107820635771600,5.052771728515625,-0.5816709995269775,-1.0464589595794678,1.248878002166748
1788107820645857300,5.062857177734375,-0.6677049994468689,-1.0475950241088867,1.2415109872817993
1788107820655942700,5.072942626953125,-0.6177949905395508,-1.074139952659607,1.2909389734268188
1788107820666027300,5.08302734375,-0.5545529723167419,-1.100303053855896,1.3953289985656738
1788107820676112400,5.0931123046875,-0.33041200041770935,-0.950061023235321,1.4041130542755127
1788107820686195500,5.103195556640625,-0.14839699864387512,-1.0122480392456055,1.343418002128601
1788107820696286200,5.1132861328125,0.011060000397264957,-1.05970299243927,1.2617199420928955
1788107820706374400,5.12337451171875,0.11244399845600128,-1.1051009893417358,1.1651029586791992
1788107820716461000,5.1334609375,0.20184800028800964,-1.1538289785385132,0.9995920062065125
1788107820726538200,5.143538330078125,0.31446000933647156,-1.1669600009918213,0.8733029961585999
1788107820736626700,5.153626708984375,0.47055700421333313,-1.2077449560165405,0.9223089814186096
1788107820746707000,5.16370703125,0.8233780264854431,-1.1474169492721558,1.1850030422210693
1788107820756782600,5.173782470703125,1.1584750413894653,-1.0739259719848633,1.4498640298843384
1788107820766861800,5.18386181640625,1.2773150205612183,-0.9180690050125122,1.6458489894866943
1788107820776994600,5.19399462890625,1.2831029891967773,-0.9578559994697571,1.81528902053833
1788107820787072300,5.204072265625,1.2543179988861084,-1.2242339849472046,1.9607239961624146
1788107820797156900,5.214156982421875,0.8915519714355469,-1.1200599670410156,1.5884599685668945
1788107820807242000,5.224241943359375,0.8415690064430237,-1.457118034362793,1.9715030193328857
1788107820817332000,5.23433203125,0.9277650117874146,-1.420266032218933,1.7987289428710938
1788107820827414000,5.2444140625,1.2375669479370117,-1.5799859762191772,1.757390022277832
1788107820837500200,5.254500244140625,1.290526032447815,-1.583279013633728,1.5019910335540771
1788107820847583200,5.264583251953125,1.2956949472427368,-1.7196600437164307,1.3965669870376587
1788107820857671400,5.27467138671875,1.2115529775619507,-1.7444950342178345,1.4773249626159668
1788107820867758300,5.28475830078125,1.1223249435424805,-1.8015650510787964,1.6284990310668945
1788107820877848000,5.29484814453125,0.9791280031204224,-1.861778974533081,1.7321909666061401
1788107820887928300,5.30492822265625,0.7276849746704102,-1.7055840492248535,1.6745940446853638
1788107820898016800,5.315016845703125,0.32465100288391113,-1.6270380020141602,1.460798978805542
1788107820908100600,5.3251005859375,-0.18484200537204742,-1.4550789594650269,1.164101004600525
1788107820918187800,5.335187744140625,-0.604390025138855,-1.3018089532852173,0.9873859882354736
1788107820928267800,5.345267822265625,-0.9135500192642212,-1.1633009910583496,0.8488150238990784
1788107820938356500,5.3553564453125,-0.9393879771232605,-0.9874150156974792,0.7262269854545593
1788107820948440000,5.365440185546875,-0.6963719725608826,-0.922668993473053,0.6448490023612976
1788107820958535000,5.375534912109375,-0.31114599108695984,-0.7730249762535095,0.529259979724884
1788107820968612000,5.385612060546875,0.16358600556850433,-0.7611460089683533,0.5956109762191772
1788107820978702000,5.3957021484375,0.6387820243835449,-0.5831850171089172,0.5408729910850525
1788107820988786200,5.4057861328125,0.9374629855155945,-0.48372700810432434,0.5674989819526672
1788107820998875000,5.415875,1.0558569431304932,-0.5166810154914856,0.646166980266571
1788107821008953000,5.425953125,1.046766996383667,-0.3975850045681,0.6273009777069092
1788107821019040800,5.436040771484375,0.8902320265769958,-0.31453099846839905,0.5875300168991089
1788107821029119000,5.446118896484375,0.728967010974884,-0.10138099640607834,0.4078010022640228
1788107821039214300,5.45621435546875,0.5110229849815369,-0.021567000076174736,0.19235700368881226
1788107821049294300,5.46629443359375,0.3400290012359619,0.003218000056222081,0.056758999824523926
1788107821059392800,5.476392822265625,0.48399001359939575,-0.019199000671505928,0.11909999698400497
1788107821069472000,5.486471923828125,0.7212759852409363,-0.07863900065422058,0.23762300610542297
1788107821079558000,5.496557861328125,1.0296909809112549,-0.10050799697637558,0.33893200755119324
1788107821089643300,5.506643310546875,1.3324869871139526,-0.12134499847888947,0.4237770140171051
1788107821099729700,5.516729736328125,1.4790990352630615,-0.024369999766349792,0.41958099603652954
1788107821109811700,5.526811767578125,1.3208789825439453,-0.0008679999737069011,0.27124398946762085
1788107821119901400,5.5369013671875,1.0611610412597656,0.026566000655293465,-0.01628199964761734
1788107821129984800,5.54698486328125,0.7121040225028992,0.1365640014410019,-0.19235600531101227
1788107821140069600,5.557069580078125,0.462348997592926,0.147148996591568,-0.24337099492549896
1788107821150155500,5.567155517578125,0.23517100512981415,0.1902409940958023,-0.2247850000858307
1788107821160240400,5.577240478515625,0.137580007314682,0.1550929993391037,-0.28045201301574707
1788107821170323500,5.587323486328125,0.22993700206279755,0.17642800509929657,-0.3878540098667145
1788107821180414700,5.597414794921875,0.6391010284423828,-0.06804200261831284,-0.41091200709342957
1788107821190497300,5.607497314453125,1.1491010189056396,0.12950600683689117,-0.11657699942588806
1788107821200589000,5.617589111328125,-0.5748609900474548,-0.31318598985671997,0.009895999915897846
1788107821210675000,5.627675048828125,-0.15297600626945496,0.16338099539279938,0.2244569957256317
1788107821220759300,5.63775927734375,-0.6807109713554382,-0.00811500009149313,0.06974799931049347
1788107821230849800,5.647849853515625,-0.6850429773330688,-0.051945000886917114,0.15685999393463135
1788107821240941300,5.65794140625,-0.13470600545406342,0.11406400054693222,0.13075999915599823
1788107821251040000,5.6680400390625,0.37619298696517944,0.059905000030994415,0.19228099286556244
1788107821261130000,5.6781298828125,0.9646310210227966,-0.1373489946126938,0.09273900091648102
1788107821271215600,5.688215576171875,1.2723480463027954,-0.2643069922924042,-0.1322679966688156
1788107821281307100,5.69830712890625,1.1079210042953491,-0.4946579933166504,-0.3936130106449127
1788107821291396600,5.708396728515625,0.7700200080871582,-0.5778719782829285,-0.38377800583839417
1788107821301478400,5.718478515625,0.1211009994149208,-0.6953510046005249,-0.15793000161647797
1788107821311565300,5.7285654296875,-0.5167409777641296,-0.6582329869270325,-0.04402799904346466
1788107821321652700,5.73865283203125,-0.9149519801139832,-0.5784069895744324,-0.026660000905394554
1788107821331738000,5.748738037109375,-1.078616976737976,-0.536827027797699,-0.09007599949836731
1788107821341825500,5.758825439453125,-1.132673978805542,-0.6038150191307068,-0.11584600061178207
1788107821351912200,5.768912109375,-1.0392589569091797,-0.7271260023117065,0.06260299682617188
1788107821362002200,5.779002197265625,-0.8547660112380981,-0.6325820088386536,0.24643200635910034
1788107821372092700,5.7890927734375,-0.7500669956207275,-0.7163789868354797,0.27118000388145447
1788107821382171100,5.799171142578125,-0.5985900163650513,-0.7802240252494812,0.2556000053882599
1788107821392267800,5.809267822265625,-0.4109100103378296,-0.860630989074707,0.2469860017299652
1788107821402353000,5.819352783203125,-0.40040698647499084,-0.9631770253181458,0.22345399856567383
1788107821412441000,5.829441162109375,-0.4546099901199341,-0.9335479736328125,0.06219499930739403
1788107821422556400,5.839556396484375,-0.57355797290802,-0.9927830100059509,-0.14462000131607056
1788107821432646000,5.84964599609375,-0.7621399760246277,-1.039659023284912,-0.3150410056114197
1788107821442728700,5.859728759765625,-0.9833379983901978,-1.055999994277954,-0.3144490122795105
1788107821452824000,5.869823974609375,-1.2117819786071777,-1.0242079496383667,-0.2098570019006729
1788107821465937200,5.882937255859375,-1.159335970878601,-0.8414549827575684,-0.24797099828720093
1788107821476027100,5.893027099609375,-1.0481029748916626,-0.7987340092658997,-0.17575199902057648
1788107821486114800,5.90311474609375,-0.7812759876251221,-0.7338520288467407,-0.10970299690961838
1788107821496192500,5.913192626953125,-0.4681830108165741,-0.7431319952011108,0.08612199872732162
1788107821511331800,5.928331787109375,-0.3015100061893463,-0.6126769781112671,0.6590110063552856
1788107821521416000,5.938416015625,-0.31665199995040894,-0.6432120203971863,0.9958419799804688
1788107821541591800,5.958591796875,-0.3719629943370819,-0.4183630049228668,0.4553160071372986
1788107821551678000,5.968677978515625,-0.742222011089325,-0.2752639949321747,-0.3561519980430603
1788107821561769000,5.97876904296875,-1.1595929861068726,-0.30288898944854736,-0.8719019889831543
1788107821571863800,5.98886376953125,-1.3373939990997314,-0.39612099528312683,-1.13612699508667
1788107821581952300,5.9989521484375,-1.0323289632797241,-0.41890400648117065,-1.1428810358047485
1788107821597088300,6.014088134765625,-0.47870901226997375,-0.3072580099105835,-1.0842289924621582
1788107821607178000,6.024177978515625,-0.172093003988266,-0.43824300169944763,-0.7020210027694702
1788107821617271000,6.03427099609375,-0.16322200000286102,-0.5158290266990662,-0.2278670072555542
1788107821627364000,6.044364013671875,-0.4132069945335388,-0.31195399165153503,-0.1247749999165535
1788107821638456800,6.055456787109375,-0.9875950217247009,-0.03587999939918518,-0.3231399953365326
1788107821648543500,6.06554345703125,-1.503504991531372,-0.09447500109672546,-0.672635018825531
1788107821658626000,6.0756259765625,-1.9519670009613037,-0.23925699293613434,-0.7300270199775696
1788107821668713000,6.085712890625,-1.9881819486618042,-0.23141099512577057,-0.8293690085411072
1788107821678796800,6.095796875,-1.6254639625549316,-0.17194099724292755,-0.8331570029258728
1788107821688886500,6.105886474609375,-1.138532042503357,-0.28002798557281494,-0.803022027015686
1788107821698975000,6.11597509765625,-0.6012880206108093,-0.5339679718017578,-0.6381340026855469
1788107821709075200,6.1260751953125,-0.144336998462677,-0.5513920187950134,-0.6701040267944336
1788107821719154700,6.13615478515625,0.06812100112438202,-0.4859659969806671,-0.8203799724578857
1788107821729246500,6.14624658203125,0.027215000241994858,-0.6750180125236511,-0.7913659811019897
1788107821739332600,6.15633251953125,0.02354400046169758,-0.7541429996490479,-0.6914290189743042
1788107821749419500,6.16641943359375,-0.097291000187397,-0.9465169906616211,-0.44521498680114746
1788107821759510800,6.1765107421875,0.04335999861359596,-1.0083800554275513,-0.2329220026731491
1788107821769593300,6.18659326171875,0.47748300433158875,-1.103456974029541,0.018918000161647797
1788107821779683300,6.196683349609375,0.9993939995765686,-1.0954970121383667,0.26080000400543213
1788107821789764600,6.2067646484375,1.2516809701919556,-1.323207974433899,0.5962650179862976
1788107821799853300,6.216853271484375,2.0519299507141113,-0.5095490217208862,0.8971440196037292
1788107821809932000,6.22693212890625,2.045768976211548,-0.5006150007247925,2.03895902633667
1788107821820024000,6.237024169921875,1.78084397315979,-0.2919769883155823,2.6049439907073975
1788107821830102000,6.24710205078125,1.6443829536437988,-0.10447899997234344,2.719651937484741
1788107821840190000,6.25718994140625,1.869070053100586,0.022050000727176666,2.358177900314331
1788107821850285000,6.26728515625,2.404313087463379,0.09490200132131577,1.9792389869689941
1788107821860379600,6.277379638671875,3.0651791095733643,0.14345699548721313,1.8344670534133911
1788107821870465500,6.287465576171875,3.947269916534424,0.1811159998178482,1.9051549434661865
1788107821880550700,6.297550537109375,4.5417609214782715,0.034170001745224,2.193877935409546
1788107821890642200,6.30764208984375,4.461887836456299,-0.16742299497127533,2.306960105895996
1788107821900729300,6.317729248046875,4.14710807800293,0.17712700366973877,2.318727970123291
1788107821910808800,6.327808837890625,2.6034131050109863,0.4035010039806366,1.3058029413223267
1788107821920893200,6.33789306640625,0.5055469870567322,0.6193559765815735,0.5248090028762817
1788107821930982100,6.347982177734375,-1.412423014640808,0.5341770052909851,-0.18583199381828308
1788107821941067500,6.358067626953125,-2.813354015350342,0.2343440055847168,-0.3794279992580414
1788107821951157500,6.368157470703125,-3.0228629112243652,0.04045800119638443,-0.619704008102417
1788107821961250300,6.378250244140625,-1.7673150300979614,-0.2383739948272705,-1.0739400386810303
1788107821971342000,6.388342041015625,-0.5233920216560364,-0.6524230241775513,-1.5048069953918457
1788107821981421300,6.39842138671875,0.4349850118160248,-0.395004004240036,-1.834825038909912
1788107821991515600,6.408515625,0.8290759921073914,0.22553899884223938,-1.6378170251846313
1788107822001597400,6.418597412109375,0.022255999967455864,0.8388689756393433,-1.2110439538955688
1788107822011689200,6.428689208984375,-1.3800209760665894,1.6831049919128418,-1.2223069667816162
1788107822021767700,6.438767578125,-2.9590790271759033,2.1283929347991943,-0.7757989764213562
1788107822031868400,6.448868408203125,-3.4715468883514404,2.3687000274658203,-0.5740330219268799
1788107822041952500,6.458952392578125,-2.2191569805145264,2.2839999198913574,-0.7772669792175293
1788107822052043500,6.46904345703125,-0.13594700396060944,2.053062915802002,-1.7666399478912354
1788107822062118000,6.479117919921875,2.251837968826294,1.8089109659194946,-2.879422903060913
1788107822072209700,6.489209716796875,4.382868766784668,1.8382200002670288,-3.5004220008850098
1788107822082290200,6.499290283203125,6.030423164367676,1.8554610013961792,-3.2231059074401855
1788107822092393500,6.5093935546875,7.245123863220215,1.7034740447998047,-2.200927972793579
1788107822102479000,6.51947900390625,7.8238067626953125,1.595649003982544,-0.8114550113677979
1788107822112577300,6.529577392578125,7.930688858032227,1.4805370569229126,0.7165259718894958
1788107822122662400,6.539662353515625,7.589231014251709,1.3241989612579346,1.6699140071868896
1788107822132757000,6.549757080078125,7.0605788230896,1.3316049575805664,1.456626057624817
1788107822142849800,6.559849853515625,6.439269065856934,1.315716028213501,0.8454620242118835
1788107822152946200,6.5699462890625,5.754395008087158,1.6387269496917725,0.21055500209331512
1788107822163037000,6.580036865234375,4.691205024719238,2.0628108978271484,-0.3400129973888397
1788107822173143800,6.590143798828125,3.204158067703247,2.475564956665039,-0.5525839924812317
1788107822183234000,6.600234130859375,2.1894140243530273,2.8581550121307373,-0.7583119869232178
1788107822193322500,6.610322509765625,1.7678489685058594,3.1151928901672363,-0.9850469827651978
1788107822213512000,6.630511962890625,2.1343650817871094,3.5506598949432373,-0.7138460278511047
1788107822223605000,6.64060498046875,2.234808921813965,3.129412889480591,-0.4508979916572571
1788107822233693700,6.650693603515625,2.1901071071624756,2.4481050968170166,0.08428999781608582
1788107822243778300,6.6607783203125,2.269505023956299,1.453732967376709,0.8720099925994873
1788107822253868000,6.670867919921875,2.287139892578125,0.44088199734687805,1.272210955619812
1788107822263957500,6.68095751953125,1.9620569944381714,-0.40369999408721924,1.7526259422302246
1788107822274052000,6.691052001953125,1.1941519975662231,-1.4692679643630981,1.8204829692840576
1788107822284134400,6.701134521484375,0.3164199888706207,-2.245448112487793,1.2518659830093384
1788107822294226700,6.711226806640625,-1.5084279775619507,-2.958259105682373,-0.09659100323915482
1788107822304312000,6.72131201171875,-3.480168104171753,-3.741853952407837,-1.8230619430541992
1788107822314416600,6.731416748046875,-5.214395999908447,-4.334339141845703,-3.1312758922576904
1788107822324501500,6.74150146484375,-6.118569850921631,-4.516585826873779,-2.9366300106048584
1788107822344667600,6.761667724609375,-8.749518394470215,-5.467026233673096,-2.3621509075164795
1788107822354762800,6.7717626953125,-9.807315826416016,-6.003644943237305,-2.3857901096343994
1788107822364852500,6.7818525390625,-10.742513656616211,-6.384894847869873,-2.3797950744628906
1788107822374948400,6.7919482421875,-11.268550872802734,-6.788710117340088,-2.323590040206909
1788107822385028900,6.80202880859375,-11.307352066040039,-7.252862930297852,-1.881382942199707
1788107822395120400,6.812120361328125,-11.639947891235352,-7.647543907165527,-1.36879301071167
1788107822405209300,6.822209228515625,-11.967737197875977,-8.063639640808105,-0.9522410035133362
1788107822415306200,6.83230615234375,-12.123821258544922,-8.398222923278809,-0.7590619921684265
1788107822425388000,6.842387939453125,-11.822183609008789,-8.449064254760742,-0.9937989711761475
1788107822445565000,6.86256494140625,-11.04636287689209,-8.507165908813477,-1.7575980424880981
1788107822455654000,6.87265380859375,-10.56231689453125,-8.499597549438477,-1.9120500087738037
1788107822465745200,6.8827451171875,-9.666131973266602,-8.331774711608887,-1.731503963470459
1788107822475834400,6.89283447265625,-8.650287628173828,-7.897319793701172,-1.7201019525527954
1788107822485921800,6.902921875,-7.656132221221924,-7.479884147644043,-1.9499200582504272
1788107822496026600,6.913026611328125,-6.8049139976501465,-6.739107131958008,-2.6031548976898193
1788107822506112000,6.923112060546875,-6.407214164733887,-5.606655120849609,-3.2922630310058594
1788107822516205300,6.933205322265625,-6.219541072845459,-4.302978992462158,-3.9070301055908203
1788107822526295600,6.943295654296875,-6.029867172241211,-2.4708309173583984,-4.072164058685303
1788107822546478800,6.963478759765625,-2.3685309886932373,-0.752282977104187,-1.408553957939148
1788107822556576300,6.973576171875,1.8083499670028687,0.9773719906806946,0.7700039744377136
1788107822566655000,6.983655029296875,6.1055521965026855,3.2082300186157227,2.249474048614502
1788107822576745200,6.9937451171875,10.214341163635254,5.448768138885498,3.1283950805664062
1788107822586837500,7.00383740234375,13.279221534729004,6.857316970825195,3.9416871070861816
1788107822596944100,7.013944091796875,15.265499114990234,7.727313041687012,4.603104114532471
1788107822607028700,7.02402880859375,16.24279022216797,8.69393539428711,4.123854160308838
1788107822617116700,7.03411669921875,16.24610137939453,9.347466468811035,3.2280240058898926
1788107822627199200,7.04419921875,15.875680923461914,9.207131385803223,2.8805549144744873
1788107822637291800,7.054291748046875,16.030536651611328,8.561864852905273,3.126408100128174
1788107822647381800,7.0643818359375,17.157760620117188,7.934869766235352,3.407344102859497
1788107822657472000,7.074471923828125,18.26112937927246,6.68990421295166,2.969149112701416
1788107822667567000,7.084567138671875,18.65878677368164,5.362603187561035,2.308732032775879
1788107822677662500,7.094662353515625,18.643234252929688,4.353908061981201,1.6156209707260132
1788107822687746600,7.10474658203125,16.673946380615234,3.472409963607788,1.0239050388336182
1788107822697836300,7.114836181640625,13.609556198120117,2.73416805267334,1.0352790355682373
1788107822707926500,7.124926513671875,9.846272468566895,1.8929510116577148,1.098639965057373
1788107822718023000,7.13502294921875,6.044980049133301,1.3279600143432617,0.9793440103530884
1788107822728101400,7.145101318359375,2.355504035949707,0.8409510254859924,0.9178280234336853
1788107822738186800,7.155186767578125,-0.9412930011749268,0.17837800085544586,0.7918699979782104
1788107822748270300,7.165270263671875,-3.520448923110962,-0.5033910274505615,0.8198390007019043
1788107822758359300,7.175359375,-5.264087200164795,-0.9307429790496826,0.7095320224761963
1788107822768453400,7.185453369140625,-6.214889049530029,-1.3989100456237793,0.6386560201644897
1788107822778544000,7.195544189453125,-6.799555778503418,-1.8107450008392334,0.8011069893836975
1788107822788630800,7.205630859375,-7.226968765258789,-2.2355270385742188,1.3011549711227417
1788107822798725600,7.2157255859375,-6.887002944946289,-2.688694953918457,1.4107420444488525
1788107822808815000,7.225815185546875,-6.245361804962158,-2.969183921813965,1.132567048072815
1788107822818907400,7.235907470703125,-5.771306991577148,-3.233534097671509,0.7159510254859924
1788107822828988700,7.24598876953125,-5.680050849914551,-3.4035229682922363,0.4780519902706146
1788107822839085600,7.25608544921875,-5.899864196777344,-3.5738890171051025,0.3057959973812103
1788107822849185000,7.26618505859375,-6.137084007263184,-3.6207189559936523,0.1989089995622635
1788107822859284700,7.27628466796875,-6.072737216949463,-3.5372231006622314,0.1788640022277832
1788107822869358800,7.28635888671875,-5.63847017288208,-3.434835910797119,-0.1842840015888214
1788107822879449900,7.296449951171875,-4.886359214782715,-3.42171311378479,-0.5753610134124756
1788107822889536500,7.30653662109375,-4.329133033752441,-3.2678449153900146,-0.8298320174217224
1788107822899635500,7.316635498046875,-3.9376220703125,-3.194525957107544,-0.572513997554779
1788107822909713700,7.326713623046875,-3.569171905517578,-3.059022903442383,0.05255400016903877
1788107822919806700,7.336806640625,-2.9772748947143555,-2.8227579593658447,0.5811079740524292
1788107822929890300,7.346890380859375,-2.3685030937194824,-2.5440800189971924,0.6706969738006592
1788107822939980300,7.356980224609375,-2.0692079067230225,-2.178126096725464,0.36177098751068115
1788107822950064000,7.367064208984375,-2.049006938934326,-1.9840929508209229,0.10262899845838547
1788107822960158200,7.377158203125,-1.9500290155410767,-1.7553950548171997,-0.06250199675559998
1788107822970239500,7.387239501953125,-1.9427629709243774,-1.4424190521240234,-0.1052360013127327
1788107822980340000,7.397340087890625,-1.9420640468597412,-1.0653690099716187,-0.14221300184726715
1788107822990435800,7.407435791015625,-2.0642149448394775,-0.7314090132713318,-0.43298399448394775
1788107823000522000,7.41752197265625,-1.8847179412841797,-0.43017199635505676,-0.7016969919204712
1788107823010601000,7.42760107421875,-1.4814300537109375,-0.07618799805641174,-1.0521169900894165
1788107823020688100,7.437688232421875,-1.078505039215088,0.0578249990940094,-1.0587430000305176
1788107823030769200,7.44776904296875,-0.4024989902973175,0.16822899878025055,-0.8201649785041809
1788107823040860200,7.457860107421875,0.697983980178833,0.42112401127815247,-0.6301569938659668
1788107823050947800,7.46794775390625,2.0660619735717773,0.6332629919052124,-0.6702089905738831
1788107823061040600,7.47804052734375,3.1434390544891357,0.7366229891777039,-0.7772700190544128
1788107823071120400,7.488120361328125,3.8989601135253906,0.6042850017547607,-0.6315330266952515
1788107823081207600,7.49820751953125,4.044456958770752,0.641185998916626,-0.4014210104942322
1788107823091301600,7.508301513671875,3.5794761180877686,0.9134219884872437,-0.1637279987335205
1788107823101389300,7.518389404296875,3.016784906387329,1.491821050643921,0.005092000123113394
1788107823111477500,7.5284775390625,2.434398889541626,2.2570419311523438,0.5077630281448364
1788107823121562000,7.53856201171875,1.950961947441101,3.009329080581665,1.4070229530334473
1788107823131651600,7.548651611328125,1.4614319801330566,3.394274950027466,2.6718480587005615
1788107823151820800,7.56882080078125,1.5862280130386353,3.553199052810669,1.6231629848480225
1788107823161911800,7.578911865234375,1.9918179512023926,3.460642099380493,0.4481619894504547
1788107823171999200,7.588999267578125,2.1233460903167725,3.2774178981781006,-0.5312870144844055
1788107823182089000,7.5990888671875,2.103080987930298,2.788857936859131,-0.8746899962425232
1788107823192170000,7.609169921875,2.0577690601348877,2.3969199657440186,-1.0634009838104248
1788107823202259700,7.619259765625,2.08650803565979,2.023324966430664,-1.1206660270690918
1788107823212354600,7.6293544921875,1.863204002380371,1.7546429634094238,-1.0605180263519287
1788107823222451500,7.639451416015625,1.5244220495224,1.3319180011749268,-1.2427359819412231
1788107823232545000,7.649544921875,1.4380700588226318,1.0469989776611328,-1.1440160274505615
1788107823242639000,7.65963916015625,1.1822370290756226,0.9505659937858582,-1.1711779832839966
1788107823252724500,7.669724365234375,0.8116239905357361,0.9816769957542419,-1.277161955833435
1788107823262813400,7.6798134765625,0.27238699793815613,1.0501389503479004,-1.2299460172653198
1788107823282988300,7.69998828125,-0.06291499733924866,1.1020770072937012,0.14625099301338196
1788107823293079300,7.710079345703125,0.2936350107192993,1.0732300281524658,1.261896014213562
1788107823303159300,7.7201591796875,0.39296698570251465,1.115386962890625,1.8131810426712036
1788107823313255200,7.730255126953125,0.6006919741630554,1.1922780275344849,1.9730620384216309
1788107823323350300,7.740350341796875,0.5932909846305847,1.1519650220870972,1.7644180059432983
1788107823333439500,7.750439453125,0.2056030035018921,1.0356090068817139,1.1496750116348267
1788107823343519500,7.76051953125,-0.10371000319719315,0.8116210103034973,0.5056999921798706
1788107823353611500,7.770611572265625,-0.45298901200294495,0.3277229964733124,0.17913800477981567
1788107823363696400,7.7806962890625,-0.6731699705123901,-0.08953999727964401,0.09590300172567368
1788107823373790200,7.790790283203125,-0.6928250193595886,-0.31450000405311584,-0.005634999834001064
1788107823383879400,7.80087939453125,-0.5857589840888977,-0.46167901158332825,-0.28481000661849976
1788107823393967400,7.81096728515625,-1.1965739727020264,-0.5396019816398621,-0.4908770024776459
1788107823404055800,7.821055908203125,-1.5580819845199585,-0.6514620184898376,-0.2691839933395386
1788107823414148000,7.831148193359375,-1.7795350551605225,-0.5946040153503418,-0.14923900365829468
1788107823424234800,7.84123486328125,-1.8392599821090698,-0.7655709981918335,0.03174600005149841
1788107823434322000,7.851322021484375,-1.5508719682693481,-0.8888610005378723,0.3291890025138855
1788107823444404000,7.861404052734375,-1.0977920293807983,-0.8177220225334167,0.3958500027656555
1788107823454495500,7.87149560546875,-0.8945789933204651,-0.7874240279197693,0.25759199261665344
1788107823464588000,7.881588134765625,-1.1119070053100586,-0.8224110007286072,-0.018131999298930168
1788107823474680300,7.891680419921875,-1.3086739778518677,-0.7743859887123108,-0.28461501002311707
1788107823484768500,7.9017685546875,-1.4970539808273315,-0.5733789801597595,-0.5539489984512329
1788107823494860000,7.911860107421875,-1.7975460290908813,-0.5173310041427612,-0.6710289716720581
1788107823504946200,7.9219462890625,-2.0244479179382324,-0.4906339943408966,-0.499206006526947
1788107823515032000,7.932031982421875,-1.8936339616775513,-0.5291470289230347,-0.2597709894180298
1788107823525122000,7.9421220703125,-1.5112849473953247,-0.6826940178871155,0.044557999819517136
1788107823535208700,7.952208740234375,-1.0623350143432617,-0.8580960035324097,0.3608430027961731
1788107823545291800,7.962291748046875,-0.6999160051345825,-0.6526730060577393,0.5025579929351807
1788107823555383000,7.972383056640625,-0.7762410044670105,-0.40900298953056335,0.3413020074367523
1788107823565461200,7.982461181640625,-1.1383739709854126,-0.4336189925670624,0.08396200090646744
1788107823575547000,7.992546875,-1.4759420156478882,-0.721464991569519,0.12164600193500519
1788107823585631500,8.002631591796876,-1.3170050382614136,-0.7157589793205261,0.1962440013885498
1788107823595716000,8.012716064453125,-1.2058689594268799,-0.30864301323890686,0.17747299373149872
1788107823605802800,8.022802734375,-1.4439419507980347,-0.16466499865055084,-0.04664599895477295
1788107823615889700,8.0328896484375,-1.7450389862060547,-0.1679220050573349,-0.3429209887981415
1788107823625977300,8.042977294921876,-1.8353569507598877,-0.2671779990196228,-0.3961459994316101
1788107823636076300,8.053076171875,-1.6571329832077026,-0.13015100359916687,-0.3601270020008087
1788107823646171000,8.0631708984375,-1.3376330137252808,0.1071700006723404,-0.2725589871406555
1788107823656257500,8.073257568359375,-0.9053189754486084,0.24860699474811554,-0.03550399839878082
1788107823666349000,8.08334912109375,-0.6080089807510376,0.3412489891052246,0.19849400222301483
1788107823676439600,8.093439453125,-0.3381569981575012,0.4132690131664276,0.363321989774704
1788107823686526700,8.103526611328125,-0.2117059975862503,0.33713498711586,0.5723710060119629
1788107823696617000,8.113616943359375,-0.013402000069618225,0.254954993724823,0.6912599802017212
1788107823706703000,8.123703125,0.2578279972076416,0.46620699763298035,0.6934109926223755
1788107823716792300,8.133792236328125,0.44628000259399414,0.6926450133323669,0.4865129888057709
1788107823726888000,8.143887939453125,0.46640101075172424,0.7937870025634766,0.3216579854488373
1788107823736976100,8.15397607421875,0.2487879991531372,0.8549690246582031,0.26969900727272034
1788107823747061200,8.164061279296876,0.27229300141334534,0.8429459929466248,0.3338080048561096
1788107823757153000,8.174153076171875,0.4852699935436249,0.9617609977722168,0.35744601488113403
1788107823767240200,8.184240234375,0.621969997882843,0.9227309823036194,0.39693498611450195
1788107823777330200,8.194330078125,1.7996089458465576,0.870203971862793,0.3322620093822479
1788107823787428600,8.2044287109375,0.5485889911651611,1.062298059463501,-0.03280099853873253
1788107823797510700,8.2145107421875,-0.26468101143836975,0.8809030055999756,0.37928101420402527
1788107823807593500,8.224593505859374,0.055316001176834106,0.9444440007209778,0.7469549775123596
1788107823817689000,8.234689208984374,-0.2494949996471405,0.7715129852294922,1.1392890214920044
1788107823827780000,8.244780029296875,0.2707569897174835,0.8692600131034851,1.1087559461593628
1788107823837860600,8.254860595703125,0.9099370241165161,0.842710018157959,0.9068310260772705
1788107823847943200,8.264943115234376,1.2032500505447388,0.6244459748268127,0.6465669870376587
1788107823858037200,8.275037353515625,1.3034950494766235,0.7221059799194336,0.362199991941452
1788107823868125700,8.285125732421875,0.8807089924812317,0.8890720009803772,-0.10474400222301483
1788107823878209000,8.295208984375,0.032322000712156296,1.0693550109863281,-0.6396639943122864
1788107823888298500,8.305298583984374,-0.5672159790992737,1.11210298538208,-0.9988380074501038
1788107823898384600,8.315384521484376,-1.367182970046997,1.298624038696289,-1.0344270467758179
1788107823908479700,8.325479736328125,-1.635388970375061,0.8645240068435669,-0.24829599261283875
1788107823918563300,8.335563232421874,-1.290719985961914,0.7081760168075562,0.4213449954986572
1788107823928657400,8.345657470703125,-0.8290590047836304,0.996284008026123,0.570044994354248
1788107823938743000,8.355742919921875,-0.5301849842071533,1.2114189863204956,0.3048889935016632
1788107823948825300,8.365825439453126,-0.46525099873542786,1.0843939781188965,0.007486999966204166
1788107823958915000,8.3759150390625,-0.5124319791793823,0.810820996761322,0.02843499928712845
1788107823969001200,8.386001220703125,-0.32770898938179016,0.5378689765930176,0.41998299956321716
1788107823979091200,8.39609130859375,0.12052199989557266,0.5267419815063477,0.6162930130958557
1788107823989184800,8.406184814453125,0.16387300193309784,0.31740400195121765,0.4686860144138336
1788107823999275800,8.41627587890625,0.575564980506897,0.006910999771207571,0.5796470046043396
1788107824009372700,8.42637255859375,0.9324719905853271,-0.13844600319862366,0.5156919956207275
1788107824019457800,8.436457763671875,1.0337330102920532,-0.19203899800777435,0.2754789888858795
1788107824029552000,8.44655224609375,0.5900449752807617,-0.07554599642753601,-0.25457099080085754
1788107824039644400,8.45664453125,-0.14406299591064453,0.3284040093421936,-1.2500890493392944
1788107824049732400,8.466732421875,-1.0342090129852295,0.5540729761123657,-1.809751033782959
1788107824059822800,8.47682275390625,-1.7637319564819336,0.39633700251579285,-1.5130269527435303
1788107824069906000,8.486906005859375,-1.8141989707946777,0.16354399919509888,-0.8052080273628235
1788107824079993600,8.49699365234375,-1.0973190069198608,-0.07778000086545944,-0.12265700101852417
1788107824090075600,8.50707568359375,-0.21915599703788757,-0.2973270118236542,0.5891069769859314
1788107824100162800,8.517162841796875,0.6973530054092407,-0.3019160032272339,0.6834859848022461
1788107824110249500,8.52724951171875,1.1661009788513184,-0.3838239908218384,0.3832840025424957
1788107824120338000,8.537337890625,1.3403149843215942,-0.9291589856147766,-0.43389201164245605
1788107824130422000,8.547422119140625,0.9828590154647827,-1.0290720462799072,0.08752600103616714
1788107824140504000,8.557504150390624,0.3602530062198639,-1.0524020195007324,0.10364300012588501
1788107824150593800,8.56759375,-0.42941200733184814,-0.8352050185203552,0.09176799654960632
1788107824160681000,8.577680908203124,-1.3744679689407349,-0.3514469861984253,-0.3817780017852783
1788107824170777600,8.587777587890624,-2.1653199195861816,0.005024000070989132,-1.101686954498291
1788107824180858600,8.597858642578124,-2.8109939098358154,0.30578500032424927,-1.6192200183868408
1788107824190945800,8.60794580078125,-3.2067770957946777,0.3063940107822418,-1.604006052017212
1788107824201027000,8.618027099609375,-2.9197559356689453,0.2558409869670868,-0.9055050015449524
1788107824211126300,8.628126220703125,-1.928238034248352,0.34912899136543274,-0.17803899943828583
1788107824221207800,8.638207763671875,-0.9090579748153687,0.44002801179885864,-0.08902899920940399
1788107824231307500,8.6483076171875,-0.05926400050520897,0.25969401001930237,-0.23092900216579437
1788107824241393200,8.65839306640625,0.6011620163917542,-0.033362001180648804,-0.17926999926567078
1788107824251481600,8.668481689453126,0.9142240285873413,-0.3605690002441406,0.25247201323509216
1788107824261561900,8.678561767578126,1.1373039484024048,-0.5959429740905762,0.7646639943122864
1788107824271658200,8.688658203125,1.3481470346450806,-0.7396330237388611,1.0642900466918945
1788107824281750500,8.69875048828125,1.421794056892395,-0.6539549827575684,0.8086709976196289
1788107824291845400,8.708845458984374,1.1227469444274902,-0.20172999799251556,-0.02268199995160103
1788107824301928200,8.71892822265625,0.6728079915046692,0.08643700182437897,-0.9150869846343994
1788107824312003800,8.72900390625,-0.02927600033581257,0.22844800353050232,-1.2564189434051514
1788107824322090500,8.739090576171876,-0.5821620225906372,0.18142199516296387,-0.7985360026359558
1788107824332181800,8.749181640625,-0.6471319794654846,0.07622399926185608,-0.07412999868392944
1788107824342267400,8.759267333984376,-0.3858169913291931,-0.11299099773168564,0.6083539724349976
1788107824352367600,8.76936767578125,0.15818899869918823,-0.21441200375556946,0.7197980284690857
1788107824362465300,8.77946533203125,0.6837369799613953,-0.29880601167678833,0.49323800206184387
1788107824372557800,8.789557861328126,0.859080970287323,-0.3773120045661926,0.26322799921035767
1788107824382647000,8.79964697265625,0.8956149816513062,-0.4915199875831604,0.15262499451637268
1788107824392737500,8.809737548828124,0.9920390248298645,-0.5582529902458191,0.2675890028476715
1788107824402828000,8.819828125,0.6049100160598755,-0.6608750224113464,0.6744700074195862
1788107824412918800,8.829918701171875,0.40953999757766724,-0.8326759934425354,1.1088780164718628
1788107824423007500,8.840007568359376,0.5905280113220215,-0.7395700216293335,1.0777000188827515
1788107824433103600,8.850103515625,0.4898900091648102,-0.7745770215988159,1.0055439472198486
1788107824443178800,8.8601787109375,0.5265920162200928,-0.6568130254745483,1.4248379468917847
1788107824453274400,8.8702744140625,0.31204700469970703,-0.3080190122127533,0.21952299773693085
1788107824463361800,8.88036181640625,0.16858500242233276,-0.4492419958114624,-0.030274000018835068
1788107824473447700,8.89044775390625,0.40564799308776855,-0.23741300404071808,0.06033499911427498
1788107824483534800,8.900534912109375,0.31523799896240234,-0.25293299555778503,0.063400998711586
1788107824493627100,8.910627197265624,0.4957840144634247,-0.47731199860572815,0.7356299757957458
1788107824503708200,8.920708251953124,0.9297429919242859,-0.6547060012817383,1.5336719751358032
1788107824513799000,8.930798828125,1.4384889602661133,-0.8448789715766907,1.8876659870147705
1788107824523878000,8.9408779296875,1.8606950044631958,-0.9723730087280273,2.047765016555786
1788107824533974800,8.950974853515625,1.6956150531768799,-0.8915799856185913,1.9779820442199707
1788107824544066600,8.961066650390626,1.491860032081604,-0.7938709855079651,1.5374499559402466
1788107824554154200,8.971154296875,1.413246989250183,-0.7722709774971008,1.14376699924469
1788107824564225000,8.98122509765625,0.907604992389679,-0.7346019744873047,1.023934006690979
1788107824574320600,8.991320556640625,0.27063000202178955,-0.8382710218429565,1.0556219816207886
1788107824584406000,9.001406005859375,0.19049499928951263,-1.2126530408859253,1.2807530164718628
1788107824594506800,9.0115068359375,0.5988180041313171,-1.5479300022125244,1.4909440279006958
1788107824604586800,9.021586669921875,0.9961209893226624,-1.7625160217285156,1.553380012512207
1788107824614684000,9.031683837890625,1.0953999757766724,-1.911674976348877,0.9949520230293274
1788107824624771300,9.041771240234375,0.668753981590271,-1.872568964958191,0.24440500140190125
1788107824634875400,9.05187548828125,0.1993349939584732,-1.8884730339050293,-0.14430899918079376
1788107824644959200,9.061959228515626,-0.307218998670578,-1.8564389944076538,-0.12627799808979034
1788107824655049500,9.072049560546875,-0.7964169979095459,-1.7014110088348389,0.0504629984498024
1788107824665129200,9.082129150390625,-0.8214200139045715,-1.5707590579986572,0.2605479955673218
1788107824675221500,9.092221435546875,-0.6846219897270203,-1.5826419591903687,0.4114159941673279
1788107824685317600,9.102317626953125,-0.5110129714012146,-1.6096889972686768,0.6756160259246826
1788107824695413000,9.1124130859375,-0.41649800539016724,-1.6238160133361816,0.8232769966125488
1788107824705496000,9.12249609375,-0.56352299451828,-1.4705079793930054,0.9948099851608276
1788107824715589400,9.13258935546875,-0.6428139805793762,-1.2951840162277222,0.7490059733390808
1788107824725676300,9.14267626953125,-0.738523006439209,-1.0007200241088867,0.37626200914382935
1788107824735772700,9.152772705078124,-0.7242000102996826,-0.8089709877967834,0.2518889904022217
1788107824745856800,9.162856689453125,-0.4923129975795746,-0.7146850228309631,0.034306999295949936
1788107824755951900,9.172951904296875,-0.1505970060825348,-0.6173189878463745,-0.3291440010070801
1788107824766037000,9.183037109375,0.09040000289678574,-0.7596560120582581,-0.511451005935669
1788107824776127500,9.19312744140625,0.10513799637556076,-0.791778028011322,-0.40619999170303345
1788107824786209800,9.203209716796875,0.3974139988422394,-0.73614102602005,-0.45577099919319153
1788107824796301300,9.21330126953125,0.5263789892196655,-0.7603539824485779,0.03555700182914734
1788107824806393000,9.22339306640625,0.735696017742157,-0.4096109867095947,-0.17256799340248108
1788107824816488700,9.23348876953125,1.0132490396499634,-0.35154101252555847,-0.4175739884376526
1788107824826581500,9.24358154296875,1.024317979812622,-0.3454349935054779,-0.25839000940322876
1788107824836673000,9.253673095703125,0.9282039999961853,-0.3795210123062134,-0.1413159966468811
1788107824846759700,9.263759765625,0.7784709930419922,-0.49702000617980957,0.09273499995470047
1788107824856857900,9.27385791015625,0.8609650135040283,-0.40992799401283264,0.16888999938964844
1788107824866943700,9.28394384765625,0.8047289848327637,-0.1913280040025711,-0.09111300110816956
1788107824877030000,9.29402978515625,0.36337900161743164,0.015657000243663788,-0.6369940042495728
1788107824887116300,9.3041162109375,0.0650629997253418,0.21522000432014465,-1.076511025428772
1788107824897206800,9.314206787109375,-0.4368849992752075,0.3094089925289154,-1.2527110576629639
1788107824907294700,9.324294677734375,-0.8660479784011841,0.33824101090431213,-1.4067720174789429
1788107824917385700,9.3343857421875,-1.1394619941711426,0.3012300133705139,-1.2445679903030396
1788107824927469300,9.34446923828125,-0.9532409906387329,0.36035600304603577,-0.9486830234527588
1788107824937559000,9.35455908203125,-1.0852739810943604,0.6511269807815552,-0.6438310146331787
1788107824947646200,9.364646240234375,-1.178223967552185,0.6542860269546509,-0.5926600098609924
1788107824957741300,9.3747412109375,-1.0386879444122314,0.7329549789428711,-0.6157739758491516
1788107824967827000,9.384826904296874,-0.4922280013561249,0.8550360202789307,-1.0318189859390259
1788107824977919700,9.394919677734375,-0.1148810014128685,0.818343997001648,-1.3653160333633423
1788107824988009000,9.405009033203125,0.10291299968957901,0.6495460271835327,-1.2554409503936768
1788107824998104300,9.415104248046875,0.3469269871711731,0.6463479995727539,-0.9707310199737549
1788107825008194300,9.4251943359375,0.7059080004692078,0.46563199162483215,-0.5489810109138489
1788107825018281200,9.43528125,0.9048969745635986,0.4614109992980957,-0.4591050148010254
1788107825028369700,9.44536962890625,0.9681689739227295,0.4636389911174774,-0.721580982208252
1788107825038467000,9.455467041015625,1.0416179895401,0.3086569905281067,-0.7049580216407776
1788107825048544500,9.46554443359375,0.9688209891319275,0.015208999626338482,-0.3845849931240082
1788107825058631000,9.475630859375,0.899528980255127,-0.34906598925590515,0.07495100051164627
1788107825068713000,9.485712890625,0.9279050230979919,-0.4053789973258972,0.7024040222167969
1788107825078807800,9.495807861328124,0.7308419942855835,-0.10935100167989731,0.362744003534317
1788107825088895200,9.505895263671874,-0.10619699954986572,0.160521000623703,-0.1743980050086975
1788107825098984000,9.51598388671875,-0.5280359983444214,0.5151039958000183,-1.0612800121307373
1788107825109070600,9.526070556640626,-0.9456899762153625,0.4016590118408203,-1.3158429861068726
1788107825119156200,9.53615625,-5.807218074798584,0.26867398619651794,-0.19221200048923492
1788107825129241900,9.546241943359375,-2.105833053588867,0.3220660090446472,0.7643309831619263
1788107825139336700,9.556336669921874,0.39368000626564026,-0.19478100538253784,0.42888399958610535
1788107825149409800,9.566409912109375,1.9037870168685913,-0.3975670039653778,0.8648759722709656
1788107825159500000,9.5765,2.764400005340576,-0.11836200207471848,0.7921990156173706
1788107825169586400,9.58658642578125,1.8236550092697144,0.0724330022931099,0.23885199427604675
1788107825179689500,9.596689453125,0.13977199792861938,0.03344900161027908,-0.5128239989280701
1788107825189764600,9.6067646484375,-0.7804989814758301,0.43764999508857727,-0.8743849992752075
1788107825199853600,9.616853515625,-1.0467580556869507,0.3903050124645233,-0.5890259742736816
1788107825209934800,9.626934814453126,-0.864782989025116,0.3404560089111328,0.010034999810159206
1788107825220022500,9.6370224609375,-0.40389299392700195,0.45835599303245544,0.356361985206604
1788107825230109700,9.647109619140625,-0.4616619944572449,0.38450801372528076,0.5624629855155945
1788107825240207400,9.657207275390626,-0.40773600339889526,0.36536499857902527,0.4577530026435852
1788107825250297000,9.667297119140626,-0.013357999734580517,0.2706579864025116,0.32105401158332825
1788107825260382200,9.67738232421875,0.3546159863471985,-0.027178000658750534,0.15702299773693085
1788107825270464300,9.68746435546875,0.578013002872467,-0.28655800223350525,0.5193639993667603
1788107825280554200,9.69755419921875,0.8916079998016357,-0.47543299198150635,0.27300000190734863
1788107825290635500,9.707635498046875,1.2116429805755615,-0.5754759907722473,0.7020949721336365
1788107825300729300,9.717729248046876,1.0525449514389038,-0.8568580150604248,0.8394759893417358
1788107825310817500,9.727817626953126,0.8550649881362915,-0.8595389723777771,0.7185680270195007
1788107825320904400,9.737904541015626,0.5960410237312317,-0.6805059909820557,0.17591899633407593
1788107825330995200,9.7479951171875,0.3467920124530792,-0.3696439862251282,-0.5246649980545044
1788107825341081000,9.7580810546875,0.074925996363163,-0.06238900125026703,-1.1805720329284668
1788107825351156200,9.76815625,-0.3094019889831543,-0.013253999873995781,-1.330538034439087
1788107825361241000,9.778240966796876,-0.6237099766731262,-0.025923000648617744,-1.0591139793395996
1788107825371333000,9.7883330078125,-0.6925169825553894,0.032600000500679016,-0.7820169925689697
1788107825381415000,9.798414794921875,-0.5500360131263733,0.08232799917459488,-0.695605993270874
1788107825391502300,9.80850244140625,-0.4173009991645813,-0.03379200026392937,-0.500590980052948
1788107825401585700,9.818585693359376,-0.14673900604248047,-0.1140109971165657,-0.33550500869750977
1788107825411675100,9.828675048828124,0.04333199933171272,-0.1593959927558899,-0.07743799686431885
1788107825421763600,9.838763671875,0.07691299915313721,-0.07407599687576294,-0.18662400543689728
1788107825431854600,9.8488544921875,0.07556899636983871,-0.17648999392986298,-0.37374699115753174
1788107825441939000,9.85893896484375,-0.0549440011382103,-0.36139100790023804,-0.35513201355934143
1788107825452033800,9.86903369140625,0.11438000202178955,-0.5645809769630432,-0.25598201155662537
1788107825462110000,9.87910986328125,0.3988339900970459,-0.4884229898452759,-0.19964499771595
1788107825472211200,9.889211181640626,0.7081329822540283,-0.3180829882621765,-0.2812969982624054
1788107825482304800,9.8993046875,0.6829439997673035,-0.3297699987888336,-0.31373700499534607
1788107825492396300,9.909396240234376,0.5453289747238159,-0.3872259855270386,-0.14669300615787506
1788107825502481400,9.9194814453125,0.39211300015449524,-0.3188120126724243,0.059383001178503036
1788107825512572400,9.929572509765626,0.4311319887638092,-0.17712000012397766,0.19382399320602417
1788107825522657000,9.939656982421875,0.49021899700164795,-0.2344209998846054,0.2221910059452057
1788107825532749600,9.94974951171875,0.6146240234375,-0.2968910038471222,0.3102560043334961
1788107825542835700,9.959835693359375,0.734669029712677,-0.44976699352264404,0.17453700304031372
1788107825552928000,9.969927978515624,0.6264709830284119,-0.4882049858570099,0.1720000058412552
1788107825563022300,9.980022216796876,0.47171199321746826,-0.5419250130653381,0.038114000111818314
1788107825573115100,9.990115234375,0.2397499978542328,-0.73853600025177,-0.0528389997780323
1788107825583203000,10.000203125,-0.15059499442577362,-0.6876490116119385,-0.2695060074329376
1788107825593279500,10.010279541015626,-0.39516299962997437,-0.6359140276908875,-0.6352419853210449
1788107825603369700,10.02036962890625,-0.5323989987373352,-0.5178290009498596,-0.829026997089386
1788107825613460200,10.030460205078125,-0.7831649780273438,-0.4593049883842468,-0.9052159786224365
1788107825623559700,10.0405595703125,-0.9314060211181641,-0.29097700119018555,-0.9112989902496338
1788107825633656300,10.05065625,-0.7159630060195923,-0.21823300421237946,-0.603069007396698
1788107825643747000,10.0607470703125,-0.5241789817810059,-0.24243900179862976,-0.21103200316429138
1788107825653839000,10.070839111328125,-0.2541159987449646,-0.1625799983739853,0.09615100175142288
1788107825663918000,10.08091796875,0.1733500063419342,-0.07227399945259094,0.21716900169849396
1788107825674006500,10.091006591796875,0.42036500573158264,-0.15592800080776215,0.25640198588371277
1788107825684096000,10.101095947265625,0.40522098541259766,-0.21606199443340302,0.193573996424675
1788107825694185500,10.111185546875,0.3115670084953308,-0.1447809934616089,0.14125099778175354
1788107825704271400,10.121271240234375,0.18041099607944489,-0.012361000292003155,0.07214199751615524
1788107825714361900,10.13136181640625,0.03052300028502941,0.17407900094985962,-0.19246900081634521
1788107825724451300,10.141451416015625,-0.16738900542259216,0.2696009874343872,-0.5114529728889465
1788107825734545200,10.151545166015625,-0.3329949975013733,0.314657986164093,-0.655892014503479
1788107825744635100,10.16163525390625,-0.45805299282073975,0.33737799525260925,-0.49924400448799133
1788107825754728000,10.17172802734375,-0.3528069853782654,0.38670000433921814,-0.29321199655532837
1788107825764817400,10.1818173828125,-0.08896999806165695,0.4631879925727844,-0.18287299573421478
1788107825774910000,10.191909912109375,0.2362000048160553,0.5884100198745728,-0.10142000019550323
1788107825784995300,10.201995361328125,0.22938300669193268,0.6392750144004822,-0.07904700189828873
1788107825795090400,10.21209033203125,0.291032999753952,0.6153389811515808,-0.1347779929637909
1788107825805174800,10.2221748046875,0.2651669979095459,0.6096799969673157,0.07068099826574326
1788107825815263500,10.232263427734376,0.44568100571632385,0.6714209914207458,0.1072700023651123
1788107825825351000,10.242350830078125,0.6373550295829773,0.6565330028533936,0.0351330004632473
1788107825835440400,10.2524404296875,0.7447680234909058,0.5456159710884094,-0.004670000169426203
1788107825845521000,10.26252099609375,0.861100971698761,0.1843850016593933,0.07367700338363647
1788107825855611400,10.272611328125,0.8443700075149536,0.04838300123810768,0.14457499980926514
1788107825865701400,10.282701416015625,0.686115026473999,0.14668899774551392,0.0861390009522438
1788107825875794000,10.2927939453125,0.4051159918308258,0.1413249969482422,0.020277999341487885
1788107825885884400,10.302884521484375,0.3103010058403015,0.009778999723494053,0.046640001237392426
1788107825895973000,10.31297314453125,0.06522200256586075,0.050912998616695404,0.04340000078082085
1788107825906054100,10.32305419921875,-0.040720000863075256,-0.0007609999738633633,-0.05559699982404709
1788107825916147000,10.33314697265625,-0.166376993060112,-0.07514700293540955,-0.14871500432491302
1788107825926238000,10.343238037109375,-0.3541699945926666,-0.15901100635528564,-0.31027498841285706
1788107825936337400,10.35333740234375,-0.5627080202102661,-0.27430999279022217,-0.3623200058937073
1788107825946431500,10.363431396484375,-0.6964010000228882,-0.2711170017719269,-0.5070040225982666
1788107825956524300,10.373524169921875,-0.7792279720306396,-0.3377160131931305,-0.6510319709777832
1788107825966612200,10.3836123046875,-0.8282999992370605,-0.47237101197242737,-0.7712879776954651
1788107825976697600,10.393697509765625,-0.7044649720191956,-0.702455997467041,-0.6697720289230347
1788107825986787000,10.403787109375,-0.6498379707336426,-0.8078029751777649,-0.4697139859199524
1788107825996876800,10.413876708984375,-0.5097450017929077,-0.8110949993133545,-0.23854699730873108
1788107826006977800,10.423977783203124,-0.34439799189567566,-0.814503014087677,-0.08360899984836578
1788107826017070600,10.434070556640625,-0.32967400550842285,-0.6762160062789917,-0.26892900466918945
1788107826027158000,10.444157958984375,-0.4168899953365326,-0.638418972492218,-0.4216639995574951
1788107826037250800,10.454250732421874,-0.529865026473999,-0.4413509964942932,-0.557092010974884
1788107826047337000,10.4643369140625,-0.6680439710617065,-0.3396739959716797,-0.6240170001983643
1788107826057428200,10.47442822265625,-0.7738789916038513,-0.41631799936294556,-0.5420899987220764
1788107826067511800,10.48451171875,-0.6260640025138855,-0.5823259949684143,-0.09226500242948532
1788107826077603600,10.494603515625,-0.28878799080848694,-0.4949609935283661,0.13241900503635406
1788107826087701000,10.504700927734374,0.01678900048136711,-0.45822998881340027,0.016995999962091446
1788107826097787400,10.514787353515626,0.1357550024986267,-0.3577379882335663,-0.17052899301052094
1788107826107872500,10.52487255859375,0.07271400094032288,-0.18561600148677826,-0.2486959993839264
1788107826117960200,10.534960205078125,-0.04045899957418442,-0.32199299335479736,-0.2453089952468872
1788107826128046000,10.545046142578125,-0.26467499136924744,-0.2715519964694977,-0.13559800386428833
1788107826138145300,10.555145263671875,-0.29165399074554443,-0.4447619915008545,0.06362999975681305
1788107826148243500,10.565243408203125,-0.13382700085639954,-0.530597984790802,0.25902900099754333
1788107826158329300,10.575329345703125,-0.016736000776290894,-0.5547900199890137,0.29129400849342346
1788107826168417000,10.5854169921875,0.019439000636339188,-0.3709389865398407,0.1501699984073639
1788107826178509800,10.595509765625,-0.09063100069761276,-0.09673000127077103,-0.0892300009727478
1788107826188599800,10.605599853515624,-0.5083519816398621,0.16572999954223633,-0.5511429905891418
1788107826198695700,10.61569580078125,-1.1113590002059937,0.40125900506973267,-0.9718999862670898
1788107826208788700,10.625788818359375,-1.3462090492248535,0.548861026763916,-1.0601489543914795
1788107826218874400,10.635874267578124,-1.6252139806747437,0.3633579909801483,-0.9716449975967407
1788107826228962000,10.645962158203124,-1.4015129804611206,0.07042499631643295,-0.40122801065444946
1788107826239042300,10.656042236328124,-0.748773992061615,0.13726599514484406,-0.01358299981802702
1788107826249131300,10.66613134765625,-0.007400000002235174,0.2516629993915558,-0.020168999210000038
1788107826259216600,10.676216552734376,0.4494059979915619,0.17746199667453766,-0.10852500051259995
1788107826269308700,10.68630859375,0.7935609817504883,0.20496800541877747,-0.17096999287605286
1788107826279392500,10.696392578125,0.7706940174102783,0.03080200031399727,-0.25435298681259155
1788107826289481500,10.7064814453125,0.7921130061149597,0.05840599909424782,-0.07781700044870377
1788107826299563000,10.71656298828125,0.842091977596283,0.02236800082027912,0.24029700458049774
1788107826309652200,10.72665234375,0.8254160284996033,-0.012488000094890594,0.5162659883499146
1788107826319735800,10.73673583984375,0.8745480179786682,-0.027838999405503273,0.7573339939117432
1788107826329828000,10.746828125,0.9909849762916565,0.021720999851822853,0.9569979906082153
1788107826339913500,10.75691357421875,1.1153099536895752,-0.10566999763250351,1.0273079872131348
1788107826350002700,10.767002685546874,0.9523630142211914,-0.35808101296424866,0.9298440217971802
1788107826360091400,10.77709130859375,0.539749026298523,-0.11105100065469742,0.6875569820404053
1788107826370181000,10.78718115234375,0.06846900284290314,0.3127099871635437,0.21189099550247192
1788107826380266500,10.7972666015625,-0.5836920142173767,0.43282800912857056,-0.466484010219574
1788107826390357200,10.807357177734374,-1.7013330459594727,0.4359689950942993,-0.8988980054855347
1788107826400436000,10.81743603515625,-2.245966911315918,0.5005840063095093,-0.9159250259399414
1788107826410529500,10.827529541015625,-2.0451929569244385,0.4944239854812622,-0.746209979057312
1788107826420612400,10.8376123046875,-1.381363034248352,0.07142700254917145,-0.3275409936904907
1788107826430703600,10.84770361328125,-0.514428973197937,-0.3545930087566376,0.04599300026893616
1788107826440781300,10.85778125,0.1150590032339096,-0.34172698855400085,0.08578500151634216
1788107826450868700,10.86786865234375,0.37126100063323975,-0.22872799634933472,-0.15395000576972961
1788107826460951600,10.87795166015625,0.3219980001449585,0.12439700216054916,-0.7659900188446045
1788107826471036700,10.88803662109375,-0.16362200677394867,0.3964479863643646,-1.2188769578933716
1788107826481131000,10.898131103515626,-0.8757110238075256,0.5331659913063049,-1.2249939441680908
1788107826491229000,10.90822900390625,-1.0338129997253418,0.1360280066728592,-0.47701600193977356
1788107826501325000,10.918324951171876,-0.8200600147247314,-0.3057290017604828,0.6974350214004517
1788107826511416300,10.928416259765624,-0.03881499916315079,-0.4840160012245178,1.5254859924316406
1788107826521497600,10.93849755859375,0.9999520182609558,-0.4015269875526428,1.4049869775772095
1788107826531581000,10.948580810546876,1.523682951927185,-0.12509199976921082,0.5928040146827698
1788107826541671200,10.958671142578124,1.0565600395202637,-0.022068999707698822,-0.4510990083217621
1788107826551760000,10.968759765625,0.3725920021533966,-0.35010600090026855,-0.724403977394104
1788107826561846000,10.978845947265626,-0.07526600360870361,-0.6431990265846252,-0.011489000171422958
1788107826571937500,10.9889375,-0.3407309949398041,-0.7915449738502502,0.5766170024871826
1788107826582027800,10.99902783203125,-0.3931269943714142,-0.45781901478767395,0.9709360003471375
1788107826592114200,11.0091142578125,-0.4550600051879883,-0.5769100189208984,0.7538449764251709
1788107826602212000,11.019212158203125,-0.6377930045127869,-0.3634360134601593,0.2591229975223541
1788107826612302800,11.029302734375,-0.8280779719352722,-0.4060949981212616,-0.22155100107192993
1788107826622398200,11.039398193359375,-1.3958970308303833,-0.0494379997253418,-0.5573070049285889
1788107826632486400,11.049486328125,-1.9527959823608398,0.19335299730300903,-0.9013559818267822
1788107826642579500,11.059579345703124,-2.350084066390991,0.18101400136947632,-0.882427990436554
1788107826652665600,11.06966552734375,-2.0357539653778076,0.0013589999871328473,-0.5860339999198914
1788107826662764000,11.079763916015626,-1.46321702003479,-0.2673490047454834,-0.03051000088453293
1788107826672850000,11.089849853515625,-0.4866189956665039,-0.20043200254440308,0.24466200172901154
1788107826682941200,11.099941162109374,0.40996500849723816,-0.07066799700260162,-0.043981000781059265
1788107826693062700,11.110062744140626,0.8421289920806885,-0.3508250117301941,-0.11389400064945221
1788107826703148800,11.120148681640625,0.9803659915924072,-0.7175970077514648,0.35086899995803833
1788107826713244700,11.13024462890625,0.9455770254135132,-0.6721619963645935,0.6986560225486755
1788107826723341000,11.140341064453125,0.9206979870796204,-0.31061598658561707,0.41475701332092285
1788107826733426400,11.150426513671874,0.661532998085022,-0.004149000160396099,-0.11674399673938751
1788107826743507700,11.1605078125,0.24266399443149567,0.11250399798154831,-0.3472149968147278
1788107826753598200,11.17059814453125,0.08487000316381454,-0.32618001103401184,0.15863999724388123
1788107826763691800,11.18069189453125,0.13105200231075287,-0.7670149803161621,0.9230009913444519
1788107826773783800,11.19078369140625,0.6033260226249695,-0.4506550133228302,0.9641100168228149
1788107826783873300,11.200873291015625,0.920661985874176,-0.07428000122308731,0.34781399369239807
1788107826793962500,11.21096240234375,0.5550649762153625,-0.027736999094486237,-0.04034600034356117
1788107826804051500,11.221051513671876,-0.20700900256633759,0.1407890021800995,-0.30579298734664917
1788107826814145500,11.2311455078125,-0.8987650275230408,0.09438099712133408,-0.18720699846744537
1788107826824239600,11.241239501953125,-1.1737200021743774,-0.1793680042028427,0.12650500237941742
1788107826834331000,11.251330810546875,-0.9306640028953552,-0.3118720054626465,0.4184640049934387
1788107826844421400,11.26142138671875,-0.38662898540496826,0.01984800025820732,0.3019390106201172
1788107826854517800,11.271517822265626,0.13627099990844727,0.2629129886627197,-0.10040699690580368
1788107826864612600,11.281612548828125,0.07789699733257294,0.2572309970855713,-0.4115090072154999
1788107826874717200,11.29171728515625,-0.32552099227905273,0.4208090007305145,-0.25809499621391296
1788107826884798500,11.301798583984375,-0.6310939788818359,0.18190999329090118,-0.09335099905729294
1788107826894909200,11.3119091796875,-0.4814859926700592,0.29855799674987793,0.14471499621868134
1788107826905005800,11.322005859375,-0.2702600061893463,0.36757001280784607,0.40611299872398376
1788107826915102000,11.33210205078125,0.07179100066423416,0.8157280087471008,0.13878299295902252
1788107826925186300,11.342186279296875,0.43431898951530457,0.8844550251960754,-0.21058300137519836
1788107826935285500,11.352285400390626,0.4285140037536621,0.6753600239753723,-0.1951189935207367
1788107826945363500,11.362363525390625,0.49170199036598206,0.39541399478912354,0.28615298867225647
1788107826955447600,11.372447509765625,0.7325050234794617,0.2815999984741211,0.6103230118751526
1788107826965530600,11.382530517578125,1.2794519662857056,0.48496800661087036,0.686909019947052
1788107826975621600,11.39262158203125,1.4513640403747559,0.6303880214691162,0.41453200578689575
1788107826985701600,11.40270166015625,1.117784023284912,0.624550998210907,0.013996999710798264
1788107826995787000,11.412787109375,0.9841489791870117,0.39058101177215576,0.056866999715566635
1788107827005874400,11.42287451171875,0.9336689710617065,0.25418099761009216,0.1727519929409027
1788107827015967700,11.4329677734375,0.6136929988861084,0.12629899382591248,0.387594997882843
1788107827026052900,11.443052978515626,0.478206992149353,0.2529880106449127,0.5856559872627258
1788107827036145000,11.453144775390625,0.5702300071716309,0.33245599269866943,0.4832310080528259
1788107827046232800,11.46323291015625,0.3283059895038605,0.16873799264431,0.37036898732185364
1788107827056320500,11.473320556640624,-0.05659500136971474,0.4169999957084656,0.040359001606702805
1788107827066407400,11.483407470703124,-0.5568469762802124,0.7690209746360779,-0.6337339878082275
1788107827076491500,11.493491455078125,-1.2231299877166748,0.7945359945297241,-0.9807800054550171
1788107827086578200,11.503578125,-1.3759410381317139,0.548022985458374,-0.7308459877967834
1788107827096672300,11.51367236328125,-0.950098991394043,0.11678999662399292,0.04495299980044365
1788107827106764500,11.5237646484375,-0.06193999946117401,-0.03515399992465973,0.6013100147247314
1788107827116849400,11.533849365234374,0.4760409891605377,0.3470950126647949,0.11232700198888779
1788107827126943500,11.543943603515626,0.7588030099868774,0.3282589912414551,-0.5417670011520386
1788107827137030000,11.55402978515625,0.27454400062561035,-0.04055200144648552,-0.6504979729652405
1788107827147116500,11.564116455078125,0.059220001101493835,-0.1332170069217682,-0.3850100040435791
1788107827157195500,11.574195556640625,-0.16962100565433502,-0.0026469998992979527,-0.2814379930496216
1788107827167287800,11.584287841796876,-0.5145050287246704,0.48799899220466614,-0.8023549914360046
1788107827177379800,11.5943798828125,-1.010213017463684,1.0048270225524902,-1.4457000494003296
1788107827187464700,11.604464599609376,-1.369299054145813,1.3782249689102173,-1.7804100513458252
1788107827197551900,11.6145517578125,-1.7100969552993774,1.7475520372390747,-1.8103829622268677
1788107827207643600,11.6246435546875,-1.5574229955673218,1.592529058456421,-1.5082980394363403
1788107827217734400,11.634734375,-1.430987000465393,1.1572530269622803,-0.8230029940605164
1788107827227866400,11.644866455078125,-0.6282690167427063,0.4991999864578247,0.2448820024728775
1788107827237963500,11.654963623046875,0.7798349857330322,-0.061441998928785324,1.4152990579605103
1788107827248054500,11.665054443359375,2.0579299926757812,-0.13271300494670868,1.8943500518798828
1788107827258142500,11.675142578125,2.8355510234832764,-0.01116899959743023,1.589622974395752
1788107827268233700,11.685233642578124,2.5440449714660645,-0.07904200255870819,0.7393069863319397
1788107827278321200,11.695321044921876,1.030150055885315,-0.07759100198745728,0.082007996737957
1788107827288414500,11.70541455078125,-0.5036799907684326,0.11758899688720703,0.03466400131583214
1788107827298512100,11.71551220703125,-1.7778029441833496,0.3208029866218567,-0.10230600088834763
1788107827308608500,11.7256083984375,-2.119374990463257,0.4559279978275299,-0.1110989972949028
1788107827318697000,11.735697021484375,-1.9467250108718872,0.297885000705719,0.056345999240875244
1788107827328780000,11.745780029296874,-1.1175830364227295,-0.06872300058603287,0.45523399114608765
1788107827338862600,11.755862548828125,-0.4893920123577118,-0.38489100337028503,0.6313210129737854
1788107827348948000,11.765947998046874,-0.2711699903011322,-0.34979701042175293,0.2001200020313263
1788107827359033300,11.776033447265625,-0.6120550036430359,0.08711200207471848,-0.7058870196342468
1788107827369143800,11.786143798828125,-1.2771129608154297,0.2359369993209839,-1.315606951713562
1788107827379222000,11.796221923828124,-1.4122719764709473,0.061831001192331314,-1.3128479719161987
1788107827389313800,11.806313720703125,-1.713008999824524,-0.08273199945688248,-0.6349890232086182
1788107827399398100,11.816398193359374,-1.8973139524459839,0.03375599905848503,-0.15915100276470184
1788107827409485600,11.826485595703126,-2.435697078704834,0.8478540182113647,-0.5095739960670471
1788107827419574800,11.83657470703125,-0.8336750268936157,0.8626570105552673,-0.9242709875106812
1788107827429659600,11.84665966796875,0.0629199966788292,1.233916997909546,-1.5691050291061401
1788107827439747000,11.8567470703125,0.7586029767990112,-0.3142859935760498,-0.4898340106010437
1788107827449835300,11.866835205078125,1.6264129877090454,-1.299805998802185,1.2771309614181519
1788107827459913200,11.876913330078125,3.398519992828369,-1.2545360326766968,2.5058250427246094
1788107827470001400,11.88700146484375,4.78734016418457,-0.9633579850196838,2.3386640548706055
1788107827480091400,11.89709130859375,4.3958940505981445,-0.7900149822235107,1.152927041053772
1788107827490164500,11.90716455078125,2.6432809829711914,-1.0503829717636108,0.24190400540828705
1788107827500262700,11.9172626953125,0.2597770094871521,-1.3060740232467651,0.2507149875164032
1788107827510350800,11.927350830078124,-1.6809070110321045,-1.0910040140151978,0.37901800870895386
1788107827520434700,11.9374345703125,-3.032805919647217,-0.3323589861392975,-0.1398490071296692
1788107827530523400,11.9475234375,-3.622562885284424,0.06349299848079681,-0.6955209970474243
1788107827540615400,11.957615478515624,-3.557624101638794,0.46120500564575195,-1.0043879747390747
1788107827550702000,11.9677021484375,-3.1348249912261963,0.8306909799575806,-0.9743779897689819
1788107827560794600,11.977794677734375,-2.374690055847168,0.7652879953384399,-0.6402270197868347
1788107827570888700,11.987888671875,-1.7201999425888062,0.40351998805999756,-0.11347799748182297
1788107827580972300,11.99797216796875,-0.6662769913673401,0.3125759959220886,0.33938199281692505
1788107827591056100,12.00805615234375,0.22084300220012665,0.34446099400520325,0.36959800124168396
1788107827601135000,12.018135009765626,0.9655389785766602,-0.09267999976873398,0.2902950048446655
1788107827611222300,12.02822216796875,1.4470380544662476,-0.8016819953918457,0.7154170274734497
1788107827621316400,12.03831640625,1.8118929862976074,-1.1881450414657593,1.2056360244750977
1788107827631408000,12.048408203125,1.8571549654006958,-0.871222972869873,1.0000770092010498
1788107827641501400,12.05850146484375,1.6874459981918335,-0.042162999510765076,-0.12872600555419922
1788107827651577300,12.068577392578124,0.8152880072593689,0.32941800355911255,-1.0560319423675537
1788107827661676500,12.078676513671875,-0.1746719926595688,0.3126539885997772,-0.804423987865448
1788107827671752200,12.088752197265626,-0.5756959915161133,0.06174600124359131,0.2664789855480194
1788107827681881900,12.0988818359375,-0.24619899690151215,-0.09111600369215012,1.1493949890136719
1788107827691967200,12.10896728515625,0.38233301043510437,0.39587700366973877,0.9805790185928345
1788107827702054100,12.11905419921875,0.9424920082092285,0.9345970153808594,0.22405900061130524
1788107827712146400,12.129146484375,0.8046110272407532,0.9538699984550476,-0.4225809872150421
1788107827722234600,12.139234619140625,0.6328120231628418,-0.08833000063896179,0.11338700354099274
1788107827732322000,12.149322021484375,0.22303099930286407,-1.1593290567398071,1.3896249532699585
1788107827742417700,12.159417724609375,0.37143999338150024,-1.1666259765625,1.6757479906082153
1788107827752559000,12.16955908203125,0.6756680011749268,-0.41701000928878784,0.9009510278701782
1788107827762652700,12.179652587890626,0.4210819900035858,0.5806400179862976,-0.9725589752197266
1788107827772745200,12.1897451171875,-0.6620919704437256,1.0683729648590088,-2.4588820934295654
1788107827782837000,12.1998369140625,-1.970363974571228,0.6653770208358765,-2.399617910385132
1788107827792916500,12.20991650390625,-2.9417989253997803,0.25339099764823914,-1.6017680168151855
1788107827803012000,12.22001220703125,-3.1040210723876953,0.6141359806060791,-0.6615809798240662
1788107827813097700,12.23009765625,-1.8225359916687012,0.5881320238113403,0.010103000327944756
1788107827823185700,12.240185546875,-0.17468799650669098,0.03968999907374382,0.698140025138855
1788107827833265700,12.250265625,1.917876958847046,-0.5973910093307495,1.5947870016098022
1788107827843355000,12.26035498046875,3.3484179973602295,-0.9581080079078674,2.027194023132324
1788107827853439700,12.270439697265624,3.8787810802459717,-0.9192469716072083,1.6103119850158691
1788107827863543600,12.28054345703125,3.3760221004486084,-0.6457930207252502,0.4836150109767914
1788107827873627100,12.290627197265625,1.6197110414505005,-0.4718419909477234,-0.454257994890213
1788107827883717600,12.300717529296875,-0.1043580025434494,-0.17657199501991272,-0.48279500007629395
1788107827893802500,12.310802490234375,-1.183527946472168,0.09884800016880035,-0.30902099609375
1788107827903893000,12.32089306640625,-1.1974619626998901,0.24939200282096863,0.03773000091314316
1788107827913981400,12.3309814453125,-0.4715630114078522,0.27663201093673706,0.2949329912662506
1788107827924073700,12.34107373046875,0.6668990254402161,0.2034890055656433,0.5488010048866272
1788107827934155800,12.35115576171875,1.1648880243301392,0.5719649791717529,0.47526299953460693
1788107827944249000,12.3612490234375,1.058218002319336,1.1043729782104492,-0.10088499635457993
1788107827954338600,12.371338623046874,0.5605480074882507,1.0874040126800537,-0.6758660078048706
1788107827964437500,12.3814375,-0.08649300038814545,0.9675809741020203,-0.5680599808692932
1788107827974519000,12.39151904296875,-0.3207719922065735,0.9101020097732544,-0.13415299355983734
1788107827984600300,12.401600341796875,-0.10113199800252914,1.0069719552993774,0.22012700140476227
1788107827994684200,12.41168408203125,0.5494970083236694,1.273084044456482,0.1155330017209053
1788107828004779000,12.421779052734376,0.9709129929542542,1.184664011001587,-0.08610200136899948
1788107828014870000,12.4318701171875,1.2391220331192017,0.4676760137081146,0.328902006149292
1788107828024965400,12.44196533203125,1.372041940689087,0.4850749969482422,0.7224569916725159
1788107828035050000,12.452050048828125,1.4023540019989014,1.0105730295181274,0.15104100108146667
1788107828045146400,12.462146484375,0.861860990524292,0.7357050180435181,-0.4557250142097473
1788107828055239400,12.472239501953124,0.4526920020580292,0.3084689974784851,-0.3031559884548187
1788107828065332700,12.482332763671875,0.15276400744915009,-0.05031000077724457,0.10969100147485733
1788107828075414500,12.49241455078125,-0.18523800373077393,-0.282382994890213,0.12300299853086472
1788107828085506800,12.5025068359375,-0.36371299624443054,-0.2759360074996948,-0.37839099764823914
1788107828095592400,12.512592529296874,-1.292464017868042,-0.23480799794197083,-0.9402379989624023
1788107828105687800,12.522687744140624,-1.8154449462890625,-0.275287002325058,-1.2118109464645386
1788107828115774000,12.53277392578125,-2.2222249507904053,-0.5753690004348755,-1.1954749822616577
1788107828125862100,12.542862060546875,-2.5534350872039795,-1.1012450456619263,-0.947035014629364
1788107828135950000,12.5529501953125,-2.2170939445495605,-1.8067389726638794,-0.35912400484085083
1788107828146040800,12.563040771484374,-1.6296099424362183,-2.381277084350586,0.16601499915122986
1788107828156129300,12.57312939453125,-1.1849080324172974,-2.817905902862549,0.25632399320602417
1788107828166209300,12.583209228515624,-1.0602890253067017,-2.771573066711426,-0.1624930053949356
1788107828176299500,12.593299560546875,-1.635707974433899,-2.3715970516204834,-1.0876630544662476
1788107828186395100,12.60339501953125,-2.596869945526123,-2.1700069904327393,-1.8924590349197388
1788107828196490000,12.613489990234376,-3.5297329425811768,-2.538814067840576,-1.9485410451889038
1788107828206586400,12.62358642578125,-4.141120910644531,-2.7048609256744385,-1.4956929683685303
1788107828216672000,12.633672119140625,-3.172010898590088,-2.786073923110962,-1.1267859935760498
1788107828226766800,12.643766845703125,-3.0021209716796875,-1.8025729656219482,-0.5480380058288574
1788107828236854000,12.65385400390625,-2.014836072921753,-0.7663739919662476,-0.6186559796333313
1788107828246945500,12.663945556640625,-1.619974970817566,0.23830200731754303,-1.5559990406036377
1788107828257031400,12.674031494140625,-1.4974119663238525,0.16374699771404266,-2.1718409061431885
1788107828267126800,12.684126708984374,-1.5500919818878174,-0.6970710158348083,-1.6850579977035522
1788107828277212700,12.694212646484376,-1.504040002822876,-0.7712720036506653,-0.6046079993247986
1788107828287296500,12.704296630859375,-0.9430869817733765,-0.2963869869709015,-0.0334709994494915
1788107828297388300,12.71438818359375,0.23090499639511108,-0.22465099394321442,0.45536598563194275
1788107828307471400,12.724471435546874,1.6361759901046753,-0.21967999637126923,0.9466270208358765
1788107828317559600,12.7345595703125,2.9175009727478027,-0.6805890202522278,1.448330044746399
1788107828327652400,12.74465234375,3.525041103363037,-0.8313909769058228,1.412647008895874
1788107828337741800,12.754741943359376,3.704926013946533,-0.44968700408935547,0.867913007736206
1788107828347828700,12.764828857421875,3.4070799350738525,0.014437000267207623,0.43935999274253845
1788107828357913300,12.774913330078125,1.5332900285720825,0.2992570102214813,0.9549019932746887
1788107828368006100,12.785006103515625,1.7152140140533447,-0.10399899631738663,-0.027600999921560287
1788107828378097700,12.79509765625,1.8979979753494263,0.4855920076370239,0.6923329830169678
1788107828388180000,12.805179931640625,1.4892159700393677,0.8155050277709961,1.0222480297088623
