time,seconds_elapsed,z,y,x
1788107815710755800,0.127755859375,7.361098766326904,6.468091011047363,0.13433699309825897
1788107815720848600,0.1378486328125,7.3574137687683105,6.472139835357666,0.14090199768543243
1788107815730945500,0.147945556640625,7.355971813201904,6.47367000579834,0.14606299996376038
1788107815741032700,0.15803271484375,7.371297836303711,6.455679893493652,0.16788800060749054
1788107815751119000,0.168119140625,7.375712871551514,6.45042610168457,0.17574000358581543
1788107815761214200,0.178214111328125,7.393783092498779,6.429605960845947,0.17912399768829346
1788107815771309300,0.188309326171875,7.413577079772949,6.406827926635742,0.17741000652313232
1788107815781406500,0.198406494140625,7.434815883636475,6.38252592086792,0.16400699317455292
1788107815791497200,0.208497314453125,7.45798921585083,6.3559651374816895,0.14199699461460114
1788107815801589500,0.218589599609375,7.483739852905273,6.32626485824585,0.10971800237894058
1788107815811685000,0.22868505859375,7.512910842895508,6.29219388961792,0.06640999764204025
1788107815821778700,0.23877880859375,7.543056011199951,6.256364822387695,0.013700000010430813
1788107815841966600,0.258966552734375,7.602190017700195,6.182329177856445,-0.15975800156593323
1788107815862143700,0.279143798828125,7.6825270652771,6.073180198669434,-0.36775699257850647
1788107815872240600,0.28924072265625,7.733413219451904,6.001783847808838,-0.4614109992980957
1788107815882335200,0.299335205078125,7.786655902862549,5.924755096435547,-0.5524629950523376
1788107815892426200,0.30942626953125,7.85107421875,5.83220911026001,-0.6212400197982788
1788107815902525200,0.319525146484375,7.919267177581787,5.732117176055908,-0.684149980545044
1788107815912618200,0.3296181640625,7.984043121337891,5.634521961212158,-0.7397519946098328
1788107815922705400,0.339705322265625,8.044511795043945,5.542602062225342,-0.7781059741973877
1788107815932801500,0.349801513671875,8.099769592285156,5.457368850708008,-0.8067640066146851
1788107815942897400,0.3598974609375,8.145626068115234,5.382965087890625,-0.8440380096435547
1788107815952982300,0.369982177734375,8.18311882019043,5.323526859283447,-0.858260989189148
1788107815963075600,0.38007568359375,8.209503173828125,5.284800052642822,-0.8456000089645386
1788107815973160000,0.390159912109375,8.221902847290039,5.272512912750244,-0.8005430102348328
1788107815983250400,0.40025048828125,8.218829154968262,5.28844690322876,-0.7233080267906189
1788107815993342200,0.41034228515625,8.202190399169922,5.327225208282471,-0.6202920079231262
1788107816003431700,0.420431640625,8.174636840820312,5.382143974304199,-0.4978089928627014
1788107816013515500,0.430515625,8.14050006866455,5.444515228271484,-0.3599439859390259
1788107816023609000,0.440609130859375,8.10229778289795,5.508841037750244,-0.213236004114151
1788107816033698800,0.45069873046875,8.059383392333984,5.575153827667236,-0.06328000128269196
1788107816043794200,0.460794189453125,8.013590812683105,5.640594959259033,0.07765299826860428
1788107816053878000,0.4708779296875,7.966551780700684,5.703304767608643,0.21519500017166138
1788107816063974100,0.48097412109375,7.921517848968506,5.7597479820251465,0.33892300724983215
1788107816074064600,0.491064697265625,7.88198184967041,5.806336879730225,0.44805601239204407
1788107816084154600,0.501154541015625,7.848933219909668,5.841230869293213,0.5605859756469727
1788107816094245000,0.5112451171875,7.820710182189941,5.864890098571777,0.6924960017204285
1788107816104341200,0.52134130859375,7.795743942260742,5.878950119018555,0.8392339944839478
1788107816114421800,0.531421875,7.774884223937988,5.885156154632568,0.9777969717979431
1788107816124519200,0.541519287109375,7.760983943939209,5.882823944091797,1.0952270030975342
1788107816134608100,0.551608154296875,7.770956039428711,5.861306190490723,1.1389880180358887
1788107816144695300,0.5616953125,7.793114185333252,5.826809883117676,1.1643290519714355
1788107816154793700,0.571793701171875,7.8276047706604,5.778873920440674,1.1718239784240723
1788107816164887000,0.581886962890625,7.872657775878906,5.718533039093018,1.166051983833313
1788107816174976300,0.591976318359375,7.916219234466553,5.654458999633789,1.1834460496902466
1788107816185070800,0.60207080078125,7.952614784240723,5.594225883483887,1.2249850034713745
1788107816195161900,0.612161865234375,7.981390953063965,5.542631149291992,1.2714699506759644
1788107816205253400,0.62225341796875,8.00383186340332,5.502001762390137,1.3063830137252808
1788107816215344600,0.6323447265625,8.020185470581055,5.473038196563721,1.3275710344314575
1788107816225436700,0.642436767578125,8.030757904052734,5.45540714263916,1.336205005645752
1788107816235523000,0.652523193359375,8.037677764892578,5.447239875793457,1.3279099464416504
1788107816245622500,0.66262255859375,8.041357040405273,5.446619033813477,1.3080320358276367
1788107816255712500,0.67271240234375,8.040587425231934,5.450679779052734,1.295773983001709
1788107816265809400,0.682809326171875,8.036256790161133,5.457287788391113,1.294814944267273
1788107816275897900,0.69289794921875,8.029088020324707,5.465465068817139,1.3047840595245361
1788107816285993000,0.702992919921875,8.019606590270996,5.47576904296875,1.3197959661483765
1788107816296079400,0.713079345703125,8.012316703796387,5.485058784484863,1.325484037399292
1788107816306164500,0.72316455078125,8.010091781616211,5.490009784698486,1.318405032157898
1788107816316247300,0.733247314453125,8.01379680633545,5.487975120544434,1.3043049573898315
1788107816326340000,0.743340087890625,8.02159309387207,5.479887962341309,1.290297031402588
1788107816336429000,0.753428955078125,8.031721115112305,5.467714786529541,1.2788970470428467
1788107816346523000,0.76352294921875,8.044182777404785,5.453426837921143,1.2614539861679077
1788107816356613600,0.773613525390625,8.05737590789795,5.438910961151123,1.2397340536117554
1788107816366713000,0.783713134765625,8.06845760345459,5.426294803619385,1.2228260040283203
1788107816376801000,0.793801025390625,8.076050758361816,5.417271137237549,1.2126619815826416
1788107816386896000,0.803895751953125,8.080876350402832,5.4128570556640625,1.2001700401306152
1788107816396991700,0.81399169921875,8.08404541015625,5.4103779792785645,1.1899670362472534
1788107816407090200,0.824090087890625,8.08479118347168,5.410307884216309,1.1852129697799683
1788107816417178600,0.8341787109375,8.083024024963379,5.4130401611328125,1.1847870349884033
1788107816427273500,0.8442734375,8.078645706176758,5.419456958770752,1.1852869987487793
1788107816437362200,0.854362060546875,8.079384803771973,5.421119213104248,1.1725900173187256
1788107816447456300,0.864456298828125,8.087889671325684,5.415256977081299,1.140599012374878
1788107816457541600,0.874541748046875,8.100564956665039,5.403004169464111,1.1083439588546753
1788107816467632000,0.884632080078125,8.111900329589844,5.390265941619873,1.0872620344161987
1788107816477713700,0.894713623046875,8.119417190551758,5.381033897399902,1.0768100023269653
1788107816487801300,0.90480126953125,8.122186660766602,5.377564907073975,1.0732530355453491
1788107816497885400,0.914885498046875,8.120293617248535,5.380667209625244,1.072026014328003
1788107816507969300,0.92496923828125,8.114704132080078,5.389625072479248,1.0693559646606445
1788107816518053400,0.935053466796875,8.106454849243164,5.401790142059326,1.070559024810791
1788107816528144400,0.945144287109375,8.096132278442383,5.41566801071167,1.078510046005249
1788107816538225400,0.955225341796875,8.08390998840332,5.431049823760986,1.0927350521087646
1788107816548310000,0.96531005859375,8.070805549621582,5.4470062255859375,1.110031008720398
1788107816558391600,0.9753916015625,8.057788848876953,5.462488174438477,1.1284070014953613
1788107816568480500,0.98548046875,8.04601001739502,5.477582931518555,1.139233946800232
1788107816578569200,0.9955693359375,8.03636360168457,5.490984916687012,1.1427719593048096
1788107816588663000,1.0056630859375,8.027399063110352,5.504458904266357,1.1409759521484375
1788107816598747600,1.01574755859375,8.018744468688965,5.517518997192383,1.1387239694595337
1788107816608837600,1.025837646484375,8.009021759033203,5.531542778015137,1.1391210556030273
1788107816618922200,1.035922119140625,7.998274803161621,5.546693801879883,1.1409529447555542
1788107816629011500,1.046011474609375,7.986508846282959,5.563159942626953,1.1431989669799805
1788107816639093000,1.056093017578125,7.974526882171631,5.579333782196045,1.1480189561843872
1788107816649182000,1.066181884765625,7.962672233581543,5.595116138458252,1.1534960269927979
1788107816659265800,1.076265869140625,7.951436996459961,5.6096601486206055,1.1603310108184814
1788107816669348400,1.086348388671875,7.939878940582275,5.624648094177246,1.1668930053710938
1788107816679433200,1.09643310546875,7.927703857421875,5.6404500007629395,1.1733759641647339
1788107816689518000,1.10651806640625,7.914878845214844,5.6573262214660645,1.1787229776382446
1788107816699592400,1.116592529296875,7.902259826660156,5.674145221710205,1.1825400590896606
1788107816709678300,1.12667822265625,7.8904128074646,5.689908981323242,1.1858949661254883
1788107816719757600,1.136757568359375,7.880341053009033,5.703403949737549,1.1880220174789429
1788107816729854500,1.1468544921875,7.871985912322998,5.714899063110352,1.188146948814392
1788107816739936800,1.156936767578125,7.863652229309082,5.725244998931885,1.1935670375823975
1788107816750032100,1.1670322265625,7.854849815368652,5.732848167419434,1.2147959470748901
1788107816760113400,1.177113525390625,7.852491855621338,5.735878944396973,1.2157529592514038
1788107816770206500,1.18720654296875,7.856896877288818,5.733252048492432,1.1995840072631836
1788107816780300500,1.197300537109375,7.866294860839844,5.725510120391846,1.1747009754180908
1788107816790387200,1.20738720703125,7.877956867218018,5.715002059936523,1.1473959684371948
1788107816800481500,1.2174814453125,7.888276100158691,5.705169200897217,1.1252249479293823
1788107816810572300,1.227572265625,7.895937919616699,5.696601867675781,1.1148420572280884
1788107816820663800,1.237663818359375,7.897674083709717,5.6946492195129395,1.1125320196151733
1788107816830746600,1.24774658203125,7.892905235290527,5.7004828453063965,1.1164970397949219
1788107816840842200,1.25784228515625,7.883872032165527,5.71140718460083,1.1244479417800903
1788107816850931700,1.267931640625,7.873011112213135,5.725257873535156,1.130081057548523
1788107816861025800,1.27802587890625,7.862185001373291,5.740472793579102,1.1282709836959839
1788107816871114800,1.28811474609375,7.854452133178711,5.752327919006348,1.1217349767684937
1788107816881209900,1.2982099609375,7.848955154418945,5.760808944702148,1.116690993309021
1788107816891309000,1.30830908203125,7.844974040985107,5.765873908996582,1.118520975112915
1788107816901406000,1.318406005859375,7.840395927429199,5.770598888397217,1.1262329816818237
1788107816911496200,1.32849609375,7.833680152893066,5.7775139808654785,1.137444019317627
1788107816921580300,1.338580322265625,7.826650142669678,5.785201072692871,1.1467519998550415
1788107816931668000,1.34866796875,7.82288122177124,5.7894182205200195,1.1511579751968384
1788107816941760500,1.358760498046875,7.823338031768799,5.788846969604492,1.1509510278701782
1788107816951852500,1.3688525390625,7.826970100402832,5.784158229827881,1.149804949760437
1788107816961950000,1.378949951171875,7.830524921417236,5.779760837554932,1.1477110385894775
1788107816972046600,1.389046630859375,7.832889080047607,5.777041912078857,1.1452720165252686
1788107816982140400,1.399140380859375,7.832873821258545,5.777245044708252,1.1443419456481934
1788107816992239000,1.409239013671875,7.831273078918457,5.779461860656738,1.1440980434417725
1788107817002331600,1.41933154296875,7.83046817779541,5.780846118927002,1.1426140069961548
1788107817012430800,1.429430908203125,7.8305158615112305,5.781647205352783,1.1382520198822021
1788107817022518300,1.439518310546875,7.830758094787598,5.782320022583008,1.1331520080566406
1788107817032621600,1.44962158203125,7.829789161682129,5.78434419631958,1.1294889450073242
1788107817042714600,1.459714599609375,7.826559066772461,5.788524150848389,1.1304630041122437
1788107817052806100,1.46980615234375,7.821127891540527,5.794888973236084,1.1354429721832275
1788107817062892500,1.479892578125,7.8153910636901855,5.801325798034668,1.1420650482177734
1788107817072988200,1.48998828125,7.811255931854248,5.805650234222412,1.1483180522918701
1788107817083068200,1.500068115234375,7.809467792510986,5.807208061218262,1.1526479721069336
1788107817093159000,1.510158935546875,7.809481143951416,5.806817054748535,1.1545089483261108
1788107817103256000,1.520256103515625,7.809884071350098,5.806365013122559,1.1540509462356567
1788107817113343200,1.53034326171875,7.809652805328369,5.806726932525635,1.1537890434265137
1788107817123435800,1.540435791015625,7.807848930358887,5.80905294418335,1.154304027557373
1788107817133525800,1.55052587890625,7.804228782653809,5.8134050369262695,1.1568399667739868
1788107817143610400,1.5606103515625,7.800032138824463,5.817747116088867,1.1633520126342773
1788107817153695700,1.57069580078125,7.795754909515381,5.821568965911865,1.172821044921875
1788107817163783400,1.580783447265625,7.792337894439697,5.8237199783325195,1.1847889423370361
1788107817173866000,1.590865966796875,7.7898688316345215,5.824162006378174,1.198781967163086
1788107817183955000,1.600954833984375,7.787833213806152,5.823729038238525,1.213989019393921
1788107817194039300,1.611039306640625,7.787522792816162,5.820806980133057,1.2299129962921143
1788107817204121000,1.62112109375,7.790063858032227,5.81429386138916,1.24453604221344
1788107817214196000,1.631196044921875,7.795385837554932,5.804856777191162,1.2552299499511719
1788107817224288800,1.641288818359375,7.802639007568359,5.793558120727539,1.262349009513855
1788107817234382800,1.6513828125,7.810736179351807,5.781783103942871,1.2662609815597534
1788107817244469800,1.6614697265625,7.819062232971191,5.769396781921387,1.2713589668273926
1788107817254550800,1.67155078125,7.826527118682861,5.7577362060546875,1.2782560586929321
1788107817264639000,1.681638916015625,7.832047939300537,5.747966766357422,1.2883789539337158
1788107817274724600,1.691724609375,7.838441848754883,5.7375807762146,1.2957470417022705
1788107817284810800,1.701810791015625,7.846236228942871,5.727142810821533,1.2947570085525513
1788107817294895900,1.711895751953125,7.8550028800964355,5.716503143310547,1.2886040210723877
1788107817304990000,1.721989990234375,7.862514972686768,5.707913875579834,1.2808409929275513
1788107817315077400,1.732077392578125,7.867440223693848,5.7023468017578125,1.2754069566726685
1788107817325164000,1.7421640625,7.868109226226807,5.70195198059082,1.2730380296707153
1788107817335254500,1.752254638671875,7.864687919616699,5.706470966339111,1.2739160060882568
1788107817345341200,1.762341064453125,7.859540939331055,5.712893962860107,1.2768900394439697
1788107817365507600,1.782507568359375,7.849806785583496,5.724695205688477,1.2839100360870361
1788107817375591000,1.7925908203125,7.847401142120361,5.727724075317383,1.2850769758224487
1788107817385682700,1.8026826171875,7.845536231994629,5.730620861053467,1.2835619449615479
1788107817395766500,1.8127666015625,7.842726230621338,5.735159873962402,1.2804640531539917
1788107817405857500,1.822857421875,7.839097023010254,5.740696907043457,1.2778739929199219
1788107817415945700,1.83294580078125,7.8351569175720215,5.746685028076172,1.2751330137252808
1788107817426033700,1.84303369140625,7.832118034362793,5.751683235168457,1.2712470293045044
1788107817436120300,1.853120361328125,7.830557823181152,5.755026817321777,1.2657140493392944
1788107817446208000,1.8632080078125,7.829337120056152,5.757900238037109,1.2601979970932007
1788107817456298200,1.87329833984375,7.8287858963012695,5.75996208190918,1.2541769742965698
1788107817466383400,1.88338330078125,7.828587055206299,5.7614240646362305,1.248710036277771
1788107817476479700,1.893479736328125,7.827805042266846,5.764142036437988,1.2410320043563843
1788107817486568700,1.903568603515625,7.82560396194458,5.769412040710449,1.2303359508514404
1788107817496647000,1.91364697265625,7.821876049041748,5.776889801025391,1.2189459800720215
1788107817506737400,1.9237373046875,7.817111015319824,5.785369873046875,1.209231972694397
1788107817516820000,1.933820068359375,7.811328887939453,5.794562816619873,1.202599048614502
1788107817526907600,1.94390771484375,7.8047051429748535,5.804327011108398,1.1985050439834595
1788107817536994600,1.95399462890625,7.797382831573486,5.814661979675293,1.1960309743881226
1788107817547087400,1.96408740234375,7.789821147918701,5.824886798858643,1.1955809593200684
1788107817557178400,1.974178466796875,7.783697128295898,5.833446979522705,1.1937060356140137
1788107817567266600,1.9842666015625,7.780581951141357,5.838685035705566,1.1883889436721802
1788107817577341400,1.994341552734375,7.780066013336182,5.841020107269287,1.180284023284912
1788107817587431200,2.00443115234375,7.780880928039551,5.84201717376709,1.1699140071868896
1788107817597508900,2.0145087890625,7.782018184661865,5.842688083648682,1.1589330434799194
1788107817607594500,2.024594482421875,7.78265905380249,5.844067096710205,1.147637963294983
1788107817617679000,2.03467919921875,7.781670093536377,5.847701072692871,1.1357879638671875
1788107817627775700,2.044775634765625,7.7787652015686035,5.853673934936523,1.1248610019683838
1788107817637854200,2.054854248046875,7.774959087371826,5.860435962677002,1.1159069538116455
1788107817647943200,2.064943115234375,7.771117210388184,5.867416858673096,1.1059659719467163
1788107817658026200,2.075026123046875,7.7682881355285645,5.873324871063232,1.094396948814392
1788107817668116700,2.08511669921875,7.766890048980713,5.8776068687438965,1.0812729597091675
1788107817678199800,2.09519970703125,7.7661919593811035,5.881173133850098,1.0667779445648193
1788107817688291800,2.105291748046875,7.764673233032227,5.885509967803955,1.0538380146026611
1788107817698393000,2.11539306640625,7.761044025421143,5.8923869132995605,1.0421010255813599
1788107817708485400,2.1254853515625,7.754874229431152,5.90267276763916,1.029768943786621
1788107817718564600,2.135564697265625,7.746132850646973,5.916190147399902,1.017909049987793
1788107817728655000,2.145655029296875,7.7364091873168945,5.931210041046143,1.0043309926986694
1788107817738742000,2.155741943359375,7.726963996887207,5.945577144622803,0.9920650124549866
1788107817748825900,2.165825927734375,7.718278884887695,5.958611965179443,0.9814079999923706
1788107817758911700,2.175911865234375,7.71047306060791,5.970405101776123,0.9710180163383484
1788107817768997600,2.18599755859375,7.703103065490723,5.981466770172119,0.961368978023529
1788107817779082000,2.19608203125,7.695188999176025,5.992771148681641,0.9543280005455017
1788107817789184300,2.206184326171875,7.686683177947998,6.004634857177734,0.9482560157775879
1788107817799269600,2.21626953125,7.677594184875488,6.017171859741211,0.9424530267715454
1788107817809361400,2.226361328125,7.667858123779297,6.0303168296813965,0.9376599788665771
1788107817819441700,2.236441650390625,7.658383846282959,6.043053150177002,0.9330949783325195
1788107817829529300,2.246529296875,7.651279926300049,6.052775859832764,0.928363025188446
1788107817839612000,2.25661181640625,7.647168159484863,6.058761119842529,0.9231579899787903
1788107817849697300,2.266697265625,7.644400119781494,6.063109874725342,0.917514979839325
1788107817859785200,2.27678515625,7.642673969268799,6.066001892089844,0.9127879738807678
1788107817869877000,2.286876953125,7.641664028167725,6.067986011505127,0.9080169796943665
1788107817879963000,2.296962890625,7.641469955444336,6.069198131561279,0.9015550017356873
1788107817900135700,2.3171357421875,7.639835834503174,6.073637962341309,0.885342001914978
1788107817910229800,2.327229736328125,7.6371750831604,6.078052043914795,0.8779730200767517
1788107817920320000,2.337320068359375,7.6331682205200195,6.0835652351379395,0.8746349811553955
1788107817930403600,2.347403564453125,7.628490924835205,6.089476108551025,0.8742939829826355
1788107817940500700,2.357500732421875,7.623300075531006,6.0955281257629395,0.8774319887161255
1788107817950622200,2.367622314453125,7.618305206298828,6.101047039031982,0.8824139833450317
1788107817960715000,2.377715087890625,7.613719940185547,6.105991840362549,0.8877769708633423
1788107817970797600,2.387797607421875,7.609172821044922,6.110857963562012,0.8932849764823914
1788107817980888600,2.397888671875,7.604307174682617,6.116020202636719,0.8993340134620667
1788107817990974500,2.407974365234375,7.5991997718811035,6.121143817901611,0.907588005065918
1788107818001063400,2.4180634765625,7.594448089599609,6.125397205352783,0.9186360239982605
1788107818011146500,2.428146484375,7.5907440185546875,6.128057956695557,0.9314000010490417
1788107818021243000,2.438242919921875,7.589253902435303,6.128227233886719,0.9423760175704956
1788107818031323600,2.44832373046875,7.59030294418335,6.125502109527588,0.9515939950942993
1788107818041407500,2.458407470703125,7.593564033508301,6.12020206451416,0.9596430063247681
1788107818051492600,2.46849267578125,7.598401069641113,6.112884998321533,0.9679520130157471
1788107818061583000,2.4785830078125,7.603647232055664,6.104989051818848,0.9765340089797974
1788107818071671300,2.48867138671875,7.607941150665283,6.097991943359375,0.9867500066757202
1788107818081763000,2.49876318359375,7.6112189292907715,6.092133045196533,0.9976599812507629
1788107818091850500,2.5088505859375,7.6127800941467285,6.0882568359375,1.0092979669570923
1788107818101943000,2.518943115234375,7.613026142120361,6.085815906524658,1.0220860242843628
1788107818112030000,2.529030029296875,7.612836837768555,6.08400821685791,1.0341880321502686
1788107818122122800,2.539122802734375,7.612803936004639,6.082571983337402,1.042829990386963
1788107818132210700,2.549210693359375,7.613042831420898,6.081203937530518,1.0490779876708984
1788107818142302500,2.559302490234375,7.613481044769287,6.07979679107666,1.0540399551391602
1788107818152390400,2.569390380859375,7.6141581535339355,6.078094005584717,1.0589499473571777
1788107818162502000,2.579501953125,7.615674018859863,6.075308799743652,1.0639899969100952
1788107818172589300,2.58958935546875,7.61830997467041,6.071809768676758,1.0651259422302246
1788107818182677800,2.599677734375,7.621318817138672,6.068655967712402,1.0615650415420532
1788107818192766500,2.609766357421875,7.623072147369385,6.067627906799316,1.0548169612884521
1788107818202856700,2.619856689453125,7.622470855712891,6.07003116607666,1.0453050136566162
1788107818212950800,2.62995068359375,7.618875026702881,6.076333045959473,1.0348429679870605
1788107818233127200,2.650127197265625,7.611739158630371,6.087789058685303,1.0199259519577026
1788107818243220200,2.66022021484375,7.611767768859863,6.0895771980285645,1.0089750289916992
1788107818253305300,2.670305419921875,7.61356782913208,6.090160846710205,0.9917410016059875
1788107818263389200,2.68038916015625,7.614654064178467,6.0928192138671875,0.9667670130729675
1788107818273473300,2.690473388671875,7.612607002258301,6.0996928215026855,0.9390980005264282
1788107818283553300,2.70055322265625,7.6077351570129395,6.109368801116943,0.9154189825057983
1788107818293643300,2.710643310546875,7.601276874542236,6.120401859283447,0.8951240181922913
1788107818303722000,2.720721923828125,7.593714237213135,6.13267707824707,0.8750929832458496
1788107818313808400,2.730808349609375,7.58547306060791,6.145681858062744,0.8551120162010193
1788107818323888600,2.740888671875,7.577340126037598,6.158862113952637,0.832065999507904
1788107818333972200,2.75097216796875,7.569097995758057,6.1726179122924805,0.8046740293502808
1788107818344054000,2.761053955078125,7.559394836425781,6.188115119934082,0.7763940095901489
1788107818354142500,2.771142578125,7.547947883605957,6.205280780792236,0.7503139972686768
1788107818364231000,2.78123095703125,7.535728931427002,6.2227091789245605,0.728488028049469
1788107818374323500,2.791323486328125,7.522840976715088,6.2405619621276855,0.7086960077285767
1788107818384404700,2.80140478515625,7.509311199188232,6.258680820465088,0.6922199726104736
1788107818394481700,2.811481689453125,7.494382858276367,6.278048992156982,0.6784980297088623
1788107818404562000,2.82156201171875,7.478326797485352,6.298418998718262,0.6667190194129944
1788107818414648300,2.8316484375,7.46212100982666,6.3186750411987305,0.6565619707107544
1788107818424729600,2.8417294921875,7.447346210479736,6.336958885192871,0.6480609774589539
1788107818434844400,2.851844482421875,7.435418128967285,6.352166175842285,0.6360430121421814
1788107818444925700,2.86192578125,7.426211833953857,6.3646240234375,0.6187700033187866
1788107818455010800,2.8720107421875,7.41918420791626,6.374599933624268,0.6001719832420349
1788107818465091000,2.882091064453125,7.41343879699707,6.382865905761719,0.5830469727516174
1788107818475177500,2.892177490234375,7.407003879547119,6.391691207885742,0.5679469704627991
1788107818485255000,2.9022548828125,7.397687911987305,6.403532981872559,0.5558620095252991
1788107818495344600,2.9123447265625,7.385019779205322,6.418793201446533,0.5482779741287231
1788107818505430000,2.922429931640625,7.370616912841797,6.435431003570557,0.5470370054244995
1788107818515514000,2.93251416015625,7.357312202453613,6.4503679275512695,0.5501859784126282
1788107818525588500,2.94258837890625,7.347724914550781,6.460916042327881,0.5545309782028198
1788107818535677700,2.952677734375,7.34218692779541,6.466687202453613,0.5605729818344116
1788107818545759200,2.96275927734375,7.338980197906494,6.469814777374268,0.5664780139923096
1788107818555851500,2.9728515625,7.33705997467041,6.471543788909912,0.5715849995613098
1788107818565939200,2.982939208984375,7.3350372314453125,6.473103046417236,0.579800009727478
1788107818576028200,2.993028076171875,7.332406044006348,6.474575042724609,0.5963900089263916
1788107818586111500,3.003111572265625,7.330972194671631,6.474145889282227,0.6183220148086548
1788107818596202500,3.013202392578125,7.332065105438232,6.471002101898193,0.6378909945487976
1788107818606285300,3.023285400390625,7.329904079437256,6.473344802856445,0.6389750242233276
1788107818616371000,3.033370849609375,7.324435234069824,6.479824066162109,0.6360080242156982
1788107818626450200,3.0434501953125,7.32098388671875,6.482076168060303,0.6525949835777283
1788107818636539600,3.05353955078125,7.319459915161133,6.480597019195557,0.6836529970169067
1788107818646655500,3.063655517578125,7.316285133361816,6.4808430671691895,0.71458500623703
1788107818656745500,3.073745361328125,7.312323093414307,6.482207775115967,0.7422400116920471
1788107818666822000,3.08382177734375,7.309315204620361,6.483607769012451,0.7594259977340698
1788107818676919800,3.093919921875,7.308200836181641,6.483638763427734,0.7698000073432922
1788107818687000300,3.104000244140625,7.306796073913574,6.484111785888672,0.7791159749031067
1788107818697086500,3.11408642578125,7.3040289878845215,6.4857940673828125,0.7909889817237854
1788107818707173400,3.12417333984375,7.300191879272461,6.488361835479736,0.8052120208740234
1788107818717262300,3.134262451171875,7.296152114868164,6.490877151489258,0.8214020133018494
1788107818727347000,3.144346923828125,7.292863845825195,6.492404937744141,0.8383550047874451
1788107818737442600,3.154442626953125,7.290806770324707,6.492116928100586,0.858253002166748
1788107818747533600,3.164533447265625,7.290543079376221,6.488922119140625,0.8842380046844482
1788107818757620700,3.174620849609375,7.293251037597656,6.481514930725098,0.9156950116157532
1788107818767706000,3.1847060546875,7.298489093780518,6.4709649085998535,0.9480010271072388
1788107818777791500,3.19479150390625,7.3053507804870605,6.458817958831787,0.9775429964065552
1788107818787876900,3.204876953125,7.312636852264404,6.44611120223999,1.0065200328826904
1788107818797965000,3.214965087890625,7.319385051727295,6.433900833129883,1.0351660251617432
1788107818808051000,3.225051025390625,7.324645042419434,6.423140048980713,1.0643349885940552
1788107818818141700,3.2351416015625,7.327460765838623,6.414859771728516,1.0944520235061646
1788107818828225000,3.24522509765625,7.32830286026001,6.408222198486328,1.1272469758987427
1788107818838315300,3.255315185546875,7.3289361000061035,6.401494979858398,1.1608550548553467
1788107818848394500,3.26539453125,7.329219818115234,6.394443035125732,1.197329044342041
1788107818858488800,3.27548876953125,7.330808162689209,6.387042999267578,1.2267520427703857
1788107818868569600,3.285569580078125,7.341711044311523,6.372241020202637,1.2384730577468872
1788107818878655500,3.295655517578125,7.35748815536499,6.354856967926025,1.2341899871826172
1788107818888740900,3.305740966796875,7.377172946929932,6.33384895324707,1.2246179580688477
1788107818898846000,3.315845947265625,7.398471832275391,6.311193943023682,1.2130290269851685
1788107818908930300,3.325930419921875,7.417943954467773,6.290975093841553,1.199051022529602
1788107818919034600,3.33603466796875,7.433478832244873,6.275218963623047,1.18532395362854
1788107818929114400,3.3461142578125,7.443352222442627,6.2655110359191895,1.1746710538864136
1788107818939202600,3.35620263671875,7.445584774017334,6.2639641761779785,1.168776035308838
1788107818949288700,3.366288818359375,7.438873767852783,6.271568775177002,1.1707299947738647
1788107818959383000,3.376383056640625,7.426212787628174,6.285335063934326,1.1772619485855103
1788107818969471200,3.38647119140625,7.411081790924072,6.301619052886963,1.1855239868164062
1788107818979559400,3.396559326171875,7.396537780761719,6.317113876342773,1.193861961364746
1788107818989640400,3.406640380859375,7.383762836456299,6.330869197845459,1.2000329494476318
1788107818999726600,3.4167265625,7.373044967651367,6.342909812927246,1.2023799419403076
1788107819009811700,3.426811767578125,7.363317966461182,6.353950023651123,1.2036830186843872
1788107819019905300,3.4369052734375,7.354515075683594,6.363776206970215,1.2056070566177368
1788107819029988600,3.446988525390625,7.34745979309082,6.370934009552002,1.2107919454574585
1788107819040080600,3.45708056640625,7.343780040740967,6.373933792114258,1.217318058013916
1788107819050165500,3.46716552734375,7.344242095947266,6.372486114501953,1.2220909595489502
1788107819060255700,3.477255859375,7.349274158477783,6.366238117218018,1.2243950366973877
1788107819070351600,3.4873515625,7.358400821685791,6.355515003204346,1.2252700328826904
1788107819080447700,3.49744775390625,7.370560169219971,6.341691017150879,1.2238390445709229
1788107819090539300,3.507539306640625,7.384437084197998,6.325815200805664,1.2223320007324219
1788107819100628200,3.517628173828125,7.39923620223999,6.308376789093018,1.222970962524414
1788107819110713300,3.52771337890625,7.4157938957214355,6.288356781005859,1.2257970571517944
1788107819120799700,3.5377998046875,7.433673858642578,6.266363143920898,1.230085015296936
1788107819130892500,3.547892578125,7.452593803405762,6.242906093597412,1.234910011291504
1788107819140971000,3.557970947265625,7.4742817878723145,6.2161760330200195,1.2386510372161865
1788107819151065000,3.568065185546875,7.499262809753418,6.185788154602051,1.239814043045044
1788107819161145000,3.57814501953125,7.526137828826904,6.153323173522949,1.238495945930481
1788107819171229700,3.588229736328125,7.5527119636535645,6.121033191680908,1.2367080450057983
1788107819181314600,3.598314453125,7.577672004699707,6.090312957763672,1.2357200384140015
1788107819191402000,3.608402099609375,7.6002631187438965,6.06204891204834,1.2359659671783447
1788107819201487400,3.6184873046875,7.620274066925049,6.036468982696533,1.237926959991455
1788107819211573200,3.6285732421875,7.639369964599609,6.01193904876709,1.2395800352096558
1788107819221659100,3.6386591796875,7.6587982177734375,5.987246990203857,1.2392230033874512
1788107819231743500,3.648743408203125,7.678330898284912,5.962600231170654,1.2371740341186523
1788107819241828600,3.65882861328125,7.696792125701904,5.9395060539245605,1.2335540056228638
1788107819251916500,3.66891650390625,7.7119011878967285,5.920906066894531,1.2286139726638794
1788107819262003700,3.679003662109375,7.722653865814209,5.9077301025390625,1.2244830131530762
1788107819272095000,3.689094970703125,7.728583812713623,5.900275230407715,1.2230019569396973
1788107819282168800,3.6991689453125,7.728244781494141,5.900396823883057,1.2245750427246094
1788107819292266000,3.709265869140625,7.7223711013793945,5.907348155975342,1.2281090021133423
1788107819302350800,3.719350830078125,7.712597846984863,5.919151782989502,1.2326760292053223
1788107819312436200,3.729436279296875,7.699474811553955,5.935328006744385,1.2369170188903809
1788107819322516500,3.7395166015625,7.685152053833008,5.9535040855407715,1.2386540174484253
1788107819332603000,3.749602783203125,7.671525001525879,5.971322059631348,1.2373509407043457
1788107819342689000,3.75968896484375,7.65963077545166,5.9874677658081055,1.2330060005187988
1788107819352777700,3.76977783203125,7.6507649421691895,6.000472068786621,1.224787950515747
1788107819362861800,3.77986181640625,7.645674228668213,6.008984088897705,1.214812994003296
1788107819372951800,3.789951904296875,7.643854141235352,6.013757228851318,1.2025799751281738
1788107819383038000,3.800037841796875,7.644060134887695,6.016386032104492,1.1880340576171875
1788107819393121300,3.810121337890625,7.6454081535339355,6.017911911010742,1.1715290546417236
1788107819403217200,3.820217041015625,7.647162914276123,6.019394874572754,1.1522769927978516
1788107819413299700,3.8302998046875,7.648290157318115,6.022181987762451,1.1300369501113892
1788107819423380200,3.840380126953125,7.649016857147217,6.025609970092773,1.1065829992294312
1788107819433464300,3.85046435546875,7.649979114532471,6.028567790985107,1.0835700035095215
1788107819443552300,3.86055224609375,7.652084827423096,6.0297651290893555,1.0618239641189575
1788107819453637000,3.87063720703125,7.655878067016602,6.028219223022461,1.0431360006332397
1788107819463718400,3.880718505859375,7.661214828491211,6.0245561599731445,1.0249509811401367
1788107819473801700,3.8908017578125,7.66356086730957,6.024249076843262,1.0090819597244263
1788107819483887600,3.9008876953125,7.664524078369141,6.025528907775879,0.9939939975738525
1788107819493972700,3.91097265625,7.666547775268555,6.025708198547363,0.9771590232849121
1788107819504047900,3.9210478515625,7.670589923858643,6.023533821105957,0.9586809873580933
1788107819514137000,3.93113720703125,7.676942825317383,6.018890857696533,0.93675297498703
1788107819524231400,3.9412314453125,7.6841278076171875,6.013675212860107,0.9109879732131958
1788107819534319600,3.951319580078125,7.690131187438965,6.009884834289551,0.8849509954452515
1788107819544406300,3.96140625,7.694583892822266,6.007154941558838,0.8645730018615723
1788107819554486800,3.97148681640625,7.698273181915283,6.004335880279541,0.8511989712715149
1788107819564572400,3.981572509765625,7.702857971191406,5.999688148498535,0.8424779772758484
1788107819574661400,3.991661376953125,7.709539890289307,5.991982936859131,0.8361690044403076
1788107819584743400,4.001743408203125,7.718496799468994,5.981391906738281,0.8293229937553406
1788107819594832100,4.01183203125,7.728759765625,5.9692158699035645,0.8214060068130493
1788107819604916200,4.021916259765625,7.738696098327637,5.957503795623779,0.8128039836883545
1788107819615006000,4.032005859375,7.747855186462402,5.946818828582764,0.8038089871406555
1788107819625087200,4.042087158203125,7.7556071281433105,5.9380950927734375,0.7934619784355164
1788107819635171600,4.052171630859375,7.762153148651123,5.9309611320495605,0.7827379703521729
1788107819645253600,4.062253662109375,7.767951965332031,5.924527168273926,0.7739260196685791
1788107819655341800,4.072341796875,7.773906230926514,5.9175848960876465,0.7671909928321838
1788107819665423000,4.082423095703125,7.780909061431885,5.909203052520752,0.7607740163803101
1788107819675501800,4.092501708984375,7.788540840148926,5.899933815002441,0.7546120285987854
1788107819685582800,4.102582763671875,7.796664237976074,5.889681816101074,0.7507950067520142
1788107819695671800,4.112671875,7.805734157562256,5.877929210662842,0.7486249804496765
1788107819705752600,4.122752685546875,7.815859794616699,5.86486291885376,0.7454149723052979
1788107819715844600,4.1328447265625,7.825439929962158,5.852982044219971,0.7382950186729431
1788107819725930000,4.142929931640625,7.8319292068481445,5.84551477432251,0.7285950183868408
1788107819736019500,4.15301953125,7.834528923034668,5.842997074127197,0.7207980155944824
1788107819746102000,4.16310205078125,7.834434986114502,5.843573093414307,0.7171339988708496
1788107819756191000,4.17319091796875,7.833518981933594,5.844727993011475,0.7177199721336365
1788107819766269400,4.18326953125,7.833046913146973,5.845087051391602,0.7199879884719849
1788107819776360400,4.1933603515625,7.83371114730835,5.844021797180176,0.7213919758796692
1788107819786451000,4.203450927734375,7.834037780761719,5.843491077423096,0.722108006477356
1788107819796543200,4.213543212890625,7.832499980926514,5.845570087432861,0.721979022026062
1788107819806627600,4.223627685546875,7.829031944274902,5.850278854370117,0.7214670181274414
1788107819816720400,4.233720458984375,7.823884963989258,5.85721492767334,0.7210010290145874
1788107819826809600,4.2438095703125,7.817572116851807,5.86582088470459,0.7195050120353699
1788107819836902000,4.25390185546875,7.81108283996582,5.874766826629639,0.7169619798660278
1788107819846985000,4.26398486328125,7.805379867553711,5.882613182067871,0.7147769927978516
1788107819857077500,4.274077392578125,7.801840782165527,5.887519836425781,0.7129999995231628
1788107819867162600,4.28416259765625,7.800699234008789,5.889608860015869,0.7082170248031616
1788107819877248300,4.294248291015625,7.800440788269043,5.891186237335205,0.6979129910469055
1788107819887324700,4.30432470703125,7.798698902130127,5.895236968994141,0.683014988899231
1788107819897408500,4.314408447265625,7.794167995452881,5.903145790100098,0.6662269830703735
1788107819907482600,4.324482666015625,7.7858781814575195,5.916083812713623,0.6480990052223206
1788107819917570800,4.33457080078125,7.774129867553711,5.933478832244873,0.629833996295929
1788107819927646200,4.344646240234375,7.7602410316467285,5.9533820152282715,0.6130620241165161
1788107819937739000,4.354739013671875,7.744970798492432,5.9746809005737305,0.5988720059394836
1788107819947820300,4.3648203125,7.729858875274658,5.995396137237549,0.5869119763374329
1788107819957918700,4.374918701171875,7.715153217315674,6.015402793884277,0.5755950212478638
1788107819967998000,4.384998046875,7.700926780700684,6.034764766693115,0.5632860064506531
1788107819978087000,4.3950869140625,7.686672210693359,6.054257869720459,0.5486900210380554
1788107819988177200,4.40517724609375,7.671802997589111,6.074419975280762,0.5337089896202087
1788107819998265300,4.415265380859375,7.657715797424316,6.093317985534668,0.5204910039901733
1788107820008343800,4.42534375,7.646204948425293,6.108641147613525,0.5099430084228516
1788107820018427100,4.43542724609375,7.6382060050964355,6.1194000244140625,0.5007380247116089
1788107820028508400,4.44550830078125,7.632551193237305,6.1273088455200195,0.49015799164772034
1788107820038599000,4.455598876953125,7.6287760734558105,6.133037090301514,0.47707000374794006
1788107820048682800,4.465682861328125,7.626218795776367,6.137540817260742,0.4597319960594177
1788107820058770700,4.475770751953125,7.624057769775391,6.14169979095459,0.4396750032901764
1788107820068844500,4.485844482421875,7.622986793518066,6.144417762756348,0.4197860062122345
1788107820078935300,4.495935302734375,7.623773097991943,6.144731044769287,0.4004499912261963
1788107820089017300,4.506017333984375,7.625720977783203,6.143515110015869,0.38152599334716797
1788107820099109600,4.516109619140625,7.627694129943848,6.142093181610107,0.36467400193214417
1788107820109204700,4.526204833984375,7.628716945648193,6.141723155975342,0.3492729961872101
1788107820119292400,4.53629248046875,7.62791109085083,6.143637180328369,0.332720011472702
1788107820129379300,4.54637939453125,7.624539852142334,6.148774147033691,0.3146030008792877
1788107820139467000,4.556467041015625,7.618684768676758,6.156961917877197,0.2957710027694702
1788107820149548500,4.566548583984375,7.610476970672607,6.16791296005249,0.27833300828933716
1788107820159634400,4.576634521484375,7.600762844085693,6.1805100440979,0.26404300332069397
1788107820169714200,4.586714111328125,7.591003894805908,6.192856788635254,0.2552590072154999
1788107820179804700,4.5968046875,7.582850933074951,6.203039169311523,0.25036001205444336
1788107820189889800,4.606889892578125,7.5765228271484375,6.2109479904174805,0.24588599801063538
1788107820199981000,4.61698095703125,7.572500228881836,6.216008186340332,0.24182499945163727
1788107820210074000,4.62707421875,7.570971965789795,6.217936038970947,0.24013100564479828
1788107820220158000,4.637157958984375,7.572330951690674,6.216288089752197,0.24002300202846527
1788107820230246700,4.64724658203125,7.575066089630127,6.212926864624023,0.24051600694656372
1788107820240332300,4.657332275390625,7.578048229217529,6.209278106689453,0.24094900488853455
1788107820250420700,4.667420654296875,7.581288814544678,6.205323219299316,0.24087199568748474
1788107820260504800,4.6775048828125,7.584859848022461,6.200931072235107,0.2415360063314438
1788107820270595000,4.687594970703125,7.590045928955078,6.194493770599365,0.24373400211334229
1788107820280678700,4.6976787109375,7.598940849304199,6.183378219604492,0.24872499704360962
1788107820290767400,4.707767333984375,7.612387180328369,6.166592121124268,0.2543739974498749
1788107820300856300,4.717856201171875,7.628252029418945,6.146753787994385,0.2591089904308319
1788107820310946600,4.727946533203125,7.644521236419678,6.126401901245117,0.2616739869117737
1788107820321034500,4.738034423828125,7.6591691970825195,6.108059883117676,0.2622149884700775
1788107820331125500,4.74812548828125,7.670102119445801,6.094311237335205,0.2624169886112213
1788107820341212400,4.75821240234375,7.677495002746582,6.084904193878174,0.2645359933376312
1788107820351303700,4.7683037109375,7.683553218841553,6.076996803283691,0.27039000391960144
1788107820361390800,4.778390869140625,7.690321922302246,6.068002223968506,0.2797830104827881
1788107820371474000,4.788473876953125,7.699513912200928,6.055880069732666,0.2895430028438568
1788107820381563000,4.79856298828125,7.710157871246338,6.0420918464660645,0.2942560017108917
1788107820391645200,4.808645263671875,7.719908237457275,6.029687881469727,0.29315701127052307
1788107820401734400,4.818734375,7.728515148162842,6.018799781799316,0.29009300470352173
1788107820411821800,4.82882177734375,7.736608028411865,6.0085248947143555,0.28716298937797546
1788107820421904400,4.838904296875,7.745528221130371,5.997023105621338,0.2873150110244751
1788107820431988000,4.848988037109375,7.756917953491211,5.982062816619873,0.2917090058326721
1788107820442076000,4.859075927734375,7.769914150238037,5.964875221252441,0.29783400893211365
1788107820452159000,4.869158935546875,7.7827677726745605,5.94785213470459,0.30257999897003174
1788107820462249200,4.879249267578125,7.792333126068115,5.9352707862854,0.30344200134277344
1788107820472336000,4.8893359375,7.798422813415527,5.92733907699585,0.3021250069141388
1788107820482422800,4.8994228515625,7.802255153656006,5.922277927398682,0.3023560047149658
1788107820492516400,4.909516357421875,7.8048481941223145,5.918600082397461,0.30741000175476074
1788107820502596000,4.91959619140625,7.807002067565918,5.915234088897705,0.31727999448776245
1788107820512687000,4.92968701171875,7.808699131011963,5.912271022796631,0.3305310010910034
1788107820522768600,4.9397685546875,7.8099260330200195,5.909980773925781,0.342290997505188
1788107820532856300,4.949856201171875,7.810378074645996,5.908609867095947,0.35541200637817383
1788107820542939600,4.959939697265625,7.810025215148926,5.90807580947876,0.3716999888420105
1788107820553035300,4.97003515625,7.808261871337891,5.909249782562256,0.3896630108356476
1788107820563123000,4.980123046875,7.8049211502075195,5.912411212921143,0.40814799070358276
1788107820573216800,4.990216796875,7.800552845001221,5.916907787322998,0.4261009991168976
1788107820583300000,5.000300048828125,7.795127868652344,5.922729015350342,0.44417598843574524
1788107820593394200,5.010394287109375,7.788382053375244,5.930253982543945,0.4617350101470947
1788107820603478500,5.020478515625,7.779582977294922,5.940252780914307,0.4811190068721771
1788107820613572000,5.030572021484375,7.769248962402344,5.951873779296875,0.5039770007133484
1788107820623663400,5.040663330078125,7.758628845214844,5.963444232940674,0.5300869941711426
1788107820633756200,5.050756103515625,7.750072002410889,5.97193717956543,0.5588809847831726
1788107820643839500,5.060839599609375,7.744931221008301,5.975854873657227,0.58753901720047
1788107820653926400,5.070926513671875,7.743959903717041,5.974250793457031,0.6159600019454956
1788107820664007000,5.0810068359375,7.747132778167725,5.967412948608398,0.6418190002441406
1788107820674094600,5.091094482421875,7.753911972045898,5.9562668800354,0.6630839705467224
1788107820684176600,5.1011767578125,7.76292610168457,5.94221305847168,0.6834419965744019
1788107820694269000,5.11126904296875,7.772809982299805,5.926864147186279,0.704056978225708
1788107820704354600,5.1213544921875,7.783170223236084,5.910707950592041,0.7251160144805908
1788107820714443800,5.13144384765625,7.79391622543335,5.893984794616699,0.7455030083656311
1788107820724520200,5.141520263671875,7.804834842681885,5.87689208984375,0.7659509778022766
1788107820734611200,5.151611083984375,7.815828800201416,5.859495162963867,0.7868490219116211
1788107820744689400,5.161689453125,7.8262457847595215,5.842681884765625,0.8080369830131531
1788107820754766300,5.171766357421875,7.8339362144470215,5.829464912414551,0.828715980052948
1788107820764845300,5.18184521484375,7.837594985961914,5.821629047393799,0.8489639759063721
1788107820774979300,5.191979248046875,7.836958885192871,5.819484233856201,0.8693140149116516
1788107820785054200,5.20205419921875,7.832927227020264,5.82245397567749,0.885591983795166
1788107820795141400,5.212141357421875,7.827376842498779,5.827603816986084,0.9006810188293457
1788107820805225500,5.2222255859375,7.822332859039307,5.833127975463867,0.9086999893188477
1788107820815315500,5.2323154296875,7.817996025085449,5.838622093200684,0.9107319712638855
1788107820825398300,5.242398193359375,7.812648773193359,5.845948219299316,0.9096320271492004
1788107820835483000,5.25248291015625,7.804234981536865,5.8572678565979,0.9090449810028076
1788107820845566200,5.262566162109375,7.792241096496582,5.8727641105651855,0.9119499921798706
1788107820855655400,5.272655517578125,7.777005195617676,5.891737937927246,0.9195730090141296
1788107820865740500,5.282740478515625,7.7588419914245605,5.914097785949707,0.9293910264968872
1788107820875831800,5.292831787109375,7.737521171569824,5.940488815307617,0.9388020038604736
1788107820885911300,5.302911376953125,7.713878154754639,5.9701972007751465,0.9448689818382263
1788107820896000000,5.313,7.688914775848389,6.002011775970459,0.9467700123786926
1788107820906080300,5.323080322265625,7.664426803588867,6.033589839935303,0.9446250200271606
1788107820916172000,5.333172119140625,7.643037796020508,6.061357021331787,0.9401509761810303
1788107820926250500,5.34325048828125,7.626972198486328,6.082430839538574,0.9344959855079651
1788107820936338200,5.353338134765625,7.61780309677124,6.095357894897461,0.92501300573349
1788107820946424000,5.363424072265625,7.616308212280273,6.099348068237305,0.9109309911727905
1788107820956517600,5.373517578125,7.620663166046143,6.0965070724487305,0.8933330178260803
1788107820966595800,5.383595947265625,7.62857723236084,6.089148998260498,0.8758170008659363
1788107820976686600,5.3936865234375,7.637279987335205,6.080655097961426,0.858847975730896
1788107820986770700,5.403770751953125,7.644463062286377,6.073730945587158,0.8437730073928833
1788107820996859000,5.41385888671875,7.649312973022461,6.069517135620117,0.8300570249557495
1788107821006937300,5.423937255859375,7.651079177856445,6.069025993347168,0.8172580003738403
1788107821017024000,5.43402392578125,7.650525093078613,6.071354866027832,0.8050569891929626
1788107821027110100,5.444110107421875,7.64869499206543,6.075326919555664,0.7923740148544312
1788107821037197300,5.454197265625,7.64680814743042,6.079249858856201,0.7804160118103027
1788107821047278300,5.4642783203125,7.646472930908203,6.081177234649658,0.7685959935188293
1788107821057373000,5.474373046875,7.648709774017334,6.079617977142334,0.7585980296134949
1788107821067461000,5.484461181640625,7.652356147766113,6.076257228851318,0.7487180233001709
1788107821077544700,5.494544677734375,7.655954837799072,6.073187828063965,0.7366939783096313
1788107821087634000,5.504634033203125,7.657236099243164,6.073326110839844,0.7220680117607117
1788107821097716700,5.514716796875,7.653710842132568,6.079755783081055,0.7051540017127991
1788107821107801300,5.52480126953125,7.644782066345215,6.093043804168701,0.6870949864387512
1788107821117889500,5.5348896484375,7.631045818328857,6.112127780914307,0.6700940132141113
1788107821127973000,5.54497314453125,7.613883972167969,6.1349358558654785,0.6567779779434204
1788107821138058000,5.55505810546875,7.5959038734436035,6.1582489013671875,0.6467069983482361
1788107821148144000,5.56514404296875,7.578524112701416,6.180445194244385,0.6387609839439392
1788107821158228700,5.575228759765625,7.563241004943848,6.199899196624756,0.6313570141792297
1788107821168312000,5.58531201171875,7.549402236938477,6.21739387512207,0.624921977519989
1788107821178402800,5.59540283203125,7.536390781402588,6.233490943908691,0.6216130256652832
1788107821188485400,5.6054853515625,7.511936187744141,6.261771202087402,0.633247971534729
1788107821198577000,5.615576904296875,7.488052845001221,6.289214134216309,0.6441180109977722
1788107821208662800,5.625662841796875,7.46830415725708,6.312908172607422,0.6415910124778748
1788107821218747100,5.6357470703125,7.453823089599609,6.3308939933776855,0.6327170133590698
1788107821228834800,5.645834716796875,7.4465789794921875,6.3410420417785645,0.6161820292472839
1788107821238930000,5.655929931640625,7.445765018463135,6.344064235687256,0.5944889783859253
1788107821249019000,5.666018798828125,7.449060916900635,6.342329978942871,0.5712699890136719
1788107821259113000,5.676113037109375,7.451168060302734,6.341742038726807,0.549884021282196
1788107821269203700,5.68620361328125,7.447426795959473,6.347411155700684,0.5349419713020325
1788107821279295500,5.69629541015625,7.436878204345703,6.360452175140381,0.5267390012741089
1788107821289385000,5.706385009765625,7.420520782470703,6.379819869995117,0.5232160091400146
1788107821299466800,5.716466796875,7.4001240730285645,6.40354585647583,0.5223289728164673
1788107821309553000,5.726552978515625,7.3793230056762695,6.427643775939941,0.5206140279769897
1788107821319643100,5.73664306640625,7.360381126403809,6.44960880279541,0.5170339941978455
1788107821329720300,5.74672021484375,7.344881057739258,6.467562198638916,0.5132240056991577
1788107821339810600,5.756810546875,7.333071231842041,6.481229782104492,0.5096359848976135
1788107821349895200,5.766895263671875,7.325215816497803,6.490410804748535,0.5057309865951538
1788107821359990000,5.776989990234375,7.319777011871338,6.4970011711120605,0.4998520016670227
1788107821370075100,5.7870751953125,7.316033840179443,6.501836776733398,0.49165400862693787
1788107821380158200,5.797158203125,7.313518047332764,6.5054240226745605,0.48157998919487
1788107821390251000,5.8072509765625,7.310553073883057,6.509523868560791,0.4710739850997925
1788107821400336100,5.817336181640625,7.305913925170898,6.515426158905029,0.4613179862499237
1788107821410425000,5.827425048828125,7.299964904785156,6.52273416519165,0.45221400260925293
1788107821420540000,5.837539794921875,7.292986869812012,6.531035900115967,0.4448789954185486
1788107821430630400,5.84763037109375,7.285322189331055,6.5399699211120605,0.43918299674987793
1788107821440712400,5.85771240234375,7.278861999511719,6.547335147857666,0.4365290105342865
1788107821450805500,5.867805419921875,7.275634765625,6.55095100402832,0.4361819922924042
1788107821465937200,5.882937255859375,7.280892848968506,6.544826984405518,0.4402790069580078
1788107821476027100,5.893027099609375,7.2884697914123535,6.536040782928467,0.4453830122947693
1788107821486114800,5.90311474609375,7.299044132232666,6.523737907409668,0.4525040090084076
1788107821496192500,5.913192626953125,7.311042785644531,6.509522914886475,0.4634230136871338
1788107821511331800,5.928331787109375,7.328760147094727,6.488333225250244,0.48041701316833496
1788107821521416000,5.938416015625,7.340666770935059,6.474425792694092,0.4862290024757385
1788107821541591800,5.958591796875,7.362701892852783,6.450758934020996,0.46722400188446045
1788107821551678000,5.968677978515625,7.371969223022461,6.4415202140808105,0.44821101427078247
1788107821561769000,5.97876904296875,7.382946014404297,6.42994499206543,0.4334779977798462
1788107821571863800,5.98886376953125,7.398153781890869,6.412866115570068,0.4271869957447052
1788107821581952300,5.9989521484375,7.417612075805664,6.390237808227539,0.4288310110569
1788107821597088300,6.014088134765625,7.44796895980835,6.353911876678467,0.44223400950431824
1788107821607178000,6.024177978515625,7.464395046234131,6.33361291885376,0.4562070071697235
1788107821617271000,6.03427099609375,7.475918769836426,6.318973064422607,0.47036099433898926
1788107821627364000,6.044364013671875,7.481546878814697,6.311309814453125,0.48353201150894165
1788107821638456800,6.055456787109375,7.485032081604004,6.305930137634277,0.4995349943637848
1788107821648543500,6.06554345703125,7.490549087524414,6.297863960266113,0.5182679891586304
1788107821658626000,6.0756259765625,7.502027988433838,6.2822980880737305,0.5406060218811035
1788107821668713000,6.085712890625,7.520999908447266,6.257347106933594,0.5657780170440674
1788107821678796800,6.095796875,7.54627799987793,6.224320888519287,0.5928909778594971
1788107821688886500,6.105886474609375,7.575584888458252,6.18594217300415,0.620169997215271
1788107821698975000,6.11597509765625,7.606602191925049,6.145247936248779,0.6446560025215149
1788107821709075200,6.1260751953125,7.637272834777832,6.104687213897705,0.6669710278511047
1788107821719154700,6.13615478515625,7.667963027954102,6.06300687789917,0.6944400072097778
1788107821729246500,6.14624658203125,7.700870037078857,6.0169501304626465,0.729993999004364
1788107821739332600,6.15633251953125,7.738187789916992,5.963058948516846,0.7761210203170776
1788107821749419500,6.16641943359375,7.783487796783447,5.896276950836182,0.8314099907875061
1788107821759510800,6.1765107421875,7.838034152984619,5.81451416015625,0.8925449848175049
1788107821769593300,6.18659326171875,7.900001049041748,5.719705104827881,0.9565110206604004
1788107821779683300,6.196683349609375,7.96602201461792,5.615935802459717,1.0216569900512695
1788107821789764600,6.2067646484375,8.03286075592041,5.507678031921387,1.085644006729126
1788107821799853300,6.216853271484375,8.096382141113281,5.399606227874756,1.15447199344635
1788107821809932000,6.22693212890625,8.156192779541016,5.293966770172119,1.2208460569381714
1788107821820024000,6.237024169921875,8.215311050415039,5.18824577331543,1.2769980430603027
1788107821830102000,6.24710205078125,8.276657104492188,5.0788397789001465,1.3199690580368042
1788107821840190000,6.25718994140625,8.339946746826172,4.96653413772583,1.3486109972000122
1788107821850285000,6.26728515625,8.40249252319336,4.8544697761535645,1.368306040763855
1788107821860379600,6.277379638671875,8.459906578063965,4.749623775482178,1.3823829889297485
1788107821870465500,6.287465576171875,8.506189346313477,4.663157939910889,1.392725944519043
1788107821880550700,6.297550537109375,8.53683853149414,4.606088161468506,1.3951270580291748
1788107821890642200,6.30764208984375,8.55025863647461,4.584299087524414,1.3846620321273804
1788107821900729300,6.317729248046875,8.542864799499512,4.605210781097412,1.3606979846954346
1788107821910808800,6.327808837890625,8.517910957336426,4.6607232093811035,1.3277310132980347
1788107821920893200,6.33789306640625,8.482414245605469,4.734094142913818,1.2949819564819336
1788107821930982100,6.347982177734375,8.444230079650879,4.807216167449951,1.275020956993103
1788107821941067300,6.3580673828125,8.412376403808594,4.865314960479736,1.2651649713516235
1788107821951157500,6.368157470703125,8.390852928161621,4.905664920806885,1.2522159814834595
1788107821961250300,6.378250244140625,8.375356674194336,4.938183784484863,1.2278939485549927
1788107821971342000,6.388342041015625,8.359050750732422,4.9741129875183105,1.1935149431228638
1788107821981421300,6.39842138671875,8.334749221801758,5.0231828689575195,1.1574230194091797
1788107821991515600,6.408515625,8.297684669494629,5.09149694442749,1.1247520446777344
1788107822001597400,6.418597412109375,8.251093864440918,5.172485828399658,1.0976569652557373
1788107822011689200,6.428689208984375,8.204511642456055,5.249658107757568,1.0803240537643433
1788107822021767700,6.438767578125,8.171262741088867,5.304904937744141,1.0622509717941284
1788107822031868400,6.448868408203125,8.158989906311035,5.329913139343262,1.0309950113296509
1788107822041952500,6.458952392578125,8.165814399719238,5.328945159912109,0.9807019829750061
1788107822052043500,6.46904345703125,8.184271812438965,5.311934947967529,0.9170969724655151
1788107822062118000,6.479117919921875,8.204401016235352,5.290815830230713,0.8574039936065674
1788107822072209700,6.489209716796875,8.219010353088379,5.274661064147949,0.8159480094909668
1788107822082290200,6.499290283203125,8.223187446594238,5.271539211273193,0.7937620282173157
1788107822092393500,6.5093935546875,8.214452743530273,5.285941123962402,0.7884169816970825
1788107822102479000,6.51947900390625,8.191316604614258,5.321966171264648,0.7867630124092102
1788107822112577300,6.529577392578125,8.155374526977539,5.378571033477783,0.7751290202140808
1788107822122662400,6.539662353515625,8.107720375061035,5.453958988189697,0.7477880120277405
1788107822132757000,6.549757080078125,8.049933433532715,5.543601036071777,0.7120479941368103
1788107822142849800,6.559849853515625,7.983223915100098,5.643835067749023,0.6747570037841797
1788107822152946200,6.5699462890625,7.90825891494751,5.752145767211914,0.6420639753341675
1788107822163037000,6.580036865234375,7.8285040855407715,5.862263202667236,0.6231629848480225
1788107822173143800,6.590143798828125,7.751084804534912,5.964532852172852,0.6204569935798645
1788107822183234000,6.600234130859375,7.684347152709961,6.049032211303711,0.6324800252914429
1788107822193322500,6.610322509765625,7.631978988647461,6.113009929656982,0.6511579751968384
1788107822203421700,6.620421630859375,7.594128131866455,6.157111167907715,0.6776589751243591
1788107822213512000,6.630511962890625,7.568459987640381,6.185232162475586,0.7080360054969788
1788107822223605000,6.64060498046875,7.553610801696777,6.1996870040893555,0.7394970059394836
1788107822233693700,6.650693603515625,7.547206878662109,6.204237937927246,0.7662379741668701
1788107822243778300,6.6607783203125,7.546935081481934,6.202436923980713,0.7832980155944824
1788107822253868000,6.670867919921875,7.5467448234558105,6.202079772949219,0.7879229784011841
1788107822263957500,6.68095751953125,7.542287826538086,6.208670139312744,0.778672993183136
1788107822274052000,6.691052001953125,7.528713226318359,6.228203773498535,0.7536190152168274
1788107822284134400,6.701134521484375,7.499557971954346,6.266962051391602,0.722353994846344
1788107822294226700,6.711226806640625,7.4542717933654785,6.324123859405518,0.692326009273529
1788107822304312000,6.72131201171875,7.398458003997803,6.391256809234619,0.6742870211601257
1788107822314416600,6.731416748046875,7.336319923400879,6.461825847625732,0.6806120276451111
1788107822324501500,6.74150146484375,7.265430927276611,6.536340236663818,0.7278900146484375
1788107822344667600,6.761667724609375,7.114551067352295,6.686808109283447,0.8425009846687317
1788107822354762800,6.7717626953125,7.043140888214111,6.756220817565918,0.8874830007553101
1788107822364852500,6.7818525390625,6.981033802032471,6.815668106079102,0.9229320287704468
1788107822374948400,6.7919482421875,6.928684234619141,6.864511966705322,0.9548810124397278
1788107822385028900,6.80202880859375,6.884325981140137,6.9042768478393555,0.9884740114212036
1788107822395120400,6.812120361328125,6.8488030433654785,6.934426784515381,1.023514986038208
1788107822405209300,6.822209228515625,6.824976921081543,6.952572822570801,1.0589510202407837
1788107822415306200,6.83230615234375,6.8158278465271,6.956293106079102,1.092905044555664
1788107822425388000,6.842387939453125,6.820096015930176,6.946739196777344,1.1265209913253784
1788107822445565000,6.86256494140625,6.863585948944092,6.891208171844482,1.2010430097579956
1788107822455654000,6.87265380859375,6.9026288986206055,6.84461784362793,1.2429499626159668
1788107822465745200,6.8827451171875,6.950704097747803,6.788451194763184,1.2824350595474243
1788107822475834400,6.89283447265625,7.003533840179443,6.7264509201049805,1.3211510181427002
1788107822485921800,6.902921875,7.056368827819824,6.662323951721191,1.3642040491104126
1788107822496026600,6.913026611328125,7.105936050415039,6.597858905792236,1.4191080331802368
1788107822506112000,6.923112060546875,7.153957843780518,6.52926778793335,1.4931440353393555
1788107822516205300,6.933205322265625,7.208217144012451,6.44715690612793,1.5861070156097412
1788107822526295600,6.943295654296875,7.281691074371338,6.336320877075195,1.6935219764709473
1788107822546478800,6.963478759765625,7.5232720375061035,5.986602783203125,1.8976110219955444
1788107822556576300,6.973576171875,7.68120002746582,5.768959045410156,1.9386049509048462
1788107822566655000,6.983655029296875,7.839410781860352,5.5551838874816895,1.9296410083770752
1788107822576745200,6.9937451171875,7.978226184844971,5.3656392097473145,1.8967920541763306
1788107822586837500,7.00383740234375,8.086344718933105,5.211814880371094,1.867622971534729
1788107822596944100,7.013944091796875,8.164645195007324,5.09228515625,1.8566789627075195
1788107822607028700,7.02402880859375,8.222556114196777,4.996255874633789,1.862007975578308
1788107822617116700,7.03411669921875,8.275589942932129,4.90484619140625,1.8700560331344604
1788107822627199200,7.04419921875,8.336416244506836,4.8033342361450195,1.8633660078048706
1788107822637291800,7.054291748046875,8.41088581085205,4.687513828277588,1.8232619762420654
1788107822647381800,7.0643818359375,8.492463111877441,4.570262908935547,1.7408829927444458
1788107822657472000,7.074471923828125,8.567546844482422,4.470424175262451,1.628620982170105
1788107822667567000,7.084567138671875,8.621511459350586,4.409926891326904,1.5040509700775146
1788107822677662500,7.094662353515625,8.641464233398438,4.406578063964844,1.3954130411148071
1788107822687746600,7.10474658203125,8.624198913574219,4.462737083435059,1.32178795337677
1788107822697836300,7.114836181640625,8.574742317199707,4.567152976989746,1.2864220142364502
1788107822707926500,7.124926513671875,8.501399040222168,4.705202102661133,1.2756630182266235
1788107822718023000,7.13502294921875,8.413508415222168,4.861352920532227,1.272853970527649
1788107822728101400,7.145101318359375,8.321624755859375,5.018435001373291,1.267233967781067
1788107822738186800,7.155186767578125,8.234288215637207,5.1640448570251465,1.2526580095291138
1788107822748270300,7.165270263671875,8.156991958618164,5.290812969207764,1.2291500568389893
1788107822758359300,7.175359375,8.092217445373535,5.395516872406006,1.2018100023269653
1788107822768453400,7.185453369140625,8.039698600769043,5.478435039520264,1.1789519786834717
1788107822778544000,7.195544189453125,7.999845027923584,5.538763046264648,1.1681339740753174
1788107822788630800,7.205630859375,7.9734320640563965,5.578262805938721,1.160770058631897
1788107822798725600,7.2157255859375,7.957793235778809,5.6020731925964355,1.1533540487289429
1788107822808815000,7.225815185546875,7.94782018661499,5.617427825927734,1.1474549770355225
1788107822818907400,7.235907470703125,7.940354824066162,5.628520965576172,1.1447900533676147
1788107822828988700,7.24598876953125,7.934966087341309,5.636221885681152,1.1442420482635498
1788107822839085600,7.25608544921875,7.934205055236816,5.637129783630371,1.145063042640686
1788107822849185000,7.26618505859375,7.941058158874512,5.626976013183594,1.1474790573120117
1788107822859284700,7.27628466796875,7.9572319984436035,5.603723049163818,1.1492170095443726
1788107822879449900,7.296449951171875,8.01137638092041,5.523888111114502,1.1595629453659058
1788107822889536500,7.30653662109375,8.044246673583984,5.472646236419678,1.174865961074829
1788107822899635500,7.316635498046875,8.080066680908203,5.415699005126953,1.192795991897583
1788107822909713700,7.326713623046875,8.117467880249023,5.356369972229004,1.2066570520401
1788107822919806700,7.336806640625,8.15412712097168,5.299235820770264,1.211732029914856
1788107822929890300,7.346890380859375,8.186038970947266,5.2500457763671875,1.2107080221176147
1788107822939980300,7.356980224609375,8.211579322814941,5.209375858306885,1.213413953781128
1788107822950064000,7.367064208984375,8.231404304504395,5.175548076629639,1.2237999439239502
1788107822960158200,7.377158203125,8.24665355682373,5.147749900817871,1.2382869720458984
1788107822970239500,7.387239501953125,8.258407592773438,5.125926971435547,1.2504329681396484
1788107822980340000,7.397340087890625,8.266413688659668,5.110950946807861,1.2587900161743164
1788107822990435800,7.407435791015625,8.272912979125977,5.098421096801758,1.2669199705123901
1788107823000522000,7.41752197265625,8.279525756835938,5.084437847137451,1.2798010110855103
1788107823010601000,7.42760107421875,8.287202835083008,5.0679497718811035,1.2954390048980713
1788107823020688100,7.437688232421875,8.299097061157227,5.044970989227295,1.308905005455017
1788107823030769200,7.44776904296875,8.316553115844727,5.0159220695495605,1.3097599744796753
1788107823040860200,7.457860107421875,8.33707046508789,4.9856719970703125,1.2947230339050293
1788107823050947800,7.46794775390625,8.35457706451416,4.962626934051514,1.2701890468597412
1788107823061040600,7.47804052734375,8.363723754882812,4.953526973724365,1.2452709674835205
1788107823071120400,7.488120361328125,8.360396385192871,4.963417053222656,1.2281160354614258
1788107823081207600,7.49820751953125,8.343987464904785,4.993311882019043,1.2184979915618896
1788107823091301600,7.508301513671875,8.316628456115723,5.039519786834717,1.215291976928711
1788107823101389300,7.518389404296875,8.281496047973633,5.096070766448975,1.2193629741668701
1788107823111477500,7.5284775390625,8.242177963256836,5.156610012054443,1.2311960458755493
1788107823121562000,7.53856201171875,8.203152656555176,5.2158708572387695,1.2421530485153198
1788107823131651600,7.548651611328125,8.168997764587402,5.269463062286377,1.241047978401184
1788107823151820800,7.56882080078125,8.121875762939453,5.354008197784424,1.1873329877853394
1788107823161911800,7.578911865234375,8.104809761047363,5.390063762664795,1.139855980873108
1788107823182089000,7.5990888671875,8.074116706848145,5.453275203704834,1.0537660121917725
1788107823192170000,7.609169921875,8.06017017364502,5.479787826538086,1.0225540399551392
1788107823202259700,7.619259765625,8.046213150024414,5.504642009735107,0.9986770153045654
1788107823212354600,7.6293544921875,8.03297233581543,5.527392864227295,0.9793980121612549
1788107823222451500,7.639451416015625,8.020304679870605,5.5487751960754395,0.9621809720993042
1788107823232545000,7.649544921875,8.006497383117676,5.570988178253174,0.9487349987030029
1788107823242639000,7.65963916015625,7.989785194396973,5.596144199371338,0.9415259957313538
1788107823252724500,7.669724365234375,7.970355987548828,5.623002052307129,0.9461749792098999
1788107823262813400,7.6798134765625,7.951279163360596,5.64704704284668,0.9633240103721619
1788107823282988300,7.69998828125,7.92401123046875,5.678399085998535,1.002884030342102
1788107823293079300,7.710079345703125,7.914265155792236,5.690713882446289,1.0100239515304565
1788107823303159300,7.7201591796875,7.90342378616333,5.706654071807861,1.0049790143966675
1788107823313255200,7.730255126953125,7.887767791748047,5.730311870574951,0.9932820200920105
1788107823323350300,7.740350341796875,7.864401817321777,5.764309883117676,0.9817519783973694
1788107823333439500,7.750439453125,7.833958148956299,5.80686616897583,0.9743499755859375
1788107823343519500,7.76051953125,7.798234939575195,5.854499816894531,0.9759029746055603
1788107823353611500,7.770611572265625,7.760274887084961,5.903324127197266,0.9843369722366333
1788107823363696400,7.7806962890625,7.721827030181885,5.952392101287842,0.9911450147628784
1788107823373790200,7.790790283203125,7.682279109954834,6.003162860870361,0.9922670125961304
1788107823383879400,7.80087939453125,7.639042854309082,6.057769775390625,0.994234025478363
1788107823393967400,7.81096728515625,7.594727039337158,6.1123738288879395,0.9994999766349792
1788107823404055800,7.821055908203125,7.551807880401611,6.164456844329834,1.0048019886016846
1788107823414148000,7.831148193359375,7.5128021240234375,6.211162090301514,1.0095850229263306
1788107823424234800,7.84123486328125,7.479229927062988,6.250884056091309,1.0136979818344116
1788107823434322000,7.851322021484375,7.449580192565918,6.28626012802124,1.0132579803466797
1788107823444404000,7.861404052734375,7.4197869300842285,6.322423934936523,1.0068199634552002
1788107823454495500,7.87149560546875,7.386993885040283,6.362259864807129,0.996969997882843
1788107823464588000,7.881588134765625,7.351781845092773,6.404508113861084,0.9867129921913147
1788107823474680300,7.891680419921875,7.314624786376953,6.448192119598389,0.9782909750938416
1788107823484768500,7.9017685546875,7.276159763336182,6.492041110992432,0.9751409888267517
1788107823494860000,7.911860107421875,7.239589214324951,6.5324177742004395,0.9776909947395325
1788107823504946200,7.9219462890625,7.208250999450684,6.566145896911621,0.9832659959793091
1788107823515032000,7.932031982421875,7.1828508377075195,6.593188762664795,0.9881870150566101
1788107823525122000,7.9421220703125,7.161975860595703,6.615534782409668,0.990356981754303
1788107823535208700,7.952208740234375,7.141231060028076,6.638573169708252,0.9859740138053894
1788107823545291800,7.962291748046875,7.117372035980225,6.665946960449219,0.9737269878387451
1788107823555383000,7.972383056640625,7.088953018188477,6.698081016540527,0.9604359865188599
1788107823565461200,7.982461181640625,7.0590500831604,6.730642795562744,0.9530439972877502
1788107823575547000,7.992546875,7.030840873718262,6.760655879974365,0.9491109848022461
1788107823585631500,8.002631591796876,7.003402233123779,6.789930820465088,0.9429680109024048
1788107823595716000,8.012716064453125,6.976426124572754,6.818975925445557,0.9332749843597412
1788107823605802800,8.022802734375,6.951801776885986,6.845448017120361,0.9231910109519958
1788107823615889700,8.0328896484375,6.93248176574707,6.865994930267334,0.9158570170402527
1788107823625977300,8.042977294921876,6.9194512367248535,6.8800530433654785,0.9088940024375916
1788107823636076300,8.053076171875,6.91302490234375,6.887477874755859,0.9015550017356873
1788107823646171000,8.0631708984375,6.9112019538879395,6.890192031860352,0.8947389721870422
1788107823656257500,8.073257568359375,6.911324977874756,6.890695095062256,0.8899109959602356
1788107823666349000,8.08334912109375,6.912374973297119,6.890042781829834,0.8867949843406677
1788107823676439600,8.093439453125,6.914498805999756,6.888111114501953,0.8852159976959229
1788107823686526700,8.103526611328125,6.919347763061523,6.883628845214844,0.8822190165519714
1788107823696617000,8.113616943359375,6.926243782043457,6.877695083618164,0.8743569850921631
1788107823706703000,8.123703125,6.933060169219971,6.872354984283447,0.8621860146522522
1788107823716792300,8.133792236328125,6.937814235687256,6.869114875793457,0.8496860265731812
1788107823726888000,8.143887939453125,6.940553188323975,6.867549896240234,0.8399389982223511
1788107823736976100,8.15397607421875,6.9444050788879395,6.864561080932617,0.8324919939041138
1788107823747061200,8.164061279296876,6.949913024902344,6.8597798347473145,0.8259180188179016
1788107823757153000,8.174153076171875,6.956256866455078,6.854109764099121,0.8195409774780273
1788107823767240200,8.184240234375,6.961688995361328,6.849387168884277,0.8128659725189209
1788107823777330200,8.194330078125,6.951613903045654,6.859263896942139,0.8158460259437561
1788107823787428600,8.2044287109375,6.941866874694824,6.867725849151611,0.8275070190429688
1788107823797510700,8.2145107421875,6.935923099517822,6.872849941253662,0.8348090052604675
1788107823807593500,8.224593505859374,6.934704780578613,6.87392520904541,0.8360739946365356
1788107823817689000,8.234689208984374,6.939933776855469,6.870275020599365,0.8225529789924622
1788107823827780000,8.244780029296875,6.945615768432617,6.867298126220703,0.7991480231285095
1788107823837860600,8.254860595703125,6.945417881011963,6.870297908782959,0.7746919989585876
1788107823847943200,8.264943115234376,6.935111045837402,6.883173942565918,0.7524430155754089
1788107823858037200,8.275037353515625,6.911930084228516,6.908269882202148,0.7355530261993408
1788107823868125700,8.285125732421875,6.877922058105469,6.943070888519287,0.7266020178794861
1788107823878209000,8.295208984375,6.838961124420166,6.981504917144775,0.7260779738426208
1788107823888298500,8.305298583984374,6.798805236816406,7.019526958465576,0.7365800142288208
1788107823898384600,8.315384521484376,6.765921115875244,7.049139976501465,0.7562519907951355
1788107823908479700,8.325479736328125,6.744351863861084,7.067661762237549,0.7758200168609619
1788107823918563300,8.335563232421874,6.732032775878906,7.078494071960449,0.7840409874916077
1788107823928657400,8.345657470703125,6.72490119934082,7.085785865783691,0.7793269753456116
1788107823938743000,8.355742919921875,6.719615936279297,7.091815948486328,0.7699570059776306
1788107823948825300,8.365825439453126,6.716291904449463,7.095552921295166,0.7645570039749146
1788107823958915000,8.3759150390625,6.717552185058594,7.094219207763672,0.7658609747886658
1788107823969001200,8.386001220703125,6.723416805267334,7.088376998901367,0.7684829831123352
1788107823979091200,8.39609130859375,6.731663227081299,7.080482006072998,0.7690550088882446
1788107823989184800,8.406184814453125,6.740530967712402,7.072548866271973,0.764365017414093
1788107823999275800,8.41627587890625,6.747594833374023,7.067087173461914,0.7524639964103699
1788107824009372700,8.42637255859375,6.746853828430176,7.069534778594971,0.7359619736671448
1788107824019457800,8.436457763671875,6.734805107116699,7.082606792449951,0.7204530239105225
1788107824029552000,8.44655224609375,6.7118330001831055,7.105641841888428,0.7079150080680847
1788107824039644400,8.45664453125,6.682989120483398,7.13316011428833,0.7040219902992249
1788107824049732400,8.466732421875,6.657012939453125,7.156499862670898,0.7132250070571899
1788107824059822800,8.47682275390625,6.6422929763793945,7.168398857116699,0.7307389974594116
1788107824069906000,8.486906005859375,6.641273021697998,7.167697906494141,0.7467039823532104
1788107824079993600,8.49699365234375,6.651112079620361,7.157876968383789,0.7533509731292725
1788107824090075600,8.50707568359375,6.664494037628174,7.146256923675537,0.745369017124176
1788107824100162800,8.517162841796875,6.6720662117004395,7.140987873077393,0.7278919816017151
1788107824110249500,8.52724951171875,6.666831970214844,7.147327899932861,0.7134810090065002
1788107824120338000,8.537337890625,6.646490097045898,7.166380882263184,0.7121250033378601
1788107824130422000,8.547422119140625,6.609888076782227,7.199188232421875,0.7218620181083679
1788107824140504000,8.557504150390624,6.560359954833984,7.2427978515625,0.737214982509613
1788107824150593800,8.56759375,6.5029730796813965,7.2927069664001465,0.7534679770469666
1788107824160681000,8.577680908203124,6.443708896636963,7.343585014343262,0.7683529853820801
1788107824170777600,8.587777587890624,6.389737129211426,7.3886590003967285,0.786736011505127
1788107824180858600,8.597858642578124,6.348711013793945,7.421174049377441,0.8123859763145447
1788107824190945800,8.60794580078125,6.32740592956543,7.436057090759277,0.8419950008392334
1788107824201027000,8.618027099609375,6.326605796813965,7.434208869934082,0.8640589714050293
1788107824211126300,8.628126220703125,6.341838836669922,7.420591831207275,0.8694159984588623
1788107824221207800,8.638207763671875,6.365393161773682,7.401327133178711,0.8614699840545654
1788107824231307500,8.6483076171875,6.390265941619873,7.380900859832764,0.852558970451355
1788107824241393200,8.65839306640625,6.411708831787109,7.362240791320801,0.8528810143470764
1788107824251481600,8.668481689453126,6.42706298828125,7.347682952880859,0.8628000020980835
1788107824261561900,8.678561767578126,6.435964107513428,7.338429927825928,0.875095009803772
1788107824271658200,8.688658203125,6.436889171600342,7.336878776550293,0.8812729716300964
1788107824281750500,8.69875048828125,6.428300857543945,7.344420909881592,0.8811399936676025
1788107824291845400,8.708845458984374,6.41021203994751,7.360045909881592,0.8825700283050537
1788107824301928200,8.71892822265625,6.383918762207031,7.381074905395508,0.8973760008811951
1788107824312003800,8.72900390625,6.356342792510986,7.400989055633545,0.9285680055618286
1788107824322090500,8.739090576171876,6.334534168243408,7.414463043212891,0.9692339897155762
1788107824332181800,8.749181640625,6.322615146636963,7.419608116149902,1.0069559812545776
1788107824342267400,8.759267333984376,6.321335792541504,7.417418956756592,1.030830979347229
1788107824352367600,8.76936767578125,6.328279972076416,7.410433769226074,1.0384329557418823
1788107824362465300,8.77946533203125,6.3368940353393555,7.403203964233398,1.0374610424041748
1788107824372557800,8.789557861328126,6.342333793640137,7.398406028747559,1.0384680032730103
1788107824382647000,8.79964697265625,6.342235088348389,7.397128105163574,1.0481189489364624
1788107824392737500,8.809737548828124,6.335233211517334,7.399910926818848,1.0705859661102295
1788107824402828000,8.819828125,6.324720859527588,7.404376983642578,1.101410984992981
1788107824412918800,8.829918701171875,6.313490867614746,7.409224987030029,1.1327810287475586
1788107824423007500,8.840007568359376,6.301904201507568,7.414269924163818,1.1638619899749756
1788107824433103600,8.850103515625,6.291831970214844,7.418540000915527,1.19084894657135
1788107824443178800,8.8601787109375,6.283868789672852,7.422571182250977,1.207651972770691
1788107824453274400,8.8702744140625,6.28166389465332,7.421480178833008,1.2256900072097778
1788107824463361800,8.88036181640625,6.284093856811523,7.416169166564941,1.2452349662780762
1788107824473447700,8.89044775390625,6.291322231292725,7.406208038330078,1.2678109407424927
1788107824483534800,8.900534912109375,6.304566860198975,7.390145778656006,1.2954699993133545
1788107824493627100,8.910627197265624,6.323666095733643,7.368422985076904,1.32573401927948
1788107824503708200,8.920708251953124,6.346190929412842,7.344139099121094,1.3525749444961548
1788107824513799000,8.930798828125,6.367577075958252,7.321760177612305,1.37323796749115
1788107824523878000,8.9408779296875,6.382948875427246,7.30527400970459,1.3895809650421143
1788107824533974800,8.950974853515625,6.389541149139404,7.296709060668945,1.4042010307312012
1788107824544066600,8.961066650390626,6.385343074798584,7.296596050262451,1.4237509965896606
1788107824554154200,8.971154296875,6.369052886962891,7.305290222167969,1.4518630504608154
1788107824564225000,8.98122509765625,6.345448970794678,7.318082809448242,1.4902909994125366
1788107824574320600,8.991320556640625,6.321680068969727,7.32917594909668,1.5360790491104126
1788107824584406000,9.001406005859375,6.300796031951904,7.33754301071167,1.5812909603118896
1788107824594506800,9.0115068359375,6.281617164611816,7.346192836761475,1.61702299118042
1788107824604586800,9.021586669921875,6.259955883026123,7.360013961791992,1.6380430459976196
1788107824614684000,9.031683837890625,6.23110818862915,7.381804943084717,1.6499030590057373
1788107824624771300,9.041771240234375,6.193795204162598,7.410177230834961,1.6631959676742554
1788107824634875400,9.05187548828125,6.149055004119873,7.442419052124023,1.6851099729537964
1788107824644959200,9.061959228515626,6.100505828857422,7.475499153137207,1.7148849964141846
1788107824655049500,9.072049560546875,6.052990913391113,7.5063629150390625,1.748100996017456
1788107824665129200,9.082129150390625,6.00855016708374,7.534055233001709,1.781944990158081
1788107824675221500,9.092221435546875,5.967871189117432,7.55880880355835,1.8135390281677246
1788107824685317600,9.102317626953125,5.930531978607178,7.581482887268066,1.8411790132522583
1788107824695413000,9.1124130859375,5.896195888519287,7.60379695892334,1.85932195186615
1788107824705496000,9.12249609375,5.866283893585205,7.625607967376709,1.8646160364151
1788107824715589400,9.13258935546875,5.84004020690918,7.6463141441345215,1.8622119426727295
1788107824725676300,9.14267626953125,5.816001892089844,7.665653228759766,1.8579360246658325
1788107824735772700,9.152772705078124,5.794547080993652,7.6824140548706055,1.8557389974594116
1788107824745856800,9.162856689453125,5.775585174560547,7.696148872375488,1.8579339981079102
1788107824755951900,9.172951904296875,5.759523868560791,7.706499099731445,1.864881992340088
1788107824766037000,9.183037109375,5.748311996459961,7.712472915649414,1.8747520446777344
1788107824776127500,9.19312744140625,5.743679046630859,7.713566780090332,1.8844209909439087
1788107824786209800,9.203209716796875,5.745969772338867,7.710339069366455,1.8906300067901611
1788107824796301300,9.21330126953125,5.754075050354004,7.704041004180908,1.8916579484939575
1788107824806393000,9.22339306640625,5.762913227081299,7.6975250244140625,1.8912789821624756
1788107824816488700,9.23348876953125,5.768423080444336,7.6921000480651855,1.8965480327606201
1788107824826581500,9.24358154296875,5.769649982452393,7.688010215759277,1.909350037574768
1788107824836673000,9.253673095703125,5.768184185028076,7.684107780456543,1.9293869733810425
1788107824846759700,9.263759765625,5.76515007019043,7.681482791900635,1.948814034461975
1788107824856857900,9.27385791015625,5.75761079788208,7.683639049530029,1.96254301071167
1788107824866943700,9.28394384765625,5.742053985595703,7.692458152770996,1.973541021347046
1788107824877030000,9.29402978515625,5.718893051147461,7.706056118011475,1.9877150058746338
1788107824887116300,9.3041162109375,5.689511775970459,7.721710205078125,2.011138916015625
1788107824897206800,9.314206787109375,5.657401084899902,7.736853122711182,2.0432519912719727
1788107824907294700,9.324294677734375,5.627112865447998,7.748403072357178,2.0827488899230957
1788107824917385700,9.3343857421875,5.602386951446533,7.755145072937012,2.1239070892333984
1788107824927469300,9.34446923828125,5.5835652351379395,7.757839202880859,2.1632649898529053
1788107824937559000,9.35455908203125,5.571488857269287,7.757299900054932,2.1960959434509277
1788107824947646200,9.364646240234375,5.565684795379639,7.754277229309082,2.2213330268859863
1788107824957741300,9.3747412109375,5.566205024719238,7.748644828796387,2.239598035812378
1788107824967827000,9.384826904296874,5.5695319175720215,7.741582870483398,2.2557129859924316
1788107824977919700,9.394919677734375,5.573637008666992,7.73206090927124,2.278114080429077
1788107824988009000,9.405009033203125,5.580204963684082,7.718592166900635,2.3075199127197266
1788107824998104300,9.415104248046875,5.59102201461792,7.700477123260498,2.3416059017181396
1788107825008194300,9.4251943359375,5.60472297668457,7.679683208465576,2.3768808841705322
1788107825018281200,9.43528125,5.618836879730225,7.658495903015137,2.411665916442871
1788107825028369700,9.44536962890625,5.629240036010742,7.638956069946289,2.4490859508514404
1788107825038467000,9.455467041015625,5.632418155670166,7.622544765472412,2.4925239086151123
1788107825048544500,9.46554443359375,5.6280059814453125,7.609132766723633,2.542949914932251
1788107825058631000,9.475630859375,5.617467880249023,7.598624229431152,2.5971078872680664
1788107825068713000,9.485712890625,5.602949142456055,7.592227935791016,2.6467080116271973
1788107825078807800,9.495807861328124,5.579888820648193,7.594453811645508,2.6886990070343018
1788107825088895200,9.505895263671874,5.552818775177002,7.60195779800415,2.723314046859741
1788107825098984000,9.51598388671875,5.524810791015625,7.609424114227295,2.7592010498046875
1788107825109070600,9.526070556640626,5.504164218902588,7.610082149505615,2.798358917236328
1788107825119156200,9.53615625,5.530027866363525,7.583381175994873,2.8197669982910156
1788107825129241900,9.546241943359375,5.578338146209717,7.546051025390625,2.8247499465942383
1788107825139336700,9.556336669921874,5.6263909339904785,7.513763904571533,2.815502882003784
1788107825149409800,9.566409912109375,5.655557155609131,7.498449802398682,2.7978339195251465
1788107825159500000,9.5765,5.6546101570129395,7.505519866943359,2.7807440757751465
1788107825169586400,9.58658642578125,5.63160514831543,7.5279011726379395,2.766901969909668
1788107825179689500,9.596689453125,5.603871822357178,7.55155611038208,2.758734941482544
1788107825189764600,9.6067646484375,5.583414077758789,7.566804885864258,2.75844407081604
1788107825199853600,9.616853515625,5.578160762786865,7.570256233215332,2.7595860958099365
1788107825209934800,9.626934814453126,5.5918731689453125,7.563098907470703,2.751457929611206
1788107825220022500,9.6370224609375,5.621010780334473,7.548271179199219,2.7327370643615723
1788107825230109700,9.647109619140625,5.662452220916748,7.528662204742432,2.70108699798584
1788107825240207400,9.657207275390626,5.713220119476318,7.5053229331970215,2.6588048934936523
1788107825250297000,9.667297119140626,5.7669219970703125,7.48020076751709,2.6132829189300537
1788107825260382200,9.67738232421875,5.818656921386719,7.454570770263672,2.571500062942505
1788107825270464300,9.68746435546875,5.8684821128845215,7.4290242195129395,2.5319039821624756
1788107825280554200,9.69755419921875,5.912147045135498,7.406521797180176,2.4959731101989746
1788107825290635500,9.707635498046875,5.949059009552002,7.389276027679443,2.4591219425201416
1788107825300729300,9.717729248046876,5.980498790740967,7.378239154815674,2.415616989135742
1788107825310817500,9.727817626953126,6.006374835968018,7.373915195465088,2.364069938659668
1788107825320904400,9.737904541015626,6.025431156158447,7.3759307861328125,2.3086400032043457
1788107825330995200,9.7479951171875,6.036151885986328,7.383640766143799,2.2553749084472656
1788107825341081000,9.7580810546875,6.040105819702148,7.3937811851501465,2.2111260890960693
1788107825351156200,9.76815625,6.04208517074585,7.402339935302734,2.1768269538879395
1788107825361241000,9.778240966796876,6.0472731590271,7.4057841300964355,2.1505420207977295
1788107825371333000,9.7883330078125,6.058506965637207,7.402892112731934,2.1287670135498047
1788107825381415000,9.798414794921875,6.076004981994629,7.394174098968506,2.1091060638427734
1788107825391502300,9.80850244140625,6.098965167999268,7.3810529708862305,2.0887110233306885
1788107825401585700,9.818585693359376,6.123612880706787,7.366949081420898,2.0662500858306885
1788107825411675100,9.828675048828124,6.146818161010742,7.354885101318359,2.040168046951294
1788107825421763600,9.838763671875,6.16611909866333,7.346092224121094,2.013422966003418
1788107825431854600,9.8488544921875,6.182326793670654,7.338479042053223,1.991371989250183
1788107825441939000,9.85893896484375,6.197690010070801,7.329757213592529,1.9756699800491333
1788107825452033800,9.86903369140625,6.21331787109375,7.3195481300354,1.9644030332565308
1788107825462110000,9.87910986328125,6.227585792541504,7.310367107391357,1.9533799886703491
1788107825472211200,9.889211181640626,6.237346172332764,7.304677963256836,1.9435019493103027
1788107825482304800,9.8993046875,6.242494106292725,7.302184104919434,1.9363230466842651
1788107825492396300,9.909396240234376,6.244564056396484,7.30169677734375,1.9314839839935303
1788107825502481400,9.9194814453125,6.245388984680176,7.302250862121582,1.9267200231552124
1788107825512572400,9.929572509765626,6.245543003082275,7.303524971008301,1.9213759899139404
1788107825522657000,9.939656982421875,6.244690895080566,7.30557107925415,1.9163559675216675
1788107825532749600,9.94974951171875,6.240802764892578,7.310017108917236,1.9120659828186035
1788107825542835700,9.959835693359375,6.232244968414307,7.318069934844971,1.9091800451278687
1788107825552928000,9.969927978515624,6.219311237335205,7.329675197601318,1.906844973564148
1788107825563022300,9.980022216796876,6.203196048736572,7.343800067901611,1.9049880504608154
1788107825573115100,9.990115234375,6.1842827796936035,7.360991954803467,1.9001189470291138
1788107825583203000,10.000203125,6.165363788604736,7.379303932189941,1.890537977218628
1788107825593279500,10.010279541015626,6.147168159484863,7.397029876708984,1.880499005317688
1788107825603369700,10.02036962890625,6.129848957061768,7.413833141326904,1.8708219528198242
1788107825613460200,10.030460205078125,6.115118026733398,7.427524089813232,1.864725947380066
1788107825623559700,10.0405595703125,6.105560779571533,7.435965061187744,1.8624019622802734
1788107825633656300,10.05065625,6.1004791259765625,7.440214157104492,1.8620909452438354
1788107825643747000,10.0607470703125,6.100143909454346,7.440996170043945,1.8600540161132812
1788107825653839000,10.070839111328125,6.1024699211120605,7.440525054931641,1.8542989492416382
1788107825663918000,10.08091796875,6.10514497756958,7.440287113189697,1.8464349508285522
1788107825674006500,10.091006591796875,6.105399131774902,7.4420647621154785,1.8384029865264893
1788107825684096000,10.101095947265625,6.102846145629883,7.445974826812744,1.8310500383377075
1788107825694185500,10.111185546875,6.099208831787109,7.450818061828613,1.8234440088272095
1788107825704271400,10.121271240234375,6.095810890197754,7.456111907958984,1.8131439685821533
1788107825714361900,10.13136181640625,6.092576026916504,7.461535930633545,1.8016669750213623
1788107825724451300,10.141451416015625,6.091545104980469,7.464203834533691,1.7940829992294312
1788107825734545200,10.151545166015625,6.094180107116699,7.462612152099609,1.7917560338974
1788107825744635100,10.16163525390625,6.102468013763428,7.456035137176514,1.7909150123596191
1788107825754728000,10.17172802734375,6.116429805755615,7.445362091064453,1.7876839637756348
1788107825764817400,10.1818173828125,6.133030891418457,7.433113098144531,1.7818009853363037
1788107825774910000,10.191909912109375,6.149738788604736,7.420657157897949,1.7760939598083496
1788107825784995300,10.201995361328125,6.165989875793457,7.408177852630615,1.7718479633331299
1788107825795090400,10.21209033203125,6.182956218719482,7.3940629959106445,1.771677017211914
1788107825805174800,10.2221748046875,6.201486110687256,7.378612995147705,1.7713350057601929
1788107825815263500,10.232263427734376,6.2215728759765625,7.362613201141357,1.7674649953842163
1788107825825351000,10.242350830078125,6.2413811683654785,7.34719705581665,1.761773943901062
1788107825835440400,10.2524404296875,6.2587971687316895,7.333363056182861,1.7576210498809814
1788107825845521000,10.26252099609375,6.271931171417236,7.322656154632568,1.7554470300674438
1788107825855611400,10.272611328125,6.279776096343994,7.316914081573486,1.7513279914855957
1788107825865701400,10.282701416015625,6.283027172088623,7.315817832946777,1.7442450523376465
1788107825875794000,10.2927939453125,6.282352924346924,7.3185529708862305,1.7351709604263306
1788107825885884400,10.302884521484375,6.277972221374512,7.324437141418457,1.7261749505996704
1788107825895973000,10.31297314453125,6.2693657875061035,7.334051132202148,1.7166080474853516
1788107825906054100,10.32305419921875,6.257206916809082,7.346481800079346,1.7077889442443848
1788107825916147000,10.33314697265625,6.241629123687744,7.361609935760498,1.6996270418167114
1788107825926238000,10.343238037109375,6.223769187927246,7.378445148468018,1.6921130418777466
1788107825936337400,10.35333740234375,6.204893112182617,7.396261215209961,1.6836520433425903
1788107825946431500,10.363431396484375,6.186160087585449,7.414117813110352,1.673995018005371
1788107825956524300,10.373524169921875,6.16843318939209,7.431085109710693,1.6641370058059692
1788107825966612200,10.3836123046875,6.152810096740723,7.445915222167969,1.6556739807128906
1788107825976697600,10.393697509765625,6.139121055603027,7.458693027496338,1.648972988128662
1788107825986787000,10.403787109375,6.127385139465332,7.469821929931641,1.6422230005264282
1788107825996876800,10.413876708984375,6.116886138916016,7.480517864227295,1.632662057876587
1788107826006977800,10.423977783203124,6.106048107147217,7.49202823638916,1.6204030513763428
1788107826017070600,10.434070556640625,6.094223976135254,7.504691123962402,1.6062500476837158
1788107826027158000,10.444157958984375,6.081867218017578,7.517556190490723,1.5928820371627808
1788107826037250800,10.454250732421874,6.07037878036499,7.529230117797852,1.581521987915039
1788107826047337000,10.4643369140625,6.0623040199279785,7.537516117095947,1.572996973991394
1788107826057428200,10.47442822265625,6.060122966766357,7.540524005889893,1.566972017288208
1788107826067511800,10.48451171875,6.063765048980713,7.539121150970459,1.5596100091934204
1788107826077603600,10.494603515625,6.071250915527344,7.535319805145264,1.5488150119781494
1788107826087701000,10.504700927734374,6.078393936157227,7.532538890838623,1.534271001815796
1788107826097787400,10.514787353515626,6.082143783569336,7.532375812530518,1.5201339721679688
1788107826107872500,10.52487255859375,6.082363128662109,7.534369945526123,1.5093400478363037
1788107826117960200,10.534960205078125,6.081021785736084,7.5367841720581055,1.5026750564575195
1788107826128046000,10.545046142578125,6.080893039703369,7.53774881362915,1.4983489513397217
1788107826138145300,10.555145263671875,6.083600044250488,7.536759853363037,1.4923319816589355
1788107826148243500,10.565243408203125,6.088632106781006,7.534501075744629,1.483180046081543
1788107826158329300,10.575329345703125,6.091977119445801,7.534290790557861,1.4704560041427612
1788107826168417000,10.5854169921875,6.091178894042969,7.537921905517578,1.455083966255188
1788107826178509800,10.595509765625,6.084104061126709,7.546536922454834,1.439932942390442
1788107826188599800,10.605599853515624,6.074349880218506,7.556283950805664,1.4299780130386353
1788107826198695700,10.61569580078125,6.066723823547363,7.563033103942871,1.4266630411148071
1788107826208788700,10.625788818359375,6.065662860870361,7.562845230102539,1.4321609735488892
1788107826218874400,10.635874267578124,6.07581090927124,7.552487850189209,1.443755030632019
1788107826228961800,10.6459619140625,6.097664833068848,7.532942771911621,1.4536969661712646
1788107826239042300,10.656042236328124,6.126129150390625,7.50938606262207,1.455907940864563
1788107826249131300,10.66613134765625,6.154994010925293,7.486196041107178,1.4535889625549316
1788107826259216600,10.676216552734376,6.179447174072266,7.466689109802246,1.4501780271530151
1788107826269308700,10.68630859375,6.1972198486328125,7.451476097106934,1.4525840282440186
1788107826279392500,10.696392578125,6.2107391357421875,7.438512802124023,1.4612469673156738
1788107826289481500,10.7064814453125,6.22327184677124,7.4258270263671875,1.472398042678833
1788107826299563000,10.71656298828125,6.235901832580566,7.4132981300354,1.482079029083252
1788107826309652200,10.72665234375,6.249091148376465,7.4011077880859375,1.487434983253479
1788107826319735800,10.73673583984375,6.260369777679443,7.391845226287842,1.4860659837722778
1788107826329828000,10.746828125,6.2658610343933105,7.38838005065918,1.4801479578018188
1788107826339913500,10.75691357421875,6.261925220489502,7.393237113952637,1.4725279808044434
1788107826350002700,10.767002685546874,6.247511863708496,7.4073262214660645,1.4629119634628296
1788107826360091400,10.77709130859375,6.222682952880859,7.430901050567627,1.4490989446640015
1788107826370181000,10.78718115234375,6.18839693069458,7.462148189544678,1.4353090524673462
1788107826380266500,10.7972666015625,6.149313926696777,7.495516777038574,1.4293819665908813
1788107826390357200,10.807357177734374,6.115702152252197,7.5221028327941895,1.4339369535446167
1788107826400436000,10.81743603515625,6.095012187957764,7.537048816680908,1.443524956703186
1788107826410529500,10.827529541015625,6.089713096618652,7.539597988128662,1.4525209665298462
1788107826420612400,10.8376123046875,6.095372200012207,7.534608840942383,1.4546899795532227
1788107826430703600,10.84770361328125,6.1054229736328125,7.527671813964844,1.4484169483184814
1788107826440781300,10.85778125,6.113412857055664,7.523835182189941,1.4346070289611816
1788107826450868700,10.86786865234375,6.113932132720947,7.526645183563232,1.417551040649414
1788107826460951600,10.87795166015625,6.106184959411621,7.5350141525268555,1.4064439535140991
1788107826471036700,10.88803662109375,6.095178127288818,7.5434889793396,1.4087460041046143
1788107826481131000,10.898131103515626,6.0910420417785645,7.543540954589844,1.4262369871139526
1788107826491229000,10.90822900390625,6.1024088859558105,7.529540061950684,1.4514189958572388
1788107826501325000,10.918324951171876,6.13001823425293,7.504220008850098,1.466128945350647
1788107826511416300,10.928416259765624,6.166604042053223,7.475738048553467,1.4582159519195557
1788107826521497600,10.93849755859375,6.197916030883789,7.455251216888428,1.4300509691238403
1788107826531581000,10.948580810546876,6.213510990142822,7.448400020599365,1.3977190256118774
1788107826541671200,10.958671142578124,6.214888095855713,7.450389862060547,1.380892038345337
1788107826551760000,10.968759765625,6.208911895751953,7.454812049865723,1.3838950395584106
1788107826561846000,10.978845947265626,6.202611923217773,7.457831859588623,1.3958309888839722
1788107826571937500,10.9889375,6.198896884918213,7.45978307723999,1.4019060134887695
1788107826582027800,10.99902783203125,6.196342945098877,7.463440895080566,1.393710970878601
1788107826592114200,11.0091142578125,6.192166805267334,7.470972061157227,1.3717290163040161
1788107826602212000,11.019212158203125,6.183938026428223,7.482687950134277,1.3447359800338745
1788107826612302800,11.029302734375,6.1706671714782715,7.498071193695068,1.3197619915008545
1788107826622398200,11.039398193359375,6.156686782836914,7.5132222175598145,1.298717975616455
1788107826632486400,11.049486328125,6.150365829467773,7.520933151245117,1.2839709520339966
1788107826642579500,11.059579345703124,6.156866073608398,7.517230033874512,1.2744799852371216
1788107826652665600,11.06966552734375,6.1771559715271,7.501408100128174,1.269500970840454
1788107826662764000,11.079763916015626,6.20735502243042,7.478105068206787,1.2596549987792969
1788107826672850000,11.089849853515625,6.239309787750244,7.454395771026611,1.2421669960021973
1788107826682941200,11.099941162109374,6.2662248611450195,7.434703826904297,1.2245899438858032
1788107826693062700,11.110062744140626,6.2867817878723145,7.41906213760376,1.2140350341796875
1788107826703148800,11.120148681640625,6.302128791809082,7.407259941101074,1.2065110206604004
1788107826713244700,11.13024462890625,6.314146995544434,7.3987531661987305,1.1958179473876953
1788107826723341000,11.140341064453125,6.3228440284729,7.393346786499023,1.1832530498504639
1788107826733426400,11.150426513671874,6.329351902008057,7.389007091522217,1.175516963005066
1788107826743507700,11.1605078125,6.336544990539551,7.382476806640625,1.1778010129928589
1788107826753598200,11.17059814453125,6.347902774810791,7.371201992034912,1.1872249841690063
1788107826763691800,11.18069189453125,6.361783027648926,7.359272003173828,1.1869410276412964
1788107826773783800,11.19078369140625,6.372852802276611,7.351962089538574,1.1727689504623413
1788107826783873300,11.200873291015625,6.374637126922607,7.353226184844971,1.1550170183181763
1788107826793962500,11.21096240234375,6.366299152374268,7.362091064453125,1.144495964050293
1788107826804051500,11.221051513671876,6.352712154388428,7.373570919036865,1.146070957183838
1788107826814145500,11.2311455078125,6.342870235443115,7.380174160003662,1.1580389738082886
1788107826824239600,11.241239501953125,6.341875076293945,7.379158020019531,1.1698939800262451
1788107826834331000,11.251330810546875,6.348995208740234,7.372632026672363,1.172402024269104
1788107826844421400,11.26142138671875,6.357304096221924,7.366686820983887,1.1647449731826782
1788107826854517800,11.271517822265626,6.361085891723633,7.364634990692139,1.1570329666137695
1788107826864612600,11.281612548828125,6.359447002410889,7.365811824798584,1.158555030822754
1788107826874717200,11.29171728515625,6.357463836669922,7.365931034088135,1.1686320304870605
1788107826884798500,11.301798583984375,6.360711097717285,7.361179828643799,1.1808209419250488
1788107826894909200,11.3119091796875,6.370895862579346,7.350894927978516,1.1899640560150146
1788107826905005800,11.322005859375,6.386290073394775,7.337179183959961,1.1921080350875854
1788107826915102000,11.33210205078125,6.40271520614624,7.323102951049805,1.1905479431152344
1788107826925186300,11.342186279296875,6.417720794677734,7.309683799743652,1.1922279596328735
1788107826935285500,11.352285400390626,6.433651924133301,7.294384002685547,1.2000579833984375
1788107826945363500,11.362363525390625,6.454094886779785,7.274619102478027,1.210198998451233
1788107826955447600,11.372447509765625,6.478532791137695,7.252246856689453,1.2138769626617432
1788107826965530600,11.382530517578125,6.501486778259277,7.232416152954102,1.2094730138778687
1788107826975621600,11.39262158203125,6.5196099281311035,7.217275142669678,1.2023370265960693
1788107826985701600,11.40270166015625,6.533010959625244,7.205883026123047,1.197924017906189
1788107826995787000,11.412787109375,6.542803764343262,7.196910858154297,1.198415994644165
1788107827005874400,11.42287451171875,6.550642013549805,7.1891608238220215,1.2021039724349976
1788107827015967700,11.4329677734375,6.558716773986816,7.181604862213135,1.2032309770584106
1788107827026052900,11.443052978515626,6.565158843994141,7.1766791343688965,1.1974890232086182
1788107827036145000,11.453144775390625,6.567142963409424,7.176327228546143,1.188660979270935
1788107827046232800,11.46323291015625,6.562860012054443,7.182001113891602,1.1780060529708862
1788107827056320500,11.473320556640624,6.552277088165283,7.193702220916748,1.1654579639434814
1788107827066407400,11.483407470703124,6.540112018585205,7.206109046936035,1.1571099758148193
1788107827076491500,11.493491455078125,6.532766819000244,7.212996959686279,1.1556869745254517
1788107827086578200,11.503578125,6.534241199493408,7.2111310958862305,1.1590150594711304
1788107827096672300,11.51367236328125,6.543179035186768,7.203257083892822,1.1575349569320679
1788107827106764500,11.5237646484375,6.552364826202393,7.197268962860107,1.142730951309204
1788107827116849400,11.533849365234374,6.555017948150635,7.198676109313965,1.1183890104293823
1788107827126943500,11.543943603515626,6.548050880432129,7.207981109619141,1.0991129875183105
1788107827137030000,11.55402978515625,6.535274028778076,7.221340179443359,1.0873810052871704
1788107827147116500,11.564116455078125,6.521174907684326,7.235273838043213,1.079380989074707
1788107827157195500,11.574195556640625,6.508053779602051,7.248542785644531,1.069506049156189
1788107827167287800,11.584287841796876,6.498509883880615,7.258700847625732,1.0586040019989014
1788107827177379800,11.5943798828125,6.494708061218262,7.262887954711914,1.053205966949463
1788107827187464700,11.604464599609376,6.498889923095703,7.2585530281066895,1.0572839975357056
1788107827197551900,11.6145517578125,6.515235900878906,7.241631031036377,1.0726020336151123
1788107827207643600,11.6246435546875,6.545898914337158,7.209647178649902,1.1009949445724487
1788107827217734400,11.634734375,6.592732906341553,7.161291122436523,1.1365530490875244
1788107827227866400,11.644866455078125,6.652870178222656,7.1005330085754395,1.1669349670410156
1788107827237963500,11.654963623046875,6.713740825653076,7.040981769561768,1.1790690422058105
1788107827248054500,11.665054443359375,6.761264801025391,6.9967169761657715,1.1710050106048584
1788107827258142500,11.675142578125,6.784090995788574,6.977089881896973,1.1559820175170898
1788107827268233700,11.685233642578124,6.782057762145996,6.979718208312988,1.1520320177078247
1788107827278321200,11.695321044921876,6.765430927276611,6.994034767150879,1.1629270315170288
1788107827288414500,11.70541455078125,6.746255874633789,7.009419918060303,1.1815639734268188
1788107827298512100,11.71551220703125,6.7347540855407715,7.017548084259033,1.1987849473953247
1788107827308608500,11.7256083984375,6.7335591316223145,7.016804218292236,1.2098289728164673
1788107827318697000,11.735697021484375,6.739895820617676,7.010441780090332,1.211408019065857
1788107827328780000,11.745780029296874,6.745615005493164,7.006443977355957,1.2026480436325073
1788107827338862600,11.755862548828125,6.7435078620910645,7.011529922485352,1.1846979856491089
1788107827348948000,11.765947998046874,6.731550216674805,7.026947021484375,1.1611380577087402
1788107827359033300,11.776033447265625,6.711973190307617,7.048739910125732,1.142199993133545
1788107827369143800,11.786143798828125,6.692710876464844,7.067838191986084,1.1372230052947998
1788107827379222000,11.796221923828124,6.68005895614624,7.078135967254639,1.1474909782409668
1788107827389313800,11.806313720703125,6.680682182312012,7.074933052062988,1.1635260581970215
1788107827399398100,11.816398193359374,6.696904182434082,7.05665922164917,1.181123971939087
1788107827409485600,11.826485595703126,6.725069999694824,7.029612064361572,1.1823539733886719
1788107827419574800,11.83657470703125,6.758224964141846,6.998410224914551,1.1784160137176514
1788107827429659600,11.84665966796875,6.7941389083862305,6.961705207824707,1.1892509460449219
1788107827439747000,11.8567470703125,6.833104133605957,6.918767929077148,1.2162840366363525
1788107827449835300,11.866835205078125,6.87394905090332,6.874565124511719,1.2366169691085815
1788107827459913200,11.876913330078125,6.904869079589844,6.84486722946167,1.2290509939193726
1788107827470001400,11.88700146484375,6.911746025085449,6.843152046203613,1.1995949745178223
1788107827480091400,11.89709130859375,6.888117790222168,6.870710849761963,1.1777809858322144
1788107827490164500,11.90716455078125,6.841731071472168,6.916191101074219,1.1819560527801514
1788107827500262700,11.9172626953125,6.787600040435791,6.966246128082275,1.1999670267105103
1788107827510350800,11.927350830078124,6.739972114562988,7.010085105895996,1.2130440473556519
1788107827520434700,11.9374345703125,6.708975791931152,7.039443016052246,1.2148629426956177
1788107827530523400,11.9475234375,6.695308208465576,7.053600788116455,1.208137035369873
1788107827540615400,11.957615478515624,6.696739196777344,7.053981781005859,1.1979169845581055
1788107827550702000,11.9677021484375,6.708821773529053,7.04396390914917,1.1892169713974
1788107827560794600,11.977794677734375,6.727785110473633,7.026288986206055,1.1866569519042969
1788107827570888700,11.987888671875,6.751955986022949,7.003124237060547,1.186311960220337
1788107827580972300,11.99797216796875,6.778563976287842,6.977968215942383,1.1827839612960815
1788107827591056100,12.00805615234375,6.804803848266602,6.95335578918457,1.1770639419555664
1788107827601135000,12.018135009765626,6.829108238220215,6.929675102233887,1.1759719848632812
1788107827611222300,12.02822216796875,6.848031044006348,6.910394191741943,1.1793700456619263
1788107827621316400,12.03831640625,6.860109806060791,6.8984150886535645,1.1793010234832764
1788107827631408000,12.048408203125,6.863347053527832,6.896822929382324,1.1697540283203125
1788107827641501400,12.05850146484375,6.857100963592529,6.904162883758545,1.1630619764328003
1788107827651577300,12.068577392578124,6.846337795257568,6.913137912750244,1.1731090545654297
1788107827661676500,12.078676513671875,6.839334011077881,6.915725231170654,1.1984180212020874
1788107827671752200,12.088752197265626,6.842142105102539,6.9085001945495605,1.2238099575042725
1788107827681881900,12.0988818359375,6.853014945983887,6.896368980407715,1.2313740253448486
1788107827691967200,12.10896728515625,6.863361835479736,6.887829780578613,1.22148597240448
1788107827702054100,12.11905419921875,6.864398002624512,6.889048099517822,1.2087739706039429
1788107827712146400,12.129146484375,6.856196880340576,6.896423816680908,1.2132220268249512
1788107827722235000,12.13923486328125,6.844894886016846,6.9035210609436035,1.2364530563354492
1788107827732322000,12.149322021484375,6.836153984069824,6.909171104431152,1.2531219720840454
1788107827742417700,12.159417724609375,6.829579830169678,6.916913032531738,1.246256947517395
1788107827752559000,12.16955908203125,6.817868232727051,6.933255195617676,1.2192649841308594
1788107827762652700,12.179652587890626,6.795372009277344,6.95896577835083,1.1981890201568604
1788107827772745200,12.1897451171875,6.768130779266357,6.983705997467041,1.2084070444107056
1788107827782837000,12.1998369140625,6.748216152191162,6.995456218719482,1.251052975654602
1788107827792916500,12.20991650390625,6.751644134521484,6.981278896331787,1.310338020324707
1788107827803012000,12.22001220703125,6.785645961761475,6.938273906707764,1.362131953239441
1788107827813097700,12.23009765625,6.8430938720703125,6.8747758865356445,1.3962589502334595
1788107827823185700,12.240185546875,6.908870220184326,6.80517578125,1.4132080078125
1788107827833265700,12.250265625,6.964800834655762,6.747375965118408,1.4157730340957642
1788107827843355000,12.26035498046875,6.997402191162109,6.714695930480957,1.41041100025177
1788107827853439700,12.270439697265624,7.001376152038574,6.710943222045898,1.4085479974746704
1788107827863543600,12.28054345703125,6.980595111846924,6.729207992553711,1.4244359731674194
1788107827873627100,12.290627197265625,6.949242115020752,6.753931045532227,1.4602940082550049
1788107827883717600,12.300717529296875,6.922637939453125,6.771772861480713,1.5033680200576782
1788107827893802500,12.310802490234375,6.910333156585693,6.776076793670654,1.5401610136032104
1788107827903893000,12.32089306640625,6.911598205566406,6.769476890563965,1.563310980796814
1788107827913981700,12.330981689453125,6.919851779937744,6.75911283493042,1.5716359615325928
1788107827924073700,12.34107373046875,6.925371170043945,6.75429105758667,1.5680660009384155
1788107827934155800,12.35115576171875,6.92079496383667,6.761406898498535,1.5575469732284546
1788107827944249000,12.3612490234375,6.905608177185059,6.778357028961182,1.5512709617614746
1788107827954338600,12.371338623046874,6.886356830596924,6.795769214630127,1.560647964477539
1788107827964437500,12.3814375,6.871110916137695,6.806393146514893,1.5813859701156616
1788107827974519000,12.39151904296875,6.865348815917969,6.806859970092773,1.6042670011520386
1788107827984600300,12.401600341796875,6.869777202606201,6.799292087554932,1.617324948310852
1788107827994684200,12.41168408203125,6.8790459632873535,6.789609909057617,1.6186120510101318
1788107828004779000,12.421779052734376,6.889451026916504,6.7797088623046875,1.6158649921417236
1788107828014870000,12.4318701171875,6.899500846862793,6.770921230316162,1.6098270416259766
1788107828024965400,12.44196533203125,6.905025005340576,6.769367218017578,1.592587947845459
1788107828035050000,12.452050048828125,6.904099941253662,6.775084018707275,1.5721420049667358
1788107828045146400,12.462146484375,6.897861957550049,6.784526824951172,1.5587509870529175
1788107828055239400,12.472239501953124,6.88846492767334,6.795773029327393,1.5512930154800415
1788107828065332700,12.482332763671875,6.8766632080078125,6.809782981872559,1.5421780347824097
1788107828075414500,12.49241455078125,6.860243797302246,6.829771041870117,1.5268360376358032
1788107828085506800,12.5025068359375,6.839134216308594,6.854884147644043,1.5089000463485718
1788107828095592400,12.512592529296874,6.815859794616699,6.88123083114624,1.494225025177002
1788107828105687800,12.522687744140624,6.792111873626709,6.9059648513793945,1.488250970840454
1788107828115774000,12.53277392578125,6.7706170082092285,6.926390171051025,1.491250991821289
1788107828125862100,12.542862060546875,6.753651142120361,6.941214084625244,1.4992510080337524
1788107828135950000,12.5529501953125,6.739943027496338,6.953362941741943,1.5046180486679077
1788107828146040800,12.563040771484374,6.724512100219727,6.969292163848877,1.499979019165039
1788107828156129300,12.57312939453125,6.699405193328857,6.996929168701172,1.483572006225586
1788107828166209300,12.583209228515624,6.657522201538086,7.041546821594238,1.4608279466629028
1788107828176299500,12.593299560546875,6.599758148193359,7.099319934844971,1.4432129859924316
1788107828186395100,12.60339501953125,6.534964084625244,7.159294128417969,1.4417699575424194
1788107828196490000,12.613489990234376,6.4749932289123535,7.210437774658203,1.457427978515625
1788107828206586400,12.62358642578125,6.430671215057373,7.245215892791748,1.4809950590133667
1788107828216672000,12.633672119140625,6.4019060134887695,7.2667717933654785,1.4998669624328613
1788107828226766800,12.643766845703125,6.384778022766113,7.281786918640137,1.5000660419464111
1788107828236854000,12.65385400390625,6.371277809143066,7.296850204467773,1.4841639995574951
1788107828246945500,12.663945556640625,6.3554229736328125,7.3132429122924805,1.471403956413269
1788107828257031400,12.674031494140625,6.337663173675537,7.326173782348633,1.4836410284042358
1788107828267126800,12.684126708984374,6.327041149139404,7.327220916748047,1.5232830047607422
1788107828277212700,12.694212646484376,6.332699775695801,7.312439918518066,1.5700689554214478
1788107828287296500,12.704296630859375,6.3574419021606445,7.2826762199401855,1.6079490184783936
1788107828297388300,12.71438818359375,6.396096229553223,7.243618965148926,1.6309289932250977
1788107828307471400,12.724471435546874,6.439235210418701,7.203478813171387,1.6389540433883667
1788107828317559600,12.7345595703125,6.478794097900391,7.168379783630371,1.6369370222091675
1788107828327652400,12.74465234375,6.510855197906494,7.140941143035889,1.6296290159225464
1788107828337741800,12.754741943359376,6.534422874450684,7.120190143585205,1.6261240243911743
1788107828347828700,12.764828857421875,6.552972793579102,7.102015018463135,1.6309319734573364
1788107828357913300,12.774913330078125,6.5773749351501465,7.079587936401367,1.630215048789978
1788107828368006100,12.785006103515625,6.606368064880371,7.0531721115112305,1.6274739503860474
1788107828378097700,12.79509765625,6.6318888664245605,7.030280113220215,1.6227200031280518
1788107828388180000,12.805179931640625,6.648252964019775,7.01718807220459,1.6123939752578735
1788107828398277600,12.815277587890625,6.652717113494873,7.014173984527588,1.6070870161056519
1788107828408363800,12.82536376953125,6.651523113250732,7.014113903045654,1.6122950315475464
1788107828418465000,12.835465087890626,6.6535491943359375,7.011016845703125,1.617372989654541
1788107828428553200,12.84555322265625,6.662577152252197,7.0036540031433105,1.6121009588241577
1788107828438641700,12.8556416015625,6.6764397621154785,6.993472099304199,1.5988999605178833
1788107828448738300,12.86573828125,6.691461086273193,6.982680797576904,1.5831799507141113
1788107828458829800,12.875829833984374,6.705928802490234,6.971395969390869,1.5716749429702759
1788107828468927200,12.88592724609375,6.7212347984313965,6.956484794616699,1.5723600387573242
1788107828479010600,12.896010498046875,6.744659900665283,6.930482864379883,1.5868159532546997
1788107828489099300,12.906099365234375,6.782845973968506,6.88784122467041,1.6095670461654663
1788107828499188500,12.9161884765625,6.835758209228516,6.831222057342529,1.6268960237503052
1788107828509282600,12.926282470703125,6.896911144256592,6.769856929779053,1.6252959966659546
1788107828519381000,12.936381103515625,6.952581882476807,6.71856689453125,1.600780963897705
1788107828529468700,12.94646875,6.985641002655029,6.692882061004639,1.5640289783477783
1788107828539550000,12.956550048828126,6.989983081817627,6.694307804107666,1.538303017616272
1788107828549635600,12.966635498046875,6.972568035125732,6.71164608001709,1.5417640209197998
1788107828559716400,12.97671630859375,6.949835777282715,6.727004051208496,1.5770920515060425
1788107828569801000,12.986801025390625,6.9406328201293945,6.724897861480713,1.6258289813995361
1788107828579887600,12.9968876953125,6.953746795654297,6.703904151916504,1.6562230587005615
1788107828589977000,13.00697705078125,6.976753234863281,6.681015968322754,1.6519639492034912
1788107828600056300,13.017056396484374,6.98829984664917,6.676865100860596,1.6196110248565674
1788107828610150100,13.027150146484376,6.9736127853393555,6.702064037322998,1.578307032585144
1788107828620225500,13.0372255859375,6.928956031799316,6.7543230056762695,1.5519649982452393
1788107828630316300,13.04731640625,6.860857009887695,6.824364185333252,1.5481189489364624
1788107828640392400,13.057392333984374,6.78296422958374,6.898780822753906,1.5614789724349976
1788107828650486500,13.067486572265626,6.711126804351807,6.964360237121582,1.580649971961975
1788107828660572000,13.077572021484375,6.654935836791992,7.015489101409912,1.5920790433883667
1788107828670662000,13.087661865234375,6.614658832550049,7.053217887878418,1.5932389497756958
1788107828680744000,13.097743896484374,6.585495948791504,7.080898761749268,1.5912610292434692
1788107828690827500,13.10782763671875,6.564630031585693,7.098657131195068,1.5983539819717407
1788107828700913400,13.117913330078125,6.5550079345703125,7.101681232452393,1.6241790056228638
1788107828711005400,13.12800537109375,6.562826156616211,7.087821960449219,1.6528929471969604
1788107828721085400,13.13808544921875,6.585464000701904,7.064932823181152,1.660841941833496
1788107828731180500,13.1481806640625,6.610997200012207,7.044054985046387,1.6480309963226318
1788107828741273000,13.158273193359374,6.625316143035889,7.034907817840576,1.6294889450073242
1788107828751365000,13.168365234375,6.621401786804199,7.039968967437744,1.6235419511795044
1788107828761455600,13.17845556640625,6.603068828582764,7.054062843322754,1.6369659900665283
1788107828771540500,13.18854052734375,6.579101085662842,7.07006311416626,1.6642229557037354
1788107828781628700,13.198628662109375,6.561031818389893,7.081017971038818,1.688797950744629
1788107828791717000,13.208717041015625,6.555795192718506,7.083371162414551,1.6992360353469849
1788107828801810700,13.218810791015626,6.557179927825928,7.0830888748168945,1.695065975189209
1788107828811908600,13.22890869140625,6.555315017700195,7.087361812591553,1.6843819618225098
1788107828822002200,13.239002197265625,6.543186187744141,7.100346088409424,1.6768419742584229
1788107828832093400,13.249093505859374,6.520167827606201,7.12193489074707,1.6749520301818848
1788107828842185500,13.259185546875,6.4922380447387695,7.147130012512207,1.6761260032653809
1788107828852282400,13.269282470703125,6.465479850769043,7.171202182769775,1.6767319440841675
1788107828862380000,13.279380126953125,6.443615913391113,7.191038131713867,1.675948977470398
1788107828872470500,13.289470458984376,6.42682409286499,7.206186771392822,1.6753499507904053
1788107828882558200,13.29955810546875,6.4168548583984375,7.214713096618652,1.676872968673706
1788107828892638200,13.30963818359375,6.414995193481445,7.215494155883789,1.680616021156311
1788107828902721800,13.3197216796875,6.421922206878662,7.208001136779785,1.6862980127334595
1788107828912816400,13.32981640625,6.436767101287842,7.1932902336120605,1.692518949508667
1788107828922907600,13.33990771484375,6.457986831665039,7.172760963439941,1.698788046836853
1788107828932999400,13.34999951171875,6.484196186065674,7.147471904754639,1.705530047416687
1788107828943093200,13.36009326171875,6.5125861167907715,7.12073278427124,1.7092210054397583
1788107828953183200,13.370183349609375,6.5423359870910645,7.0941691398620605,1.7060400247573853
1788107828963282400,13.380282470703126,6.567934036254883,7.072329044342041,1.6983439922332764
1788107828973371600,13.39037158203125,6.585591793060303,7.057422161102295,1.691970944404602
1788107828983453000,13.400452880859374,6.595004081726074,7.048766136169434,1.6914010047912598
