time,seconds_elapsed,z,y,x
1788107815710755800,0.127755859375,-0.013887500390410423,-0.1307625025510788,-0.05596249923110008
1788107815720848600,0.1378486328125,-0.011412499472498894,-0.10999999940395355,-0.07919999957084656
1788107815730945500,0.147945556640625,-0.011412499472498894,-0.057475000619888306,-0.11219999939203262
1788107815741032700,0.15803271484375,0.031212499365210533,-0.10628750175237656,-0.15125000476837158
1788107815751119000,0.168119140625,0.014162499457597733,-0.045237500220537186,-0.234437495470047
1788107815761214200,0.178214111328125,0.028875000774860382,-0.01966249942779541,-0.28696250915527344
1788107815771309300,0.188309326171875,0.03987500071525574,0.05128749832510948,-0.31130000948905945
1788107815781406500,0.198406494140625,0.026399999856948853,0.20157499611377716,-0.3235374987125397
1788107815791497200,0.208497314453125,0.028875000774860382,0.3176249861717224,-0.3529624938964844
1788107815801589500,0.218589599609375,0.0411125011742115,0.4629625082015991,-0.3932499885559082
1788107815811685000,0.22868505859375,0.05321250110864639,0.6169624924659729,-0.4493499994277954
1788107815821778700,0.23877880859375,0.025162499397993088,0.7145875096321106,-0.4713499844074249
1788107815841966600,0.258966552734375,-0.15936249494552612,1.1312124729156494,-0.5068249702453613
1788107815862143700,0.279143798828125,-0.22398750483989716,1.1507375240325928,-0.7634000182151794
1788107815872240600,0.28924072265625,-0.18246249854564667,1.0604000091552734,-0.9074999690055847
1788107815882335200,0.299335205078125,-0.26317501068115234,0.9601625204086304,-0.9662125110626221
1788107815892426200,0.30942626953125,-0.16664999723434448,0.7463499903678894,-1.1605000495910645
1788107815902525200,0.319525146484375,-0.11769999563694,0.7035874724388123,-1.2471250295639038
1788107815912618200,0.3296181640625,0.020349999889731407,0.7073000073432922,-1.2178374528884888
1788107815922705400,0.339705322265625,0.2340250015258789,0.6377249956130981,-1.1592625379562378
1788107815932801500,0.349801513671875,0.30855000019073486,0.5619624853134155,-1.0762125253677368
1788107815942897400,0.3598974609375,0.3513124883174896,0.6890124678611755,-0.9429749846458435
1788107815952982300,0.369982177734375,0.31597501039505005,0.37991249561309814,-0.7548750042915344
1788107815963075600,0.38007568359375,0.2194499969482422,-0.010999999940395355,-0.49101248383522034
1788107815973160000,0.390159912109375,0.1522125005722046,-0.44591251015663147,-0.1634874939918518
1788107815983250400,0.40025048828125,0.08016250282526016,-0.8797249794006348,0.18466250598430634
1788107815993342200,0.41034228515625,-0.031075000762939453,-1.263350009918213,0.47052499651908875
1788107816003431700,0.420431640625,-0.12636250257492065,-1.565024971961975,0.6733375191688538
1788107816013515500,0.430515625,-0.19717499613761902,-1.8070249557495117,0.768625020980835
1788107816023609000,0.440609130859375,-0.2032250016927719,-1.926650047302246,0.7918624877929688
1788107816033698800,0.45069873046875,-0.17393749952316284,-1.958412528038025,0.8163374662399292
1788107816043794200,0.460794189453125,-0.13859999179840088,-1.8338375091552734,0.8065750002861023
1788107816053878000,0.4708779296875,-0.06159999966621399,-1.7507874965667725,0.7771499752998352
1788107816063974100,0.48097412109375,-0.031075000762939453,-1.565024971961975,0.7026249766349792
1788107816074064600,0.491064697265625,-0.0028874999843537807,-1.3708750009536743,0.5841000080108643
1788107816084154600,0.501154541015625,0.004399999976158142,-1.4147374629974365,0.4399999976158142
1788107816094245000,0.5112451171875,0.03368749842047691,-1.643262505531311,0.30195000767707825
1788107816104341200,0.52134130859375,0.06421250104904175,-1.8130749464035034,0.18466250598430634
1788107816114421800,0.531421875,0.07768750190734863,-1.7067874670028687,0.08813749998807907
1788107816124519200,0.541519287109375,0.0411125011742115,-1.4661624431610107,-0.02419999986886978
1788107816134608100,0.551608154296875,-0.01759999990463257,-0.571862518787384,-0.27719998359680176
1788107816144695300,0.5616953125,-0.01759999990463257,-0.33605000376701355,-0.44206249713897705
1788107816154793700,0.571793701171875,0.03739999979734421,-0.0672374963760376,-0.6021124720573425
1788107816164887000,0.581886962890625,0.2340250015258789,0.24433749914169312,-0.726687490940094
1788107816174976300,0.591976318359375,0.4320249855518341,0.09281250089406967,-0.7401624917984009
1788107816185070800,0.60207080078125,0.5126000046730042,-0.15523749589920044,-0.6741625070571899
1788107816195161900,0.612161865234375,0.4478375017642975,-0.26510000228881836,-0.5715875029563904
1788107816205253400,0.62225341796875,0.3293125033378601,-0.20528750121593475,-0.45058751106262207
1788107816215344600,0.6323447265625,0.22550000250339508,-0.10752499848604202,-0.32106250524520874
1788107816225436700,0.642436767578125,0.19249999523162842,0.02433750033378601,-0.1769624948501587
1788107816235523000,0.652523193359375,0.18768750131130219,0.22962500154972076,-0.06091250106692314
1788107816245622500,0.66262255859375,0.16692499816417694,0.35791251063346863,0.01966249942779541
1788107816255712500,0.67271240234375,0.15950000286102295,0.2540999948978424,0.08318749815225601
1788107816265809400,0.682809326171875,0.15344999730587006,0.11838749796152115,0.11508750170469284
1788107816275897900,0.69289794921875,0.148499995470047,-0.01347499992698431,0.1321374922990799
1788107816285993000,0.702992919921875,0.15344999730587006,-0.07699999958276749,0.1443749964237213
1788107816296079400,0.713079345703125,0.15839999914169312,0.03657500073313713,0.1321374922990799
1788107816306164500,0.72316455078125,0.17173749208450317,0.20157499611377716,0.08084999769926071
1788107816316247300,0.733247314453125,0.1999250054359436,0.3114374876022339,0.007562499959021807
1788107816326340000,0.743340087890625,0.24873749911785126,0.3431999981403351,-0.05967500060796738
1788107816336429000,0.753428955078125,0.2915000021457672,0.3396250009536743,-0.1036750003695488
1788107816346523000,0.76352294921875,0.28049999475479126,0.4054875075817108,-0.1317249983549118
1788107816356613600,0.773613525390625,0.25478750467300415,0.43972501158714294,-0.1391499936580658
1788107816366713000,0.783713134765625,0.2157374918460846,0.3529624938964844,-0.12196250259876251
1788107816376801000,0.793801025390625,0.15344999730587006,0.23333749175071716,-0.07919999957084656
1788107816386896000,0.803895751953125,0.12044999748468399,0.2223374992609024,-0.03519999980926514
1788107816396991700,0.81399169921875,0.13021250069141388,0.20762500166893005,-0.0034374999813735485
1788107816407090200,0.824090087890625,0.13021250069141388,0.14533749222755432,0.02708750031888485
1788107816417178600,0.8341787109375,0.11316250264644623,0.09281250089406967,0.052662499248981476
1788107816427273500,0.8442734375,0.30621248483657837,0.19910000264644623,0.12361250072717667
1788107816437362200,0.854362060546875,0.20473749935626984,0.29315000772476196,0.050324998795986176
1788107816447456300,0.864456298828125,0.10216250270605087,0.4604874849319458,-0.05719999969005585
1788107816457541600,0.874541748046875,0.1143999993801117,0.47148749232292175,-0.13420000672340393
1788107816467632000,0.884632080078125,0.12292499840259552,0.3396250009536743,-0.1391499936580658
1788107816477713700,0.894713623046875,0.08139999955892563,0.17833749949932098,-0.09391249716281891
1788107816487801300,0.90480126953125,0.03987500071525574,0.0658624991774559,-0.02914999984204769
1788107816497885400,0.914885498046875,0.004399999976158142,0.014574999921023846,0.04661250114440918
1788107816507969300,0.92496923828125,-0.026124998927116394,0.0085249999538064,0.11261250078678131
1788107816518053400,0.935053466796875,-0.02241249941289425,-0.035475000739097595,0.15289999544620514
1788107816528144400,0.945144287109375,-0.018837500363588333,-0.11852499842643738,0.17242500185966492
1788107816538225400,0.955225341796875,-0.005362499970942736,-0.18947499990463257,0.1896124929189682
1788107816548310000,0.96531005859375,0.021449999883770943,-0.20899999141693115,0.19442500174045563
1788107816558391600,0.9753916015625,0.07039999961853027,-0.1722874939441681,0.19318750500679016
1788107816568480500,0.98548046875,0.03987500071525574,-0.09652499854564667,0.18713749945163727
1788107816578569200,0.9955693359375,0.03135000169277191,-0.010999999940395355,0.1676124930381775
1788107816588663000,1.0056630859375,0.0056374999694526196,0.037812501192092896,0.16637499630451202
1788107816598747600,1.01574755859375,0.0056374999694526196,0.023099999874830246,0.1676124930381775
1788107816608837600,1.025837646484375,0.009349999949336052,-0.008662499487400055,0.17861250042915344
1788107816618922200,1.035922119140625,0.027637500315904617,-0.01347499992698431,0.1956624984741211
1788107816629011500,1.046011474609375,0.05321250110864639,-0.0012374999932944775,0.21518750488758087
1788107816639093000,1.056093017578125,0.06187500059604645,-0.007424999959766865,0.21642500162124634
1788107816649182000,1.066181884765625,0.04963750019669533,-0.02199999988079071,0.2079000025987625
1788107816659265800,1.076265869140625,0.03863750025629997,-0.057475000619888306,0.1956624984741211
1788107816669348400,1.086348388671875,0.020349999889731407,-0.07576250284910202,0.1956624984741211
1788107816679433200,1.09643310546875,0.015399999916553497,-0.08071249723434448,0.20295000076293945
1788107816689518000,1.10651806640625,0.016637500375509262,-0.0672374963760376,0.21147499978542328
1788107816699592400,1.116592529296875,0.026399999856948853,-0.03918749839067459,0.20913749933242798
1788107816709678300,1.12667822265625,0.05211250111460686,-0.01223750039935112,0.19813749194145203
1788107816719757600,1.136757568359375,0.06916250288486481,0.015812499448657036,0.17242500185966492
1788107816729854500,1.1468544921875,0.09363749623298645,0.05486249923706055,0.1541374921798706
1788107816739936800,1.156936767578125,0.1143999993801117,0.020762499421834946,0.14066250622272491
1788107816750032100,1.1670322265625,0.05692499876022339,-0.21752500534057617,0.09913749992847443
1788107816760113400,1.177113525390625,-0.09212499856948853,-0.06847500056028366,0.020899999886751175
1788107816770206500,1.18720654296875,-0.22165000438690186,0.05004999786615372,-0.07315000146627426
1788107816780300500,1.197300537109375,-0.25093749165534973,0.13062499463558197,-0.1354375034570694
1788107816790387200,1.20738720703125,-0.23622499406337738,0.17215000092983246,-0.1671999990940094
1788107816800481500,1.2174814453125,-0.2167000025510788,0.10986249893903732,-0.15867500007152557
1788107816810572300,1.227572265625,-0.16417500376701355,0.004812499973922968,-0.12443749606609344
1788107816820663800,1.237663818359375,-0.1311749964952469,-0.06971249729394913,-0.03519999980926514
1788107816830746600,1.24774658203125,-0.10793749988079071,-0.1307625025510788,0.06613750010728836
1788107816840842200,1.25784228515625,-0.09693749994039536,-0.16747500002384186,0.1321374922990799
1788107816850931700,1.267931640625,-0.10312499850988388,-0.13928750157356262,0.1676124930381775
1788107816861025800,1.27802587890625,-0.10436250269412994,-0.06476250290870667,0.17242500185966492
1788107816871114800,1.28811474609375,-0.06641250103712082,0.023099999874830246,0.13461250066757202
1788107816881209900,1.2982099609375,-0.035887498408555984,0.025575000792741776,0.09790000319480896
1788107816891309000,1.30830908203125,0.021449999883770943,-0.01966249942779541,0.0648999959230423
1788107816901406000,1.318406005859375,0.05087500065565109,-0.07218749821186066,0.06737499684095383
1788107816911496200,1.32849609375,0.05321250110864639,-0.11495000123977661,0.09418749809265137
1788107816921580300,1.338580322265625,0.05087500065565109,-0.08676250278949738,0.0966624990105629
1788107816931668000,1.34866796875,0.05321250110864639,-0.020762499421834946,0.052662499248981476
1788107816941760500,1.358760498046875,0.05692499876022339,0.03904999792575836,-0.007149999961256981
1788107816951852500,1.3688525390625,0.04592499881982803,0.05609999969601631,-0.04496249929070473
1788107816961950000,1.378949951171875,0.017875000834465027,0.04633750021457672,-0.04496249929070473
1788107816972046600,1.389046630859375,-0.006599999964237213,0.02928750030696392,-0.02667500078678131
1788107816982140400,1.399140380859375,-0.02488750033080578,-0.002474999986588955,0.007562499959021807
1788107816992239000,1.409239013671875,-0.038362499326467514,-0.01966249942779541,0.030662499368190765
1788107817002331600,1.41933154296875,-0.043175000697374344,-0.00494999997317791,0.018562499433755875
1788107817012430800,1.429430908203125,-0.04207500070333481,0.02928750030696392,0.012374999932944775
1788107817022518300,1.439518310546875,-0.03341250121593475,0.04152499884366989,0.012374999932944775
1788107817032621600,1.44962158203125,-0.02488750033080578,0.030524998903274536,0.030662499368190765
1788107817042714600,1.459714599609375,-0.021312499418854713,-0.020762499421834946,0.057612501084804535
1788107817052806100,1.46980615234375,-0.03464999794960022,-0.07699999958276749,0.07961250096559525
1788107817062892500,1.479892578125,-0.04688749834895134,-0.10628750175237656,0.07590000331401825
1788107817072988200,1.48998828125,-0.06283749639987946,-0.11371249705553055,0.045375000685453415
1788107817083068200,1.500068115234375,-0.07259999960660934,-0.09652499854564667,0.011137500405311584
1788107817093159000,1.510158935546875,-0.07012499868869781,-0.06971249729394913,-0.007149999961256981
1788107817103256000,1.520256103515625,-0.057887498289346695,-0.042762499302625656,-0.007149999961256981
1788107817113343200,1.53034326171875,-0.03231250122189522,-0.029424998909235,0.005087499972432852
1788107817123435800,1.540435791015625,-0.005362499970942736,-0.02199999988079071,0.030662499368190765
1788107817133525800,1.55052587890625,0.014162499457597733,-0.032999999821186066,0.052662499248981476
1788107817143610400,1.5606103515625,0.023924998939037323,-0.07342500239610672,0.05142499879002571
1788107817153695700,1.57069580078125,0.025162499397993088,-0.10752499848604202,0.04413750022649765
1788107817163783400,1.580783447265625,0.020349999889731407,-0.14300000667572021,0.02213750034570694
1788107817173866000,1.590865966796875,0.012924999929964542,-0.1722874939441681,-0.0010999999940395355
1788107817183955000,1.600954833984375,-0.0016499999910593033,-0.1979999989271164,-0.014437500387430191
1788107817194039300,1.611039306640625,-0.01759999990463257,-0.2162874937057495,-0.04867500066757202
1788107817204121000,1.62112109375,-0.038362499326467514,-0.21381250023841858,-0.09748750180006027
1788107817214196000,1.631196044921875,-0.055412501096725464,-0.17971250414848328,-0.13791249692440033
1788107817224288800,1.641288818359375,-0.06764999777078629,-0.15028749406337738,-0.1611499935388565
1788107817234382800,1.6513828125,-0.06888750195503235,-0.11247500032186508,-0.16472500562667847
1788107817244469800,1.6614697265625,-0.043175000697374344,-0.10876250267028809,-0.1671999990940094
1788107817254550800,1.67155078125,-0.018837500363588333,-0.11371249705553055,-0.15248750150203705
1788107817264639000,1.681638916015625,-0.012649999931454659,-0.12828749418258667,-0.13048750162124634
1788107817274724600,1.691724609375,-0.040837500244379044,-0.11123749613761902,-0.1391499936580658
1788107817284810800,1.701810791015625,-0.09336250275373459,-0.04399999976158142,-0.14891250431537628
1788107817294895900,1.711895751953125,-0.12636250257492065,-0.010999999940395355,-0.14643749594688416
1788107817304990000,1.721989990234375,-0.133650004863739,-0.00976249948143959,-0.12691250443458557
1788107817315077400,1.732077392578125,-0.12870000302791595,-0.03423750028014183,-0.08662500232458115
1788107817325164000,1.7421640625,-0.1396999955177307,-0.08195000141859055,-0.02419999986886978
1788107817335254500,1.752254638671875,-0.14093749225139618,-0.1247124969959259,0.02956249937415123
1788107817345341200,1.762341064453125,-0.12993749976158142,-0.1405249983072281,0.052662499248981476
1788107817355420700,1.772420654296875,-0.11893749982118607,-0.13695000112056732,0.055137500166893005
1788107817365507600,1.782507568359375,-0.10917499661445618,-0.1247124969959259,0.03932499885559082
1788107817375591000,1.7925908203125,-0.11288750171661377,-0.09652499854564667,0.011137500405311584
1788107817385682700,1.8026826171875,-0.1311749964952469,-0.07823749631643295,0.006324999965727329
1788107817395766500,1.8127666015625,-0.15565000474452972,-0.07947500050067902,0.023375000804662704
1788107817405857500,1.822857421875,-0.16541250050067902,-0.0929500013589859,0.03437500074505806
1788107817415945700,1.83294580078125,-0.17765000462532043,-0.0989999994635582,0.038087498396635056
1788107817426033700,1.84303369140625,-0.19222499430179596,-0.09652499854564667,0.023375000804662704
1788107817436120300,1.853120361328125,-0.19470000267028809,-0.07947500050067902,0.002612499985843897
1788107817446208000,1.8632080078125,-0.19346250593662262,-0.08071249723434448,-0.002199999988079071
1788107817456298200,1.87329833984375,-0.18617500364780426,-0.06971249729394913,-0.010862499475479126
1788107817466383400,1.88338330078125,-0.1751749962568283,-0.06971249729394913,-0.015675000846385956
1788107817476479700,1.893479736328125,-0.17641249299049377,-0.042762499302625656,0.00013749999925494194
1788107817486568700,1.903568603515625,-0.1886499971151352,-0.01347499992698431,0.030662499368190765
1788107817496647000,1.91364697265625,-0.19593749940395355,-0.010999999940395355,0.05884999781847
1788107817506737400,1.9237373046875,-0.19593749940395355,-0.032999999821186066,0.07232499867677689
1788107817516820000,1.933820068359375,-0.1849374920129776,-0.06476250290870667,0.08442500233650208
1788107817528924200,1.945924072265625,-0.17765000462532043,-0.09652499854564667,0.09542500227689743
1788107817539014000,1.956013916015625,-0.16541250050067902,-0.10752499848604202,0.10161250084638596
1788107817549098000,1.966097900390625,-0.15193749964237213,-0.11976250261068344,0.09790000319480896
1788107817559193300,1.976193359375,-0.15070000290870667,-0.0929500013589859,0.07232499867677689
1788107817569283600,1.98628369140625,-0.14836250245571136,-0.045237500220537186,0.02956249937415123
1788107817579355100,1.996355224609375,-0.1471250057220459,-0.01223750039935112,-0.0010999999940395355
1788107817589440500,2.0064404296875,-0.1471250057220459,0.01209999993443489,-0.01209999993443489
1788107817599520500,2.0165205078125,-0.15193749964237213,0.014574999921023846,-0.018149999901652336
1788107817609606700,2.026606689453125,-0.1494625061750412,0.020762499421834946,-0.002199999988079071
1788107817619695600,2.036695556640625,-0.1434125006198883,0.028049999848008156,0.02956249937415123
1788107817629787600,2.04678759765625,-0.13241249322891235,0.01952499896287918,0.057612501084804535
1788107817639865300,2.056865234375,-0.1153625026345253,0.0170499999076128,0.06861250102519989
1788107817649956600,2.06695654296875,-0.10436250269412994,0.04152499884366989,0.06861250102519989
1788107817660038000,2.077037841796875,-0.09583749622106552,0.06710000336170197,0.05142499879002571
1788107817670126800,2.087126953125,-0.09212499856948853,0.09281250089406967,0.033137500286102295
1788107817680211200,2.097211181640625,-0.089649997651577,0.10381250083446503,0.02956249937415123
1788107817690304000,2.107303955078125,-0.08112499862909317,0.08662500232458115,0.047849997878074646
1788107817700404500,2.117404541015625,-0.07493750005960464,0.07933750003576279,0.08318749815225601
1788107817710496800,2.127496826171875,-0.07136250287294388,0.08910000324249268,0.12718750536441803
1788107817720577300,2.137577392578125,-0.06517499685287476,0.09886249899864197,0.16637499630451202
1788107817730667500,2.14766748046875,-0.05664999783039093,0.12086249887943268,0.17861250042915344
1788107817740752100,2.157752197265625,-0.045649997889995575,0.11110000312328339,0.16871249675750732
1788107817750837200,2.167837158203125,-0.0541750006377697,0.09033749997615814,0.15166249871253967
1788107817760920000,2.177920166015625,-0.06517499685287476,0.07686249911785126,0.1321374922990799
1788107817771008500,2.188008544921875,-0.07012499868869781,0.05609999969601631,0.12594999372959137
1788107817781101300,2.198101318359375,-0.07493750005960464,0.023099999874830246,0.13089999556541443
1788107817791195600,2.208195556640625,-0.08483749628067017,0.006049999967217445,0.1358499974012375
1788107817801283000,2.218282958984375,-0.089649997651577,-0.002474999986588955,0.1443749964237213
1788107817811373000,2.228373046875,-0.10312499850988388,-0.025712499395012856,0.14918750524520874
1788107817821456000,2.238455810546875,-0.133650004863739,-0.047712501138448715,0.1321374922990799
1788107817831540500,2.24854052734375,-0.16169999539852142,-0.06847500056028366,0.08689999580383301
1788107817841623300,2.258623291015625,-0.1788875013589859,-0.07576250284910202,0.04166249930858612
1788107817851708400,2.26870849609375,-0.18012499809265137,-0.07947500050067902,0.02213750034570694
1788107817861801200,2.27880126953125,-0.15936249494552612,-0.07699999958276749,0.00989999994635582
1788107817871889200,2.28888916015625,-0.13488750159740448,-0.05142499879002571,0.00013749999925494194
1788107817881983200,2.298983154296875,-0.1214125007390976,-0.018424998968839645,-0.005912499967962503
1788107817892065500,2.3090654296875,-0.12870000302791595,-0.0037124999798834324,0.0038499999791383743
1788107817902156000,2.319156005859375,-0.14093749225139618,-0.018424998968839645,0.01732499897480011
1788107817912245000,2.329244873046875,-0.14464999735355377,-0.037950001657009125,0.040562499314546585
1788107817922336000,2.3393359375,-0.12870000302791595,-0.07823749631643295,0.05142499879002571
1788107817932424000,2.349423828125,-0.10917499661445618,-0.10147500038146973,0.057612501084804535
1788107817942517000,2.35951708984375,-0.09088750183582306,-0.12952500581741333,0.057612501084804535
1788107817952640000,2.369639892578125,-0.0798875018954277,-0.14176249504089355,0.05142499879002571
1788107817962730800,2.379730712890625,-0.07383749634027481,-0.13928750157356262,0.047849997878074646
1788107817972815400,2.3898154296875,-0.06517499685287476,-0.1344749927520752,0.050324998795986176
1788107817982907100,2.3999072265625,-0.045649997889995575,-0.1270499974489212,0.057612501084804535
1788107817992991700,2.40999169921875,-0.02736249938607216,-0.1467124968767166,0.055137500166893005
1788107818003083500,2.42008349609375,-0.011412499472498894,-0.16981250047683716,0.04413750022649765
1788107818013167900,2.43016796875,-0.011412499472498894,-0.17723749577999115,0.01966249942779541
1788107818023259100,2.440259033203125,-0.0028874999843537807,-0.14547500014305115,-0.01209999993443489
1788107818033340200,2.450340087890625,0.004399999976158142,-0.11852499842643738,-0.04743750020861626
1788107818043423000,2.460423095703125,0.019112499430775642,-0.10023749619722366,-0.07919999957084656
1788107818053509600,2.470509521484375,0.031212499365210533,-0.09418749809265137,-0.1036750003695488
1788107818063600600,2.4806005859375,0.028875000774860382,-0.0989999994635582,-0.10491249710321426
1788107818073688000,2.49068798828125,0.031212499365210533,-0.11976250261068344,-0.09143749624490738
1788107818083779000,2.500779052734375,0.027637500315904617,-0.1270499974489212,-0.07438749819993973
1788107818093867800,2.51086767578125,0.016637500375509262,-0.15152500569820404,-0.049912501126527786
1788107818103959600,2.52095947265625,0.006874999962747097,-0.16871249675750732,-0.03519999980926514
1788107818114046200,2.531046142578125,-0.006599999964237213,-0.16005000472068787,-0.030387500301003456
1788107818124141000,2.54114111328125,-0.016362499445676804,-0.1270499974489212,-0.02914999984204769
1788107818134227200,2.551227294921875,-0.018837500363588333,-0.10271249711513519,-0.02914999984204769
1788107818144319500,2.561319580078125,-0.013887500390410423,-0.08428750187158585,-0.02667500078678131
1788107818154407700,2.57140771484375,-0.005362499970942736,-0.08195000141859055,-0.02914999984204769
1788107818164520000,2.58152001953125,0.004399999976158142,-0.06847500056028366,-0.04386249929666519
1788107818174605800,2.591605712890625,-0.010312499478459358,-0.023237500339746475,-0.04619999974966049
1788107818184694300,2.6016943359375,-0.028599999845027924,0.023099999874830246,-0.037675000727176666
1788107818194783700,2.61178369140625,-0.048124998807907104,0.04633750021457672,-0.009624999947845936
1788107818204872700,2.621872802734375,-0.07507500052452087,0.06104999780654907,0.03684999793767929
1788107818214965800,2.6319658203125,-0.09583749622106552,0.04152499884366989,0.07837499678134918
1788107818225054500,2.642054443359375,-0.10436250269412994,-0.0037124999798834324,0.07232499867677689
1788107818235144700,2.652144775390625,-0.10683749616146088,0.007287499960511923,0.035612501204013824
1788107818245237200,2.6622373046875,-0.1116499975323677,0.057337500154972076,0.006324999965727329
1788107818255322400,2.672322265625,-0.11659999936819077,0.14162500202655792,0.0013749999925494194
1788107818265406000,2.682406005859375,-0.12993749976158142,0.2283875048160553,0.033137500286102295
1788107818275489800,2.69248974609375,-0.1396999955177307,0.2283875048160553,0.08566249907016754
1788107818285571800,2.70257177734375,-0.1251250058412552,0.18438750505447388,0.11618749797344208
1788107818295657200,2.7126572265625,-0.11288750171661377,0.16005000472068787,0.13337500393390656
1788107818305738800,2.72273876953125,-0.11041250079870224,0.1588124930858612,0.14794999361038208
1788107818315824600,2.73282470703125,-0.10436250269412994,0.1648624986410141,0.1541374921798706
1788107818325903600,2.742903564453125,-0.11041250079870224,0.21615000069141388,0.15537500381469727
1788107818335989000,2.752989013671875,-0.11659999936819077,0.2686749994754791,0.17118750512599945
1788107818346070500,2.763070556640625,-0.12017499655485153,0.2723875045776367,0.19813749194145203
1788107818356159000,2.773158935546875,-0.1251250058412552,0.23086249828338623,0.2139499932527542
1788107818366248000,2.783248046875,-0.12870000302791595,0.1746249943971634,0.21642500162124634
1788107818376340200,2.79334033203125,-0.12759999930858612,0.14162500202655792,0.21642500162124634
1788107818386421200,2.803421142578125,-0.11893749982118607,0.10257499665021896,0.22123749554157257
1788107818396498700,2.813498779296875,-0.12017499655485153,0.06833750009536743,0.24213749170303345
1788107818406579200,2.8235791015625,-0.12388750165700912,0.045099999755620956,0.25189998745918274
1788107818416664300,2.833664306640625,-0.1251250058412552,0.01952499896287918,0.24695000052452087
1788107818426749000,2.8437490234375,-0.12993749976158142,0.006049999967217445,0.2139499932527542
1788107818436859600,2.853859619140625,-0.15193749964237213,0.04633750021457672,0.1699499934911728
1788107818446941400,2.86394140625,-0.16169999539852142,0.0952875018119812,0.1381874978542328
1788107818457027800,2.87402783203125,-0.12993749976158142,0.12333749979734421,0.11261250078678131
1788107818467106600,2.8841064453125,-0.08607500046491623,0.14038750529289246,0.09913749992847443
1788107818477188600,2.894188720703125,-0.04331250116229057,0.14409999549388885,0.11742500215768814
1788107818487271400,2.904271484375,-0.020075000822544098,0.12333749979734421,0.1639000028371811
1788107818497362200,2.914362060546875,-0.011549999937415123,0.06228749826550484,0.20666250586509705
1788107818507447600,2.924447509765625,-0.0016499999910593033,-0.010999999940395355,0.22013749182224274
1788107818517531000,2.93453076171875,0.006874999962747097,-0.052662499248981476,0.18713749945163727
1788107818527606300,2.944606201171875,0.025162499397993088,-0.05142499879002571,0.12484999746084213
1788107818537694200,2.954694091796875,0.06544999778270721,-0.03918749839067459,0.06984999775886536
1788107818547775700,2.964775634765625,0.10573749989271164,0.002337499987334013,0.04166249930858612
1788107818557867800,2.97486767578125,0.15826250612735748,0.05362499877810478,0.028324998915195465
1788107818567955700,2.984955810546875,0.21697500348091125,0.05004999786615372,0.03684999793767929
1788107818578045200,2.995045166015625,0.2670249938964844,-0.02447500079870224,0.033137500286102295
1788107818588129500,3.005129638671875,0.2877874970436096,-0.05142499879002571,0.005087499972432852
1788107818598218800,3.01521875,0.2817375063896179,-0.00989999994635582,-0.030387500301003456
1788107818608300800,3.02530078125,0.10216250270605087,0.13186250627040863,0.062424998730421066
1788107818618386000,3.035385986328125,0.1424500048160553,0.11728750169277191,0.08689999580383301
1788107818628467500,3.045467529296875,0.2952125072479248,-0.03671250119805336,0.035612501204013824
1788107818638556400,3.055556396484375,0.334262490272522,-0.1405249983072281,0.007562499959021807
1788107818648673500,3.065673583984375,0.32573750615119934,-0.13199999928474426,0.030662499368190765
1788107818658761500,3.075761474609375,0.2975499927997589,-0.09418749809265137,0.042899999767541885
1788107818668840400,3.08584033203125,0.2732124924659729,0.030524998903274536,0.03437500074505806
1788107818678937000,3.09593701171875,0.25244998931884766,0.08428750187158585,0.018562499433755875
1788107818689019100,3.10601904296875,0.2340250015258789,0.06833750009536743,0.02708750031888485
1788107818699105500,3.11610546875,0.21821250021457672,0.0170499999076128,0.04413750022649765
1788107818709187800,3.126187744140625,0.21821250021457672,-0.01718750037252903,0.055137500166893005
1788107818719278300,3.1362783203125,0.23278750479221344,-0.023237500339746475,0.055137500166893005
1788107818729363200,3.14636328125,0.2536875009536743,-0.020762499421834946,0.04166249930858612
1788107818739459300,3.156459228515625,0.28654998540878296,-0.03918749839067459,0.01732499897480011
1788107818749546200,3.166546142578125,0.33797499537467957,-0.07823749631643295,-0.018149999901652336
1788107818759632600,3.176632568359375,0.3917374908924103,-0.08799999952316284,-0.06091250106692314
1788107818769717200,3.18671728515625,0.4185499846935272,-0.0611874982714653,-0.09515000134706497
1788107818779805000,3.196804931640625,0.41731250286102295,-0.02694999985396862,-0.11096250265836716
1788107818789887700,3.2068876953125,0.4160749912261963,-0.028187500312924385,-0.11715000122785568
1788107818799977200,3.216977294921875,0.40507498383522034,-0.029424998909235,-0.1036750003695488
1788107818810062600,3.2270625,0.40383750200271606,-0.04399999976158142,-0.08415000140666962
1788107818820153300,3.2371533203125,0.3940750062465668,-0.06847500056028366,-0.04743750020861626
1788107818830237200,3.2472373046875,0.3830749988555908,-0.11728750169277191,-0.03162499889731407
1788107818840326000,3.257325927734375,0.3452624976634979,-0.15523749589920044,-0.0364375002682209
1788107818850407700,3.26740771484375,0.22426250576972961,-0.28833749890327454,-0.05967500060796738
1788107818860500700,3.277500732421875,0.116737499833107,-0.2529999911785126,-0.09143749624490738
1788107818870583000,3.2875830078125,0.022687500342726707,-0.07823749631643295,-0.21848750114440918
1788107818880668400,3.29766845703125,-0.03959999978542328,0.04633750021457672,-0.26001250743865967
1788107818890767600,3.307767578125,0.015399999916553497,0.14781250059604645,-0.2942500114440918
1788107818900857600,3.317857666015625,0.055687498301267624,0.20886249840259552,-0.29301249980926514
1788107818910955800,3.327955810546875,0.08868750184774399,0.2626250088214874,-0.24543750286102295
1788107818921048300,3.33804833984375,0.12292499840259552,0.2784374952316284,-0.17572499811649323
1788107818931125000,3.348125,0.15344999730587006,0.2601499855518341,-0.08291249722242355
1788107818941214000,3.3582138671875,0.19002500176429749,0.210099995136261,0.03932499885559082
1788107818951302000,3.368302001953125,0.22673749923706055,0.14657500386238098,0.15537500381469727
1788107818961395500,3.3783955078125,0.26221248507499695,0.12815000116825104,0.23718750476837158
1788107818971484400,3.388484375,0.28654998540878296,0.1293874979019165,0.2652375102043152
1788107818981570800,3.39857080078125,0.2915000021457672,0.14038750529289246,0.2494249939918518
1788107818991652000,3.408652099609375,0.28421249985694885,0.17215000092983246,0.2237125039100647
1788107819001741000,3.418740966796875,0.2732124924659729,0.20886249840259552,0.20295000076293945
1788107819011829200,3.428829345703125,0.2536875009536743,0.20157499611377716,0.1859000027179718
1788107819021917200,3.438917236328125,0.23649999499320984,0.16981250047683716,0.16637499630451202
1788107819032004900,3.4490048828125,0.227974995970726,0.11357499659061432,0.11618749797344208
1788107819042093000,3.459093017578125,0.2120250016450882,0.08910000324249268,0.055137500166893005
1788107819052182800,3.469182861328125,0.18768750131130219,0.1013374999165535,-0.008387500420212746
1788107819062272800,3.479272705078125,0.16692499816417694,0.10862500220537186,-0.07562500238418579
1788107819072367600,3.48936767578125,0.16073749959468842,0.1270499974489212,-0.13420000672340393
1788107819082464800,3.49946484375,0.14973749220371246,0.1428624987602234,-0.17572499811649323
1788107819092557300,3.509557373046875,0.14368750154972076,0.12815000116825104,-0.1989624947309494
1788107819102645200,3.519645263671875,0.14492499828338623,0.0976250022649765,-0.2246749997138977
1788107819112731400,3.5297314453125,0.14492499828338623,0.07328750193119049,-0.25753748416900635
1788107819122818800,3.53981884765625,0.1424500048160553,0.05857500061392784,-0.2820124924182892
1788107819132908300,3.549908203125,0.1387374997138977,0.04881250113248825,-0.30153748393058777
1788107819142987800,3.55998779296875,0.14121249318122864,0.07328750193119049,-0.3443000018596649
1788107819153082000,3.57008203125,0.15097500383853912,0.11728750169277191,-0.38472500443458557
1788107819163156700,3.58015673828125,0.16692499816417694,0.1551000028848648,-0.4030124843120575
1788107819173245700,3.59024560546875,0.1779250055551529,0.1685750037431717,-0.3932499885559082
1788107819183330600,3.60033056640625,0.18645000457763672,0.16005000472068787,-0.36877501010894775
1788107819193419000,3.6104189453125,0.19126249849796295,0.14533749222755432,-0.3297249972820282
1788107819203504600,3.620504638671875,0.19744999706745148,0.1293874979019165,-0.29548749327659607
1788107819213589000,3.630589111328125,0.2059749960899353,0.14657500386238098,-0.2844874858856201
1788107819223675000,3.6406748046875,0.2120250016450882,0.17710000276565552,-0.2844874858856201
1788107819233759700,3.650759765625,0.2120250016450882,0.1929125040769577,-0.2844874858856201
1788107819243845400,3.660845458984375,0.20102499425411224,0.20886249840259552,-0.25753748416900635
1788107819253935600,3.670935546875,0.18150000274181366,0.19910000264644623,-0.19648750126361847
1788107819264021200,3.681021240234375,0.16568750143051147,0.16733749210834503,-0.12443749606609344
1788107819274111200,3.691111328125,0.15826250612735748,0.1293874979019165,-0.04262499883770943
1788107819284186400,3.701186279296875,0.14492499828338623,0.08057499676942825,0.052662499248981476
1788107819294281500,3.711281494140625,0.11797499656677246,0.04386249929666519,0.12966249883174896
1788107819304367600,3.72136767578125,0.08868750184774399,0.0170499999076128,0.18342499434947968
1788107819314453000,3.731452880859375,0.05816249921917915,0.006049999967217445,0.22013749182224274
1788107819324532000,3.741531982421875,0.023924998939037323,0.0085249999538064,0.233474999666214
1788107819334619100,3.751619140625,-0.0028874999843537807,0.02433750033378601,0.21889999508857727
1788107819344704800,3.761704833984375,-0.028599999845027924,0.04881250113248825,0.1919499933719635
1788107819354794800,3.771794677734375,-0.048124998807907104,0.07686249911785126,0.14313749969005585
1788107819364878600,3.781878662109375,-0.05912499874830246,0.08662500232458115,0.07961250096559525
1788107819374968000,3.791968017578125,-0.07741250097751617,0.1073874980211258,0.03437500074505806
1788107819385053700,3.8020537109375,-0.09941250085830688,0.12333749979734421,0.006324999965727329
1788107819395138300,3.81213818359375,-0.11412499845027924,0.14038750529289246,-0.004674999974668026
1788107819405234000,3.82223388671875,-0.13612499833106995,0.1611499935388565,-0.0034374999813735485
1788107819415317800,3.83231787109375,-0.15936249494552612,0.17215000092983246,0.006324999965727329
1788107819425396700,3.842396728515625,-0.1691250056028366,0.16609999537467957,0.011137500405311584
1788107819435482400,3.852482421875,-0.1751749962568283,0.15138749778270721,0.00013749999925494194
1788107819445567700,3.862567626953125,-0.17393749952316284,0.13186250627040863,-0.02419999986886978
1788107819455654000,3.87265380859375,-0.16788749396800995,0.10009999573230743,-0.05843750014901161
1788107819465735400,3.8827353515625,-0.1751749962568283,0.08538749814033508,-0.05843750014901161
1788107819475817700,3.892817626953125,-0.17036250233650208,0.05362499877810478,-0.025437500327825546
1788107819485904100,3.902904052734375,-0.17159999907016754,0.06462500244379044,-0.01691249944269657
1788107819495991600,3.912991455078125,-0.16788749396800995,0.08910000324249268,-0.032862499356269836
1788107819506063600,3.923063720703125,-0.17036250233650208,0.11838749796152115,-0.06338749825954437
1788107819516153600,3.933153564453125,-0.17765000462532043,0.1588124930858612,-0.09267500042915344
1788107819526248000,3.943248046875,-0.19717499613761902,0.18562500178813934,-0.0976250022649765
1788107819536336000,3.9533359375,-0.20817500352859497,0.15386250615119934,-0.07686249911785126
1788107819546421800,3.963421875,-0.19965000450611115,0.07686249911785126,-0.062150001525878906
1788107819556506000,3.973506103515625,-0.1849374920129776,0.006049999967217445,-0.06696250289678574
1788107819566590200,3.983590087890625,-0.17270000278949738,-0.040424998849630356,-0.09391249716281891
1788107819576679000,3.993678955078125,-0.15441249310970306,-0.04647500067949295,-0.1293874979019165
1788107819586760200,4.00376025390625,-0.13859999179840088,-0.02199999988079071,-0.16596250236034393
1788107819596852200,4.013852294921875,-0.13612499833106995,-0.002474999986588955,-0.18191249668598175
1788107819606933500,4.02393359375,-0.1434125006198883,0.0010999999940395355,-0.17215000092983246
1788107819617023200,4.034023193359375,-0.15936249494552612,-0.0037124999798834324,-0.15496249496936798
1788107819627103000,4.04410302734375,-0.1751749962568283,0.0010999999940395355,-0.1317249983549118
1788107819637188900,4.05418896484375,-0.1849374920129776,-0.00989999994635582,-0.11467500030994415
1788107819647270400,4.0642705078125,-0.18988749384880066,-0.04166249930858612,-0.1097249984741211
1788107819657360000,4.07435986328125,-0.19112500548362732,-0.06476250290870667,-0.12072499841451645
1788107819667439600,4.084439697265625,-0.19236250221729279,-0.0672374963760376,-0.13667500019073486
1788107819677518300,4.094518310546875,-0.19346250593662262,-0.07576250284910202,-0.1451999992132187
1788107819687598000,4.10459814453125,-0.18136249482631683,-0.0989999994635582,-0.15867500007152557
1788107819697689300,4.114689453125,-0.15936249494552612,-0.09776250272989273,-0.17943750321865082
1788107819707769600,4.12476953125,-0.1531749963760376,-0.06971249729394913,-0.1891999989748001
1788107819717859800,4.13485986328125,-0.16417500376701355,-0.02694999985396862,-0.1671999990940094
1788107819727946800,4.14494677734375,-0.18136249482631683,-0.020899999886751175,-0.10491249710321426
1788107819738032400,4.155032470703125,-0.18136249482631683,-0.05376249924302101,-0.04386249929666519
1788107819748119800,4.165119873046875,-0.1691250056028366,-0.0989999994635582,-0.01209999993443489
1788107819758206700,4.175206787109375,-0.14959999918937683,-0.13199999928474426,-0.007149999961256981
1788107819768285400,4.185285400390625,-0.12993749976158142,-0.13323749601840973,-0.020624998956918716
1788107819778377200,4.195377197265625,-0.12017499655485153,-0.11247500032186508,-0.0340999998152256
1788107819788468000,4.205468017578125,-0.1153625026345253,-0.09776250272989273,-0.020624998956918716
1788107819798558700,4.215558837890625,-0.11412499845027924,-0.08676250278949738,0.013612499460577965
1788107819808643000,4.22564306640625,-0.1153625026345253,-0.08442500233650208,0.04661250114440918
1788107819818736600,4.235736572265625,-0.1153625026345253,-0.08195000141859055,0.07342500239610672
1788107819828825600,4.24582568359375,-0.12388750165700912,-0.07342500239610672,0.09184999763965607
1788107819838921700,4.255921630859375,-0.1311749964952469,-0.06847500056028366,0.09308750182390213
1788107819849001700,4.266001708984375,-0.13983750343322754,-0.08195000141859055,0.07342500239610672
1788107819859094800,4.2760947265625,-0.14464999735355377,-0.08676250278949738,0.033137500286102295
1788107819869174000,4.286174072265625,-0.14258749783039093,-0.03932499885559082,0.0013749999925494194
1788107819879262500,4.296262451171875,-0.14630000293254852,0.02914999984204769,0.0013749999925494194
1788107819889341200,4.306341064453125,-0.15111249685287476,0.07067500054836273,0.04179999977350235
1788107819899417600,4.31641748046875,-0.16087499260902405,0.08772499859333038,0.0943249985575676
1788107819909495800,4.326495849609375,-0.18287499248981476,0.08896250277757645,0.15166249871253967
1788107819919581700,4.336581787109375,-0.21092499792575836,0.06572499871253967,0.20542499423027039
1788107819929658400,4.346658447265625,-0.23292499780654907,0.03148749843239784,0.24089999496936798
1788107819939751200,4.356751220703125,-0.24392500519752502,-0.01251249946653843,0.2531374990940094
1788107819949837600,4.366837646484375,-0.24268749356269836,-0.035612501204013824,0.24818749725818634
1788107819959931400,4.376931396484375,-0.24034999310970306,-0.04179999977350235,0.23594999313354492
1788107819970009900,4.387009765625,-0.24639999866485596,-0.030799999833106995,0.2311374992132187
1788107819980106200,4.397106201171875,-0.26358750462532043,-0.01484999991953373,0.23471249639987946
1788107819990187800,4.407187744140625,-0.27568748593330383,-0.028324998915195465,0.24089999496936798
1788107820000275700,4.417275634765625,-0.283112496137619,-0.060087498277425766,0.21889999508857727
1788107820010354700,4.427354736328125,-0.2793999910354614,-0.0943249985575676,0.16637499630451202
1788107820020438500,4.4374384765625,-0.2793999910354614,-0.10408750176429749,0.11013749986886978
1788107820030521900,4.44752197265625,-0.2806375026702881,-0.08937499672174454,0.06861250102519989
1788107820040612400,4.4576123046875,-0.2866874933242798,-0.04908749833703041,0.042899999767541885
1788107820050694000,4.46769384765625,-0.29534998536109924,-0.005087499972432852,0.030799999833106995
1788107820060782000,4.477781982421875,-0.29411250352859497,0.020487500354647636,0.028324998915195465
1788107820070857000,4.48785693359375,-0.2806375026702881,0.025437500327825546,0.007562499959021807
1788107820080946200,4.4979462890625,-0.2586374878883362,0.037675000727176666,-0.022962499409914017
1788107820091036000,4.508035888671875,-0.24268749356269836,0.04124999791383743,-0.037675000727176666
1788107820101125400,4.51812548828125,-0.22192500531673431,0.022962499409914017,-0.0364375002682209
1788107820111215000,4.528215087890625,-0.20982499420642853,0.030249999836087227,-0.01691249944269657
1788107820121304000,4.538303955078125,-0.20239999890327454,0.05101250112056732,0.016087500378489494
1788107820131391700,4.548391845703125,-0.1938749998807907,0.08167500048875809,0.060087498277425766
1788107820141477600,4.5584775390625,-0.18906250596046448,0.08648750185966492,0.09913749992847443
1788107820151564000,4.56856396484375,-0.18906250596046448,0.06572499871253967,0.1358499974012375
1788107820161646600,4.578646484375,-0.19139999151229858,0.013199999928474426,0.1504250019788742
1788107820171731000,4.58873095703125,-0.18658749759197235,-0.05637500062584877,0.14190000295639038
1788107820181815800,4.59881591796875,-0.18782499432563782,-0.09556250274181366,0.11384999752044678
1788107820191906600,4.608906494140625,-0.19016249477863312,-0.10161250084638596,0.07961250096559525
1788107820202001000,4.6190009765625,-0.18535000085830688,-0.10779999941587448,0.04413750022649765
1788107820212091100,4.629091064453125,-0.1658249944448471,-0.1260875016450882,0.002612499985843897
1788107820222169900,4.639169921875,-0.15111249685287476,-0.1321374922990799,-0.037675000727176666
1788107820232263700,4.649263671875,-0.14135000109672546,-0.13089999556541443,-0.05843750014901161
1788107820242347800,4.65934765625,-0.14011250436306,-0.12361250072717667,-0.05967500060796738
1788107820252436000,4.66943603515625,-0.13887499272823334,-0.1223749965429306,-0.06338749825954437
1788107820262518800,4.679518798828125,-0.1363999992609024,-0.1321374922990799,-0.0719124972820282
1788107820272610800,4.68961083984375,-0.13282500207424164,-0.1480875015258789,-0.10491249710321426
1788107820282694700,4.699694580078125,-0.11811249703168869,-0.1676124930381775,-0.1732500046491623
1788107820292783400,4.709783447265625,-0.10353749990463257,-0.1541374921798706,-0.23925000429153442
1788107820302872800,4.719872802734375,-0.09363749623298645,-0.1223749965429306,-0.2722499966621399
1788107820312962800,4.729962890625,-0.09611249715089798,-0.0943249985575676,-0.26496249437332153
1788107820323051500,4.740051513671875,-0.1120624989271164,-0.07961250096559525,-0.2307250052690506
1788107820333141500,4.7501416015625,-0.12430000305175781,-0.08937499672174454,-0.1732500046491623
1788107820343229200,4.760229248046875,-0.12787500023841858,-0.13089999556541443,-0.12691250443458557
1788107820353320200,4.7703203125,-0.12182500213384628,-0.17613749206066132,-0.11343749612569809
1788107820363408400,4.780408447265625,-0.10958749800920486,-0.21037499606609344,-0.1354375034570694
1788107820373492700,4.79049267578125,-0.1023000031709671,-0.19208750128746033,-0.1732500046491623
1788107820383580700,4.80058056640625,-0.11453749984502792,-0.1260875016450882,-0.18672500550746918
1788107820393662000,4.810661865234375,-0.1363999992609024,-0.07713750004768372,-0.16843749582767487
1788107820403751400,4.82075146484375,-0.15234999358654022,-0.07713750004768372,-0.15125000476837158
1788107820413837600,4.830837646484375,-0.1658249944448471,-0.09679999947547913,-0.14877499639987946
1788107820423921700,4.840921630859375,-0.17063750326633453,-0.1480875015258789,-0.16967499256134033
1788107820434003700,4.851003662109375,-0.16830000281333923,-0.1956624984741211,-0.2050125002861023
1788107820444092400,4.861092529296875,-0.16458749771118164,-0.20666250586509705,-0.22824999690055847
1788107820454176000,4.871176025390625,-0.16458749771118164,-0.17489999532699585,-0.21601249277591705
1788107820464264400,4.881264404296875,-0.17311249673366547,-0.1297999918460846,-0.1634874939918518
1788107820474352000,4.89135205078125,-0.17434999346733093,-0.12361250072717667,-0.10724999755620956
1788107820484440600,4.901440673828125,-0.16458749771118164,-0.1443749964237213,-0.07315000146627426
1788107820494532400,4.911532470703125,-0.14739999175071716,-0.1993750035762787,-0.05719999969005585
1788107820504612400,4.9216123046875,-0.13158750534057617,-0.2470874935388565,-0.04743750020861626
1788107820514703400,4.931703369140625,-0.13158750534057617,-0.25561249256134033,-0.03519999980926514
1788107820524786200,4.9417861328125,-0.12787500023841858,-0.25189998745918274,-0.02419999986886978
1788107820534872600,4.95187255859375,-0.10958749800920486,-0.256850004196167,-0.010724999941885471
1788107820544961300,4.961961181640625,-0.08153750002384186,-0.27390000224113464,0.00013749999925494194
1788107820555052300,4.97205224609375,-0.06435000151395798,-0.27761250734329224,0.02461249940097332
1788107820565140200,4.98214013671875,-0.04853750020265579,-0.2653749883174896,0.04908749833703041
1788107820575232500,4.992232421875,-0.03506249934434891,-0.24818749725818634,0.06613750010728836
1788107820585317400,5.0023173828125,-0.026537500321865082,-0.23966249823570251,0.0845625028014183
1788107820595411700,5.01241162109375,-0.021587500348687172,-0.23485000431537628,0.10656250268220901
1788107820605496000,5.02249609375,-0.013062499463558197,-0.2616625130176544,0.13942499458789825
1788107820615589000,5.032589111328125,-0.0008249999955296516,-0.2909500002861023,0.15661250054836273
1788107820625681000,5.042680908203125,0.011412499472498894,-0.3227125108242035,0.14918750524520874
1788107820635771600,5.052771728515625,0.01746249943971634,-0.344712495803833,0.10284999758005142
1788107820645857300,5.062857177734375,0.018699999898672104,-0.34113749861717224,0.042899999767541885
1788107820655942700,5.072942626953125,0.02722499892115593,-0.3301374912261963,-0.02667500078678131
1788107820666027300,5.08302734375,0.03451250120997429,-0.2788499891757965,-0.09391249716281891
1788107820676112400,5.0931123046875,0.03217500075697899,-0.23237499594688416,-0.14643749594688416
1788107820686195500,5.103195556640625,0.035750001668930054,-0.2213750034570694,-0.1769624948501587
1788107820696286200,5.1132861328125,0.03946249932050705,-0.22013749182224274,-0.18796250224113464
1788107820706374400,5.12337451171875,0.050462499260902405,-0.2213750034570694,-0.19772499799728394
1788107820716461000,5.1334609375,0.060224998742341995,-0.20432500541210175,-0.20019999146461487
1788107820726538200,5.143538330078125,0.07851249724626541,-0.1956624984741211,-0.20253749191761017
1788107820736626700,5.153626708984375,0.09569999575614929,-0.18713749945163727,-0.20624999701976776
1788107820746707000,5.16370703125,0.10298749804496765,-0.1859000027179718,-0.1891999989748001
1788107820756782600,5.173782470703125,0.09569999575614929,-0.18108749389648438,-0.13667500019073486
1788107820766861800,5.18386181640625,0.0859375,-0.18232500553131104,-0.06696250289678574
1788107820776994600,5.19399462890625,0.07617499679327011,-0.19085000455379486,-0.004674999974668026
1788107820787072300,5.204072265625,0.03451250120997429,-0.16032500565052032,0.0648999959230423
1788107820797156900,5.214156982421875,0.08470000326633453,-0.10532499849796295,0.08332499861717224
1788107820807242000,5.224241943359375,0.0882750004529953,-0.013612499460577965,0.08566249907016754
1788107820817332000,5.23433203125,0.07727500051259995,0.05348749831318855,0.08689999580383301
1788107820827414000,5.2444140625,0.057750001549720764,0.06324999779462814,0.1163249984383583
1788107820837500200,5.254500244140625,0.03946249932050705,0.03891250118613243,0.16885000467300415
1788107820847583200,5.264583251953125,0.03451250120997429,-0.021037500351667404,0.2176624983549118
1788107820857671400,5.27467138671875,0.025987500324845314,-0.07961250096559525,0.26042500138282776
1788107820867758300,5.28475830078125,-0.0008249999955296516,-0.1260875016450882,0.3007124960422516
1788107820877848000,5.29484814453125,-0.0411125011742115,-0.14561249315738678,0.3409999907016754
1788107820887928300,5.30492822265625,-0.09253749996423721,-0.13708749413490295,0.37894999980926514
1788107820898016800,5.315016845703125,-0.13529999554157257,-0.11879999935626984,0.3959999978542328
1788107820908100600,5.3251005859375,-0.1621125042438507,-0.0906125009059906,0.38142499327659607
1788107820918187800,5.335187744140625,-0.17063750326633453,-0.07108750194311142,0.3251875042915344
1788107820928267800,5.345267822265625,-0.17434999346733093,-0.04661250114440918,0.23594999313354492
1788107820938356500,5.3553564453125,-0.17434999346733093,0.007149999961256981,0.12361250072717667
1788107820948440000,5.365440185546875,-0.1755875051021576,0.06696250289678574,0.01484999991953373
1788107820958535000,5.375534912109375,-0.16830000281333923,0.1036750003695488,-0.0644875019788742
1788107820968612000,5.385612060546875,-0.1658249944448471,0.0999625027179718,-0.11467500030994415
1788107820978702000,5.3957021484375,-0.16458749771118164,0.08896250277757645,-0.12072499841451645
1788107820988786200,5.4057861328125,-0.15358750522136688,0.07548750191926956,-0.09391249716281891
1788107820998875000,5.415875,-0.1438249945640564,0.06696250289678574,-0.05115000158548355
1788107821008953000,5.425953125,-0.14011250436306,0.05843750014901161,-0.005912499967962503
1788107821019040800,5.436040771484375,-0.14135000109672546,0.05348749831318855,0.028324998915195465
1788107821029119000,5.446118896484375,-0.1498750001192093,0.04867500066757202,0.045375000685453415
1788107821039214300,5.45621435546875,-0.14630000293254852,0.0364375002682209,0.03932499885559082
1788107821049294300,5.46629443359375,-0.1266375035047531,0.04001250118017197,0.010037500411272049
1788107821059392800,5.476392822265625,-0.10353749990463257,0.0424874983727932,-0.027912499383091927
1788107821069472000,5.486471923828125,-0.08758749812841415,0.0644875019788742,-0.04372499883174896
1788107821079558000,5.496557861328125,-0.07782500237226486,0.1036750003695488,-0.03272499889135361
1788107821089643300,5.506643310546875,-0.08030000329017639,0.13296249508857727,0.01732499897480011
1788107821099729700,5.516729736328125,-0.09253749996423721,0.15125000476837158,0.10161250084638596
1788107821109811700,5.526811767578125,-0.10587500035762787,0.14877499639987946,0.1859000027179718
1788107821119901400,5.5369013671875,-0.1083500012755394,0.12553749978542328,0.2591874897480011
1788107821129984800,5.54698486328125,-0.09982500225305557,0.07067500054836273,0.29218751192092896
1788107821140069600,5.557069580078125,-0.09006249904632568,0.04124999791383743,0.2946625053882599
1788107821150155500,5.567155517578125,-0.08387500047683716,0.020487500354647636,0.27390000224113464
1788107821160240400,5.577240478515625,-0.08030000329017639,0.01924999989569187,0.23718750476837158
1788107821170323500,5.587323486328125,-0.06929999589920044,0.007149999961256981,0.21889999508857727
1788107821180414700,5.597414794921875,-0.04729999974370003,-0.028324998915195465,0.2237125039100647
1788107821190497300,5.607497314453125,-0.04606249928474426,-0.21889999508857727,0.38871249556541443
1788107821200589000,5.617589111328125,-0.01924999989569187,-0.1163249984383583,0.3484250009059906
1788107821210675000,5.627675048828125,-0.018012499436736107,0.0364375002682209,0.29218751192092896
1788107821220759300,5.63775927734375,-0.0057749999687075615,0.13420000672340393,0.21285000443458557
1788107821230849800,5.647849853515625,0.011412499472498894,0.24777500331401825,0.10532499849796295
1788107821240941300,5.65794140625,0.018699999898672104,0.30758750438690186,0.021037500351667404
1788107821251040000,5.6680400390625,0.01746249943971634,0.322299987077713,-0.015675000846385956
1788107821261130000,5.6781298828125,0.014987500384449959,0.2820124924182892,0.01484999991953373
1788107821271215600,5.688215576171875,0.018699999898672104,0.19277499616146088,0.10161250084638596
1788107821281307100,5.69830712890625,0.040699999779462814,0.12443749606609344,0.20295000076293945
1788107821291396600,5.708396728515625,0.07246249914169312,0.09501250088214874,0.2849000096321106
1788107821301478400,5.718478515625,0.09322500228881836,0.09377499669790268,0.32999998331069946
1788107821311565300,5.7285654296875,0.09569999575614929,0.1097249984741211,0.32394999265670776
1788107821321652700,5.73865283203125,0.08346249908208847,0.11453749984502792,0.28366249799728394
1788107821331738000,5.748738037109375,0.07603749632835388,0.11219999939203262,0.22866250574588776
1788107821341825500,5.758825439453125,0.08346249908208847,0.11453749984502792,0.16637499630451202
1788107821351912200,5.768912109375,0.09693749994039536,0.1414874941110611,0.11508750170469284
1788107821362002200,5.779002197265625,0.09569999575614929,0.17820000648498535,0.08566249907016754
1788107821372092700,5.7890927734375,0.0859375,0.20253749191761017,0.06861250102519989
1788107821382171100,5.799171142578125,0.082225002348423,0.22082500159740448,0.05884999781847
1788107821392267800,5.809267822265625,0.07851249724626541,0.2147749960422516,0.07232499867677689
1788107821402353000,5.819352783203125,0.07493750005960464,0.20377500355243683,0.0966624990105629
1788107821412441000,5.829441162109375,0.060224998742341995,0.17201249301433563,0.11384999752044678
1788107821422556400,5.839556396484375,0.052937500178813934,0.1317249983549118,0.12484999746084213
1788107821432646000,5.84964599609375,0.0541750006377697,0.10848750174045563,0.1260875016450882
1788107821442728700,5.859728759765625,0.06751249730587006,0.06943749636411667,0.09556250274181366
1788107821452824000,5.869823974609375,0.06393750011920929,0.05224999785423279,0.035612501204013824
1788107821465937200,5.882937255859375,0.06393750011920929,0.009487500414252281,-0.05719999969005585
1788107821476027100,5.893027099609375,0.06998749822378159,-0.01732499897480011,-0.12072499841451645
1788107821486114800,5.90311474609375,0.0859375,-0.033275000751018524,-0.1634874939918518
1788107821496192500,5.913192626953125,0.10546249896287918,-0.05403750017285347,-0.17820000648498535
1788107821511331800,5.928331787109375,0.14079999923706055,-0.016087500378489494,-0.17820000648498535
1788107821521416000,5.938416015625,0.14327499270439148,0.06091250106692314,-0.17572499811649323
1788107821531503600,5.948503662109375,0.12498749792575836,0.1769624948501587,-0.16472500562667847
1788107821541591800,5.958591796875,0.08951249718666077,0.2807750105857849,-0.13791249692440033
1788107821551678000,5.968677978515625,0.07727500051259995,0.3235374987125397,-0.11948750168085098
1788107821561769000,5.97876904296875,0.09075000137090683,0.2770625054836273,-0.15001249313354492
1788107821571863800,5.98886376953125,0.11646249890327454,0.18548749387264252,-0.22220000624656677
1788107821581952300,5.9989521484375,0.14822499454021454,0.1060125008225441,-0.2942500114440918
1788107821597088300,6.014088134765625,0.18603749573230743,0.011962499469518661,-0.31130000948905945
1788107821607178000,6.024177978515625,0.21408750116825104,-0.016087500378489494,-0.25519999861717224
1788107821617271000,6.03427099609375,0.21408750116825104,-0.016087500378489494,-0.17572499811649323
1788107821636438000,6.05343798828125,0.12870000302791595,-0.08332499861717224,-0.06572499871253967
1788107821646523400,6.0635234375,0.11769999563694,-0.14561249315738678,-0.09019999951124191
1788107821656610600,6.073610595703125,0.1297999918460846,-0.17861250042915344,-0.17448750138282776
1788107821666691800,6.08369189453125,0.142037495970726,-0.20666250586509705,-0.2917749881744385
1788107821676775400,6.093775390625,0.15427500009536743,-0.22384999692440033,-0.4017750024795532
1788107821686866400,6.103866455078125,0.17874999344348907,-0.21037499606609344,-0.4763000011444092
1788107821696953300,6.113953369140625,0.20198750495910645,-0.16513749957084656,-0.5128750205039978
1788107821707053800,6.1240537109375,0.21779999136924744,-0.11137499660253525,-0.5105375051498413
1788107821717139000,6.134138916015625,0.22398750483989716,-0.15661250054836273,-0.5153499841690063
1788107821727227000,6.144226806640625,0.23732499778270721,-0.2494249939918518,-0.5593500137329102
1788107821737312500,6.1543125,0.2545124888420105,-0.36918750405311584,-0.6399250030517578
1788107821747404000,6.164404052734375,0.27156248688697815,-0.4791874885559082,-0.7902125120162964
1788107821757493800,6.17449365234375,0.296037495136261,-0.5439500212669373,-0.9685499668121338
1788107821767577300,6.184577392578125,0.3265624940395355,-0.5597624778747559,-1.128600001335144
1788107821777663000,6.1946630859375,0.38513749837875366,-0.5402374863624573,-1.2348874807357788
1788107821787749400,6.204749267578125,0.426800012588501,-0.4889499843120575,-1.2850749492645264
1788107821797837000,6.214837158203125,0.5048999786376953,-0.4914250075817108,-1.2630749940872192
1788107821807917000,6.2249169921875,0.5220875144004822,-0.48042500019073486,-1.2190749645233154
1788107821818007000,6.235007080078125,0.5134249925613403,-0.3741374909877777,-1.1970750093460083
1788107821828091000,6.2450908203125,0.5013250112533569,-0.24213749170303345,-1.2300750017166138
1788107821838174200,6.25517431640625,0.5171374678611755,-0.05637500062584877,-1.252074956893921
1788107821848268300,6.265268310546875,0.5733749866485596,0.08648750185966492,-1.2423125505447388
1788107821858357800,6.275357666015625,0.6258999705314636,0.18301250040531158,-1.1580250263214111
1788107821868452400,6.285452392578125,0.6564249992370605,0.23430000245571136,-0.9587875008583069
1788107821878540300,6.295540283203125,0.6589000225067139,0.30758750438690186,-0.6313999891281128
1788107821888628700,6.305628662109375,0.641712486743927,0.42006251215934753,-0.2441999912261963
1788107821898714600,6.315714599609375,0.5159000158309937,0.5348749756813049,0.23237499594688416
1788107821908797700,6.325797607421875,0.4010874927043915,0.5824499726295471,0.6403374671936035
1788107821918883300,6.33588330078125,0.28751251101493835,0.5556374788284302,0.8761500120162964
1788107821928963800,6.3459638671875,0.19827499985694885,0.3772999942302704,0.9054374694824219
1788107821939056400,6.356056396484375,0.10298749804496765,0.18548749387264252,0.7430499792098999
1788107821949141200,6.366141357421875,-0.008249999955296516,0.1280124932527542,0.510812520980835
1788107821959231500,6.3762314453125,-0.07906249910593033,0.2110625058412552,0.38142499327659607
1788107821969324300,6.38632421875,-0.09611249715089798,0.3357749879360199,0.39476248621940613
1788107821979410200,6.39641015625,-0.08401250094175339,0.38458749651908875,0.5317124724388123
1788107821989497300,6.406497314453125,-0.09611249715089798,0.3405874967575073,0.7540500164031982
1788107821999584800,6.416584716796875,-0.15111249685287476,0.24901250004768372,0.9323874711990356
1788107822009667600,6.42666748046875,-0.1621125042438507,0.12677499651908875,0.9336249828338623
1788107822019757000,6.436757080078125,-0.19263750314712524,0.07919999957084656,0.7125250101089478
1788107822029847300,6.446847412109375,-0.254925012588501,0.17077499628067017,0.344712495803833
1788107822039937500,6.4569375,-0.3258749842643738,0.3540624976158142,0.005087499972432852
1788107822050021600,6.467021728515625,-0.3526875078678131,0.5226374864578247,-0.22220000624656677
1788107822060107500,6.477107421875,-0.29534998536109924,0.5593500137329102,-0.2905375063419342
1788107822070189600,6.487189453125,-0.17682500183582306,0.4395875036716461,-0.23430000245571136
1788107822080274000,6.49727392578125,-0.0448249988257885,0.2782999873161316,-0.07919999957084656
1788107822090372600,6.50737255859375,0.057750001549720764,0.12196250259876251,0.1381874978542328
1788107822100457000,6.51745703125,0.0882750004529953,0.07548750191926956,0.3899500072002411
1788107822110557000,6.527556884765625,0.03217500075697899,0.12677499651908875,0.6391000151634216
1788107822120641000,6.53764111328125,-0.08635000139474869,0.2428250014781952,0.868862509727478
1788107822130736600,6.547736572265625,-0.171875,0.30882498621940613,1.0544874668121338
1788107822140828700,6.55782861328125,-0.19511249661445618,0.32711249589920044,1.1962499618530273
1788107822150925000,6.567925048828125,-0.1816374957561493,0.2965874969959259,1.3172500133514404
1788107822161015600,6.578015625,-0.15606249868869781,0.1634874939918518,1.3782999515533447
1788107822171122700,6.588122802734375,-0.14011250436306,-0.02956249937415123,1.3172500133514404
1788107822181212400,6.59821240234375,-0.12553749978542328,-0.22261250019073486,1.1241999864578247
1788107822191303000,6.608302978515625,-0.11082500219345093,-0.3044250011444092,0.8724374771118164
1788107822201400000,6.618400146484375,-0.06558749824762344,-0.3741374909877777,0.6159999966621399
1788107822211491300,6.6284912109375,-0.0448249988257885,-0.42666250467300415,0.4021874964237213
1788107822221583400,6.638583251953125,0.011412499472498894,-0.40094998478889465,0.22495000064373016
1788107822231673300,6.64867333984375,0.10298749804496765,-0.2934249937534332,0.08208750188350677
1788107822251847700,6.66884765625,0.2667500078678131,0.13653749227523804,0.021037500351667404
1788107822261936400,6.678936279296875,0.31185001134872437,0.3357749879360199,0.09556250274181366
1788107822272032500,6.689032470703125,0.2690874934196472,0.516587495803833,0.24213749170303345
1788107822282111700,6.69911181640625,0.17379999160766602,0.5629249811172485,0.4754749834537506
1788107822292206300,6.709206298828125,0.11879999935626984,0.5055875182151794,0.7246249914169312
1788107822302291200,6.719291259765625,0.14822499454021454,0.4151124954223633,0.8920999765396118
1788107822312395800,6.729395751953125,0.26785001158714294,0.22577500343322754,0.9666249752044678
1788107822322480000,6.739480224609375,0.3656125068664551,-0.2433750033378601,1.0337250232696533
1788107822332570400,6.7495703125,0.39861249923706055,-0.4314749836921692,1.0789624452590942
1788107822342652200,6.759652099609375,0.431612491607666,-0.39723750948905945,1.0874874591827393
1788107822352743000,6.769742919921875,0.4816625118255615,-0.20542499423027039,1.0496749877929688
1788107822362830600,6.77983056640625,0.5318499803543091,-0.013612499460577965,0.9372000098228455
1788107822372928800,6.7899287109375,0.5867124795913696,0.12319999933242798,0.8003875017166138
1788107822383011600,6.800011474609375,0.6001874804496765,0.11948750168085098,0.6806250214576721
1788107822393100800,6.810100830078125,0.562375009059906,0.0644875019788742,0.546287477016449
1788107822413286400,6.830286376953125,0.3961375057697296,-0.09556250274181366,0.15661250054836273
1788107822423366000,6.840365966796875,0.31185001134872437,-0.1676124930381775,-0.05472499877214432
1788107822433459700,6.850459716796875,0.2605625092983246,-0.23966249823570251,-0.23553749918937683
1788107822443544300,6.86054443359375,0.2508000135421753,-0.30566251277923584,-0.4127750098705292
1788107822453632800,6.8706328125,0.28380000591278076,-0.3166624903678894,-0.5850625038146973
1788107822463723500,6.8807236328125,0.30937498807907104,-0.2689499855041504,-0.7254499793052673
1788107822473813800,6.890813720703125,0.320374995470047,-0.23485000431537628,-0.809737503528595
1788107822483900400,6.900900390625,0.320374995470047,-0.2824249863624573,-0.8427374958992004
1788107822494004700,6.911004638671875,0.3423750102519989,-0.40466248989105225,-0.8329749703407288
1788107822504090400,6.92109033203125,0.3973749876022339,-0.602524995803833,-0.8549749851226807
1788107822514184700,6.931184814453125,0.5000874996185303,-0.7870500087738037,-0.9784500002861023
1788107822524274000,6.94127392578125,0.6576625108718872,-0.851812481880188,-1.272837519645691
1788107822534368000,6.951367919921875,0.916575014591217,-0.7662875056266785,-1.7455624341964722
1788107822544457000,6.96145703125,1.1633875370025635,-0.34113749861717224,-2.2281875610351562
1788107822554555100,6.97155517578125,1.275862455368042,0.32106250524520874,-2.4945249557495117
1788107822564637400,6.981637451171875,1.2343374490737915,0.9147874712944031,-2.46771240234375
1788107822574723800,6.991723876953125,1.0608124732971191,1.1225500106811523,-2.202475070953369
1788107822584816400,7.00181640625,0.7882875204086304,0.9197375178337097,-1.8090875148773193
1788107822594922200,7.011922119140625,0.45608749985694885,0.4750624895095825,-1.4266999959945679
1788107822605006800,7.0220068359375,0.18232500553131104,0.07672499865293503,-1.1653125286102295
1788107822615101200,7.03210107421875,0.043037500232458115,-0.08579999953508377,-1.0847375392913818
1788107822625177900,7.042177734375,-0.002062499988824129,0.03272499889135361,-1.1800249814987183
1788107822635270000,7.052269775390625,-0.015537500381469727,0.36506250500679016,-1.352174997329712
1788107822645360000,7.062360107421875,-0.0668250024318695,0.8366875052452087,-1.4047000408172607
1788107822655451100,7.072451171875,-0.1023000031709671,1.203125,-1.2386000156402588
1788107822665546000,7.0825458984375,-0.11082500219345093,1.377887487411499,-0.8305000066757202
1788107822675641300,7.092641357421875,-0.10353749990463257,1.2495999336242676,-0.19772499799728394
1788107822685726000,7.102725830078125,-0.06201250106096268,0.9074999690055847,0.5059999823570251
1788107822695815000,7.11281494140625,-0.027775000780820847,0.4725874960422516,1.0984874963760376
1788107822705905000,7.12290478515625,0.002749999985098839,0.1695374995470047,1.538349986076355
1788107822716002000,7.133001953125,0.04922499880194664,0.07067500054836273,1.8071625232696533
1788107822726080000,7.143080078125,0.10422500222921371,0.11096250265836716,1.8865000009536743
1788107822736166700,7.153166748046875,0.16279999911785126,0.24901250004768372,1.8034499883651733
1788107822746253800,7.16325390625,0.19951249659061432,0.39311251044273376,1.6079249382019043
1788107822756339000,7.1733388671875,0.2287999987602234,0.4823499917984009,1.3660625219345093
1788107822766432800,7.183432861328125,0.2410375028848648,0.46158748865127563,1.1070125102996826
1788107822776523300,7.193523193359375,0.23980000615119934,0.3260124921798706,0.8383374810218811
1788107822786609700,7.203609619140625,0.17627499997615814,0.21601249277591705,0.5634750127792358
1788107822796704800,7.213704833984375,0.0882750004529953,0.15619999170303345,0.3409999907016754
1788107822806793000,7.22379296875,0.01746249943971634,0.09748750180006027,0.20542499423027039
1788107822816886500,7.233886474609375,-0.026537500321865082,0.03396249935030937,0.1381874978542328
1788107822826967600,7.243967529296875,-0.04358749836683273,-0.01251249946653843,0.09542500227689743
1788107822837063700,7.254063720703125,-0.05335000157356262,-0.03451250120997429,0.021037500351667404
1788107822847160800,7.264160888671875,-0.06324999779462814,-0.05884999781847,-0.10724999755620956
1788107822857264000,7.27426416015625,-0.09006249904632568,-0.08084999769926071,-0.2759625017642975
1788107822867343600,7.284343505859375,-0.10711249709129333,-0.08703749626874924,-0.42858749628067017
1788107822877429200,7.29442919921875,-0.08758749812841415,-0.14685000479221344,-0.5446375012397766
1788107822887520500,7.3045205078125,-0.03629999980330467,-0.1993750035762787,-0.6228749752044678
1788107822897615000,7.314614990234375,0.02227500081062317,-0.20432500541210175,-0.6839249730110168
1788107822907696400,7.3246962890625,0.04193750023841858,-0.1541374921798706,-0.7206375002861023
1788107822917791000,7.334791015625,0.01993750035762787,-0.07356250286102295,-0.7059249877929688
1788107822927873000,7.344873046875,-0.020487500354647636,-0.0038499999791383743,-0.6228749752044678
1788107822948047400,7.36504736328125,-0.04235000163316727,-0.13708749413490295,-0.42858749628067017
1788107822958143500,7.3751435546875,-0.030249999836087227,-0.18713749945163727,-0.3515875041484833
1788107822968221200,7.38522119140625,-0.021587500348687172,-0.16637499630451202,-0.27348750829696655
1788107822978323000,7.395322998046875,-0.0448249988257885,-0.13089999556541443,-0.20624999701976776
1788107822988411400,7.405411376953125,-0.08153750002384186,-0.14932499825954437,-0.17572499811649323
1788107822998512000,7.41551220703125,-0.11082500219345093,-0.2116124927997589,-0.18177500367164612
1788107823008589300,7.42558935546875,-0.12182500213384628,-0.25808748602867126,-0.2087250053882599
1788107823018676000,7.435676025390625,-0.10353749990463257,-0.24213749170303345,-0.2722499966621399
1788107823028756200,7.445756103515625,-0.09129999577999115,-0.10408750176429749,-0.3515875041484833
1788107823038849000,7.45584912109375,-0.09377499669790268,0.08772499859333038,-0.3797749876976013
1788107823048936200,7.465936279296875,-0.09501250088214874,0.21848750114440918,-0.3137750029563904
1788107823059030000,7.476030029296875,-0.07301250100135803,0.2563000023365021,-0.15372499823570251
1788107823069108000,7.48610791015625,-0.03753750026226044,0.195250004529953,0.07232499867677689
1788107823079195400,7.4961953125,-0.009487500414252281,0.11701250076293945,0.31542500853538513
1788107823089281500,7.506281494140625,0.008937500417232513,0.05719999969005585,0.5207124948501587
1788107823099377000,7.516376953125,0.023512499406933784,-0.016087500378489494,0.6598625183105469
1788107823109461200,7.526461181640625,0.023512499406933784,-0.11261250078678131,0.7258625030517578
1788107823119551500,7.536551513671875,-0.04853750020265579,-0.17613749206066132,0.7160999774932861
1788107823129632000,7.546632080078125,-0.1975875049829483,-0.15289999544620514,0.6342874765396118
1788107823149799000,7.566798828125,-0.4296875,0.10724999755620956,0.42528748512268066
1788107823159895000,7.57689501953125,-0.44068750739097595,0.2722499966621399,0.37894999980926514
1788107823169981700,7.586981689453125,-0.4076874852180481,0.31501248478889465,0.35942500829696655
1788107823180067000,7.597067138671875,-0.3636874854564667,0.2550624907016754,0.3251875042915344
1788107823190148000,7.607148193359375,-0.32711249589920044,0.18177500367164612,0.29218751192092896
1788107823200237800,7.61723779296875,-0.28792500495910645,0.12319999933242798,0.272662490606308
1788107823210332700,7.627332763671875,-0.2525874972343445,0.07796250283718109,0.2554749846458435
1788107823220429300,7.63742919921875,-0.19634999334812164,0.07177499681711197,0.24089999496936798
1788107823230523100,7.647523193359375,-0.15111249685287476,0.05967500060796738,0.2494249939918518
1788107823240617000,7.657616943359375,-0.12182500213384628,0.013199999928474426,0.2872374951839447
1788107823250703000,7.667703125,-0.07411249727010727,-0.08813749998807907,0.3190000057220459
1788107823260791800,7.677791748046875,-0.004537499975413084,-0.19689999520778656,0.3092375099658966
1788107823280973800,7.697973876953125,0.15056249499320984,-0.13461250066757202,0.1859000027179718
1788107823291058400,7.708058349609375,0.1615625023841858,0.0009624999947845936,0.16513749957084656
1788107823301140700,7.718140625,0.1297999918460846,0.14024999737739563,0.20061250030994415
1788107823311233500,7.728233642578125,0.07369999587535858,0.19030000269412994,0.27994999289512634
1788107823321329200,7.7383291015625,0.006462499964982271,0.15496249496936798,0.403425008058548
1788107823331417900,7.74841796875,-0.04853750020265579,0.07301250100135803,0.5120499730110168
1788107823341498600,7.75849853515625,-0.06806249916553497,-0.043037500232458115,0.5853375196456909
1788107823351590400,7.76859033203125,-0.05101250112056732,-0.1358499974012375,0.6122875213623047
1788107823361675500,7.778675537109375,-0.04001250118017197,-0.12856249511241913,0.619575023651123
1788107823371768800,7.788768798828125,-0.04729999974370003,-0.06737499684095383,0.637862503528595
1788107823381858800,7.79885888671875,-0.07177499681711197,-0.07603749632835388,0.6892874836921692
1788107823391946200,7.8089462890625,-0.08511249721050262,-0.1297999918460846,0.7038624882698059
1788107823402034400,7.819034423828125,-0.11082500219345093,-0.16266250610351562,0.6745749711990356
1788107823412127000,7.829126953125,-0.14135000109672546,-0.18108749389648438,0.6135249733924866
1788107823422214100,7.839214111328125,-0.1498750001192093,-0.18232500553131104,0.5218124985694885
1788107823432298800,7.849298828125,-0.16335000097751617,-0.14561249315738678,0.45223748683929443
1788107823442388200,7.85938818359375,-0.18411250412464142,-0.08208750188350677,0.45223748683929443
1788107823452474400,7.869474365234375,-0.20006249845027924,-0.045512501150369644,0.4950000047683716
1788107823462566700,7.879566650390625,-0.20006249845027924,-0.030799999833106995,0.5352874994277954
1788107823472659000,7.889658935546875,-0.19263750314712524,-0.047849997878074646,0.5597624778747559
1788107823482747600,7.89974755859375,-0.1816374957561493,-0.10408750176429749,0.5743374824523926
1788107823492839000,7.9098388671875,-0.15963749587535858,-0.1639000028371811,0.5414749979972839
1788107823502924800,7.9199248046875,-0.13653749227523804,-0.1956624984741211,0.4632374942302704
1788107823513011000,7.930010986328125,-0.11935000121593475,-0.18108749389648438,0.37400001287460327
1788107823523101200,7.94010107421875,-0.09611249715089798,-0.1321374922990799,0.30195000767707825
1788107823533193500,7.950193359375,-0.09377499669790268,-0.03932499885559082,0.2934249937534332
1788107823543274200,7.960274169921875,-0.12058749794960022,0.04124999791383743,0.3484250009059906
1788107823553361000,7.97036083984375,-0.15482500195503235,0.04619999974966049,0.41676250100135803
1788107823563442000,7.98044189453125,-0.16335000097751617,-0.03203750029206276,0.4399999976158142
1788107823573529900,7.99052978515625,-0.1498750001192093,-0.08813749998807907,0.408237487077713
1788107823583611000,8.00061083984375,-0.15482500195503235,-0.07108750194311142,0.39352500438690186
1788107823593695000,8.010695068359375,-0.17434999346733093,-0.045512501150369644,0.39118748903274536
1788107823603782100,8.0207822265625,-0.19511249661445618,-0.04427500069141388,0.3630000054836273
1788107823613867000,8.030866943359374,-0.18053749203681946,-0.06627500057220459,0.2872374951839447
1788107823623957000,8.04095703125,-0.15853749215602875,-0.0625625029206276,0.19085000455379486
1788107823634053600,8.0510537109375,-0.14135000109672546,-0.040562499314546585,0.09542500227689743
1788107823644150500,8.061150634765625,-0.13158750534057617,-0.033275000751018524,0.023375000804662704
1788107823654235400,8.0712353515625,-0.1303499937057495,-0.055275000631809235,-0.014437500387430191
1788107823664327700,8.08132763671875,-0.1377750039100647,-0.08703749626874924,-0.03396249935030937
1788107823674418200,8.091418212890625,-0.14135000109672546,-0.11137499660253525,-0.049912501126527786
1788107823684506400,8.10150634765625,-0.14258749783039093,-0.10161250084638596,-0.08167500048875809
1788107823694594800,8.1115947265625,-0.14630000293254852,-0.03932499885559082,-0.10848750174045563
1788107823704683300,8.121683349609375,-0.16830000281333923,0.008249999955296516,-0.10491249710321426
1788107823714774500,8.1317744140625,-0.19139999151229858,0.0009624999947845936,-0.08291249722242355
1788107823724867300,8.141867431640625,-0.20006249845027924,-0.045512501150369644,-0.05719999969005585
1788107823734954800,8.151954833984375,-0.19634999334812164,-0.07961250096559525,-0.06943749636411667
1788107823745040400,8.162040283203124,-0.19139999151229858,-0.0943249985575676,-0.09391249716281891
1788107823755131400,8.17213134765625,-0.179299995303154,-0.08208750188350677,-0.1097249984741211
1788107823765219300,8.18221923828125,-0.171875,-0.07479999959468842,-0.10119999945163727
1788107823775309000,8.19230908203125,-0.1938749998807907,-0.17861250042915344,0.07713750004768372
1788107823785407700,8.20240771484375,-0.16335000097751617,-0.34347498416900635,0.11384999752044678
1788107823795489000,8.212489013671876,-0.14506250619888306,-0.24584999680519104,0.060087498277425766
1788107823805572400,8.222572265625,-0.11811249703168869,-0.1676124930381775,0.007562499959021807
1788107823815668000,8.23266796875,-0.13653749227523804,0.027912499383091927,-0.06091250106692314
1788107823825759500,8.242759521484375,-0.15606249868869781,0.17448750138282776,-0.07672499865293503
1788107823835838700,8.252838623046875,-0.17806249856948853,0.1915374994277954,-0.0009624999947845936
1788107823845927400,8.262927490234375,-0.1938749998807907,0.15125000476837158,0.13708749413490295
1788107823856016100,8.27301611328125,-0.20982499420642853,0.05348749831318855,0.3007124960422516
1788107823866105000,8.28310498046875,-0.22439999878406525,-0.07108750194311142,0.4534749984741211
1788107823876187100,8.293187255859374,-0.219587504863739,-0.18837499618530273,0.5304750204086304
1788107823886278400,8.3032783203125,-0.2110625058412552,-0.3398999869823456,0.5365250110626221
1788107823896362000,8.313362060546876,-0.1755875051021576,-0.44866248965263367,0.4449499845504761
1788107823906459000,8.323458984375,-0.15358750522136688,-0.46076250076293945,0.2849000096321106
1788107823916541000,8.333541015625,-0.171875,-0.34113749861717224,0.15537500381469727
1788107823926635800,8.3436357421875,-0.22687499225139618,-0.20308749377727509,0.08689999580383301
1788107823936721700,8.3537216796875,-0.2708750069141388,-0.14932499825954437,0.055137500166893005
1788107823946809300,8.363809326171875,-0.2745875120162964,-0.19208750128746033,0.02461249940097332
1788107823956894000,8.37389404296875,-0.2391124963760376,-0.26042500138282776,-0.03272499889135361
1788107823966980600,8.383980712890626,-0.219587504863739,-0.2763749957084656,-0.10119999945163727
1788107823977069800,8.39406982421875,-0.22082500159740448,-0.2591874897480011,-0.13667500019073486
1788107823987165000,8.4041650390625,-0.20487499237060547,-0.1541374921798706,-0.14643749594688416
1788107823997255400,8.41425537109375,-0.19030000269412994,-0.03684999793767929,-0.11343749612569809
1788107824007346200,8.42434619140625,-0.1938749998807907,0.04124999791383743,-0.004674999974668026
1788107824017442800,8.43444287109375,-0.2012999951839447,0.027912499383091927,0.1480875015258789
1788107824027536100,8.4445361328125,-0.2171124964952469,-0.030799999833106995,0.2946625053882599
1788107824037621200,8.454621337890625,-0.1975875049829483,-0.11384999752044678,0.38142499327659607
1788107824047716400,8.46471630859375,-0.12787500023841858,-0.23485000431537628,0.35694998502731323
1788107824057806800,8.474806884765625,-0.05582499876618385,-0.30937498807907104,0.21271249651908875
1788107824067889700,8.4848896484375,-0.013062499463558197,-0.2714250087738037,0.01484999991953373
1788107824077977600,8.4949775390625,0.0002749999985098839,-0.13832500576972961,-0.1354375034570694
1788107824088062200,8.505062255859375,-0.03506249934434891,0.04496249929070473,-0.18672500550746918
1788107824098148400,8.5151484375,-0.08758749812841415,0.1634874939918518,-0.10724999755620956
1788107824108234000,8.52523388671875,-0.09982500225305557,0.13296249508857727,0.05156249925494194
1788107824118323000,8.535322998046874,-0.04001250118017197,0.01924999989569187,0.2494249939918518
1788107824128412400,8.545412353515625,-0.020487500354647636,-0.13708749413490295,0.4497624933719635
1788107824138492400,8.555492431640625,-0.022824998944997787,-0.24584999680519104,0.6245250105857849
1788107824148578600,8.56557861328125,-0.06324999779462814,-0.31790000200271606,0.7356249690055847
1788107824158669000,8.5756689453125,-0.1083500012755394,-0.35694998502731323,0.768625020980835
1788107824168760600,8.585760498046875,-0.13529999554157257,-0.41690000891685486,0.7050999999046326
1788107824178846700,8.5958466796875,-0.1120624989271164,-0.5059999823570251,0.5414749979972839
1788107824188934400,8.605934326171875,-0.04606249928474426,-0.5170000195503235,0.28613749146461487
1788107824199018200,8.616018310546876,0.011274999938905239,-0.37537500262260437,0.012374999932944775
1788107824209113600,8.626113525390625,0.01251249946653843,-0.13089999556541443,-0.19167499244213104
1788107824219196200,8.636196044921874,0.0002749999985098839,0.09624999761581421,-0.297962486743927
1788107824229291000,8.646291015625,0.006462499964982271,0.15125000476837158,-0.32725000381469727
1788107824239381800,8.6563818359375,0.030937500298023224,0.05101250112056732,-0.29301249980926514
1788107824249465600,8.666465576171875,0.043037500232458115,-0.0845625028014183,-0.22577500343322754
1788107824259552000,8.676552001953125,0.030937500298023224,-0.15661250054836273,-0.14767499268054962
1788107824269637400,8.686637451171874,0.0015124999918043613,-0.10656250268220901,-0.04262499883770943
1788107824279729000,8.69672900390625,-0.024062499403953552,-0.03684999793767929,0.09184999763965607
1788107824289824300,8.70682421875,-0.03382499888539314,-0.03684999793767929,0.22261250019073486
1788107824299915800,8.716915771484375,0.0002749999985098839,-0.18108749389648438,0.3166624903678894
1788107824309981700,8.726981689453124,0.06627500057220459,-0.3619000017642975,0.33371248841285706
1788107824320073500,8.737073486328125,0.11646249890327454,-0.48399999737739563,0.2531374990940094
1788107824330160400,8.747160400390625,0.13227500021457672,-0.455949991941452,0.12484999746084213
1788107824340249900,8.757249755859375,0.1274625062942505,-0.2690874934196472,0.00013749999925494194
1788107824350346800,8.7673466796875,0.12251249700784683,-0.0038499999791383743,-0.08043749630451202
1788107824360436700,8.777436767578125,0.13832500576972961,0.17201249301433563,-0.08648750185966492
1788107824370538000,8.7875380859375,0.1652749925851822,0.19772499799728394,-0.049912501126527786
1788107824380630300,8.79763037109375,0.19580000638961792,0.1097249984741211,0.005087499972432852
1788107824390719000,8.807718994140625,0.21656249463558197,-0.05637500062584877,0.07590000331401825
1788107824400806100,8.81780615234375,0.2227499932050705,-0.20432500541210175,0.10889999568462372
1788107824410899000,8.82789892578125,0.1933249980211258,-0.26785001158714294,0.10889999568462372
1788107824420986000,8.837986083984376,0.1652749925851822,-0.2971374988555908,0.11013749986886978
1788107824431083300,8.848083251953126,0.1518000066280365,-0.2666124999523163,0.10037499666213989
1788107824441156600,8.858156494140625,0.09803749620914459,-0.1578499972820282,0.0943249985575676
1788107824451253500,8.86825341796875,0.1297999918460846,-0.11756250262260437,0.035612501204013824
1788107824461340400,8.87834033203125,0.18603749573230743,-0.0882750004529953,-0.02667500078678131
1788107824471426300,8.88842626953125,0.23003749549388885,-0.07479999959468842,-0.08772499859333038
1788107824481513000,8.898512939453125,0.2947999835014343,-0.07603749632835388,-0.17201249301433563
1788107824491606500,8.9086064453125,0.3398999869823456,-0.07603749632835388,-0.258774995803833
1788107824501686500,8.9186865234375,0.3398999869823456,-0.04179999977350235,-0.30524998903274536
1788107824511778000,8.928778076171875,0.3180375099182129,0.027912499383091927,-0.2905375063419342
1788107824521863000,8.93886279296875,0.28132501244544983,0.05719999969005585,-0.21848750114440918
1788107824531954200,8.9489541015625,0.23127499222755432,0.04496249929070473,-0.0999625027179718
1788107824542044400,8.95904443359375,0.20184999704360962,-0.040562499314546585,0.02213750034570694
1788107824552132900,8.9691328125,0.1909874975681305,-0.1896124929189682,0.15537500381469727
1788107824562212900,8.979212890625,0.17874999344348907,-0.36313748359680176,0.233474999666214
1788107824572300800,8.98930078125,0.18232500553131104,-0.4889499843120575,0.22495000064373016
1788107824582385200,8.99938525390625,0.1933249980211258,-0.49623748660087585,0.18466250598430634
1788107824592486000,9.00948583984375,0.19951249659061432,-0.36918750405311584,0.17737500369548798
1788107824602565000,9.019565185546876,0.17874999344348907,-0.16637499630451202,0.24213749170303345
1788107824612663000,9.0296630859375,0.1615625023841858,-0.01484999991953373,0.3630000054836273
1788107824622751500,9.03975146484375,0.1652749925851822,-0.0015124999918043613,0.47795000672340393
1788107824632854800,9.049854736328125,0.1909874975681305,-0.09184999763965607,0.5597624778747559
1788107824642937000,9.05993701171875,0.19951249659061432,-0.2213750034570694,0.5915250182151794
1788107824653028900,9.07002880859375,0.17256249487400055,-0.31790000200271606,0.5609999895095825
1788107824663113200,9.08011328125,0.14327499270439148,-0.383899986743927,0.5059999823570251
1788107824673202000,9.090201904296874,0.11151249706745148,-0.392425000667572,0.4497624933719635
1788107824683296500,9.100296630859376,0.07851249724626541,-0.3801875114440918,0.40700000524520874
1788107824693393000,9.110392822265625,0.04675000160932541,-0.28613749146461487,0.3862375020980835
1788107824703474700,9.120474609375,-0.011824999935925007,-0.1480875015258789,0.3630000054836273
1788107824713568800,9.13056884765625,-0.0668250024318695,-0.05156249925494194,0.3361875116825104
1788107824723654700,9.140654541015625,-0.10958749800920486,-0.055275000631809235,0.30195000767707825
1788107824733752000,9.150751953125,-0.14630000293254852,-0.1443749964237213,0.24818749725818634
1788107824743835000,9.1608349609375,-0.16706250607967377,-0.24213749170303345,0.19442500174045563
1788107824753930000,9.170929931640625,-0.14877499639987946,-0.29961249232292175,0.14190000295639038
1788107824764016400,9.181016357421875,-0.09858749806880951,-0.30566251277923584,0.08937499672174454
1788107824774106600,9.191106689453125,-0.0448249988257885,-0.23718750476837158,0.023375000804662704
1788107824784188700,9.201188720703126,0.018699999898672104,-0.1163249984383583,-0.02914999984204769
1788107824794286600,9.21128662109375,0.052799999713897705,0.03891250118613243,-0.07919999957084656
1788107824804371700,9.221371826171875,0.06627500057220459,0.0999625027179718,-0.08648750185966492
1788107824814467800,9.2314677734375,0.10298749804496765,0.06324999779462814,-0.05719999969005585
1788107824824559400,9.241559326171876,0.142037495970726,-0.011274999938905239,-0.020624998956918716
1788107824834651400,9.2516513671875,0.1909874975681305,-0.07356250286102295,0.0038499999791383743
1788107824844738800,9.26173876953125,0.2287999987602234,-0.04427500069141388,0.03189999982714653
1788107824854836000,9.2718359375,0.23003749549388885,0.05224999785423279,0.10408750176429749
1788107824864922000,9.281922119140624,0.21656249463558197,0.10243749618530273,0.20666250586509705
1788107824875008000,9.292008056640626,0.21408750116825104,0.06324999779462814,0.2971374988555908
1788107824885095400,9.302095458984375,0.23485000431537628,-0.05403750017285347,0.34966251254081726
1788107824895185700,9.312185546875,0.24584999680519104,-0.19456249475479126,0.35694998502731323
1788107824905273000,9.322273193359376,0.2630375027656555,-0.3129499852657318,0.31418749690055847
1788107824915366700,9.33236669921875,0.27156248688697815,-0.35571250319480896,0.23718750476837158
1788107824925452300,9.342452392578124,0.2630375027656555,-0.3484250009059906,0.1578499972820282
1788107824935538000,9.352537841796876,0.20679999887943268,-0.32161250710487366,0.08442500233650208
1788107824945624300,9.362624267578125,0.15427500009536743,-0.26785001158714294,0.007562499959021807
1788107824955720400,9.372720458984375,0.09556250274181366,-0.22384999692440033,-0.06338749825954437
1788107824965805600,9.3828056640625,0.052799999713897705,-0.22013749182224274,-0.10724999755620956
1788107824975898600,9.392898681640625,0.06751249730587006,-0.2751374840736389,-0.1354375034570694
1788107824985987300,9.4029873046875,0.12127500027418137,-0.33137500286102295,-0.17448750138282776
1788107824996082400,9.41308251953125,0.1835625022649765,-0.3361875116825104,-0.22824999690055847
1788107825006172200,9.423172119140625,0.24227499961853027,-0.2934249937534332,-0.26124998927116394
1788107825016259300,9.43325927734375,0.27761250734329224,-0.2311374992132187,-0.258774995803833
1788107825026349300,9.443349365234376,0.30937498807907104,-0.22384999692440033,-0.2209624946117401
1788107825036445700,9.45344580078125,0.33880001306533813,-0.2849000096321106,-0.15248750150203705
1788107825046523400,9.4635234375,0.36684998869895935,-0.3716624975204468,-0.08291249722242355
1788107825056611000,9.473611083984375,0.3913249969482422,-0.4254249930381775,-0.0193875003606081
1788107825066694700,9.483694580078126,0.37908750772476196,-0.3679499924182892,0.04413750022649765
1788107825076787000,9.493786865234375,0.3020874857902527,-0.3679499924182892,0.1504250019788742
1788107825086873900,9.503873779296875,0.21779999136924744,-0.3326124846935272,0.22495000064373016
1788107825096963000,9.513963134765625,0.19580000638961792,-0.35942500829696655,0.23718750476837158
1788107825107048400,9.52404833984375,0.23608750104904175,-0.3984749913215637,0.17613749206066132
1788107825117136000,9.534135986328126,0.31308749318122864,-0.013749999925494194,-0.22453749179840088
1788107825127221500,9.544221435546875,0.296037495136261,0.2525874972343445,-0.5128750205039978
1788107825137316000,9.554316162109375,0.3008500039577484,0.5299249887466431,-0.45182499289512634
1788107825147395300,9.564395263671875,0.22384999692440033,0.5898749828338623,-0.23319999873638153
1788107825157483000,9.57448291015625,0.09446249902248383,0.4310624897480011,0.09308750182390213
1788107825167569200,9.584569091796874,-0.011824999935925007,0.2465374916791916,0.353237509727478
1788107825177661400,9.594661376953125,-0.05953750014305115,0.0742499977350235,0.3959999978542328
1788107825187748900,9.604748779296875,-0.05582499876618385,-0.05884999781847,0.27018749713897705
1788107825197837000,9.614837158203125,-0.021724998950958252,-0.07232499867677689,0.08208750188350677
1788107825207917300,9.624917236328125,-0.009487500414252281,0.09253749996423721,-0.10615000128746033
1788107825218007300,9.63500732421875,-0.010724999941885471,0.2770625054836273,-0.24901250004768372
1788107825228089000,9.645089111328126,-0.030249999836087227,0.47011250257492065,-0.34677499532699585
1788107825238191900,9.65519189453125,-0.04853750020265579,0.6484500169754028,-0.4175874888896942
1788107825248281000,9.665281005859375,-0.04977500066161156,0.7254499793052673,-0.4542999863624573
1788107825258370300,9.675370361328126,-0.03506249934434891,0.6777374744415283,-0.45553749799728394
1788107825268452400,9.685452392578124,-0.04606249928474426,0.6228749752044678,-0.45553749799728394
1788107825278542800,9.69554296875,-0.0448249988257885,0.5543999671936035,-0.41401249170303345
1788107825288624000,9.7056240234375,-0.07782500237226486,0.5128750205039978,-0.3394874930381775
1788107825298717700,9.7157177734375,-0.11577499657869339,0.5471125245094299,-0.25148749351501465
1788107825308800000,9.725800048828125,-0.17434999346733093,0.6166874766349792,-0.1634874939918518
1788107825318892500,9.735892578125,-0.2110625058412552,0.6509249806404114,-0.07067500054836273
1788107825328977200,9.74597705078125,-0.23430000245571136,0.608162522315979,0.02213750034570694
1788107825339070500,9.756070556640625,-0.21463750302791595,0.49939998984336853,0.08442500233650208
1788107825349143300,9.766143310546875,-0.18535000085830688,0.3675374984741211,0.08566249907016754
1788107825359230200,9.776230224609375,-0.14630000293254852,0.258774995803833,0.01732499897480011
1788107825369315800,9.78631591796875,-0.12677499651908875,0.20253749191761017,-0.08043749630451202
1788107825379403500,9.796403564453126,-0.10353749990463257,0.18424999713897705,-0.16843749582767487
1788107825389486000,9.806486083984375,-0.07548750191926956,0.23182499408721924,-0.2307250052690506
1788107825399574300,9.81657421875,-0.05224999785423279,0.29301249980926514,-0.24777500331401825
1788107825409659100,9.8266591796875,-0.05953750014305115,0.3381125032901764,-0.22343750298023224
1788107825419747000,9.8367470703125,-0.08030000329017639,0.3405874967575073,-0.17820000648498535
1788107825429832700,9.846832763671875,-0.07177499681711197,0.2722499966621399,-0.14643749594688416
1788107825439922400,9.85692236328125,-0.029012499377131462,0.22453749179840088,-0.1414874941110611
1788107825450012700,9.8670126953125,0.021037500351667404,0.20624999701976776,-0.14891250431537628
1788107825460098300,9.877098388671875,0.045512501150369644,0.21972499787807465,-0.1317249983549118
1788107825470189800,9.88718994140625,0.055275000631809235,0.21972499787807465,-0.08043749630451202
1788107825480283000,9.897282958984375,0.07246249914169312,0.19882500171661377,-0.020624998956918716
1788107825490374400,9.90737451171875,0.09322500228881836,0.18301250040531158,0.02213750034570694
1788107825500464600,9.917464599609374,0.09927500039339066,0.18672500550746918,0.04413750022649765
1788107825510551300,9.92755126953125,0.0919874981045723,0.19277499616146088,0.05389999970793724
1788107825520635100,9.93763525390625,0.09322500228881836,0.1915374994277954,0.06737499684095383
1788107825530728200,9.947728271484374,0.08951249718666077,0.18177500367164612,0.09542500227689743
1788107825540818400,9.957818359375,0.0919874981045723,0.15606249868869781,0.1504250019788742
1788107825550906400,9.96790625,0.08346249908208847,0.13653749227523804,0.20666250586509705
1788107825561001000,9.9780009765625,0.07603749632835388,0.12196250259876251,0.2494249939918518
1788107825571093800,9.98809375,0.06998749822378159,0.14396250247955322,0.28613749146461487
1788107825581182500,9.998182373046875,0.04427500069141388,0.19648750126361847,0.3068999946117401
1788107825591258400,10.00825830078125,0.038224998861551285,0.20982499420642853,0.29823750257492065
1788107825601349400,10.018349365234375,0.03203750029206276,0.18548749387264252,0.28366249799728394
1788107825611438000,10.02843798828125,0.03203750029206276,0.13529999554157257,0.23718750476837158
1788107825621539300,10.038539306640626,0.047987498342990875,0.09501250088214874,0.16266250610351562
1788107825631635000,10.048635009765626,0.057750001549720764,0.0681999996304512,0.0906125009059906
1788107825641726700,10.058726806640625,0.06379999965429306,0.09143749624490738,0.03189999982714653
1788107825651817200,10.068817138671875,0.05169999971985817,0.147537499666214,0.00013749999925494194
1788107825661896700,10.078896728515625,0.033275000751018524,0.1695374995470047,0.008799999952316284
1788107825671991300,10.0889912109375,0.018699999898672104,0.16101250052452087,0.038087498396635056
1788107825682075400,10.099075439453125,0.01251249946653843,0.1377750039100647,0.07108750194311142
1788107825692164400,10.109164306640626,0.006462499964982271,0.12677499651908875,0.08813749998807907
1788107825702250000,10.11925,-0.007012499962002039,0.1414874941110611,0.08937499672174454
1788107825712340500,10.129340576171876,-0.020487500354647636,0.15248750150203705,0.07961250096559525
1788107825722430200,10.13943017578125,-0.010724999941885471,0.11577499657869339,0.045375000685453415
1788107825732523800,10.149523681640625,0.02227500081062317,0.06201250106096268,-0.011962499469518661
1788107825742619400,10.159619384765625,0.04427500069141388,0.05224999785423279,-0.08538749814033508
1788107825752706000,10.1697060546875,0.05403750017285347,0.0999625027179718,-0.15619999170303345
1788107825762796800,10.179796875,0.047987498342990875,0.13653749227523804,-0.19043749570846558
1788107825772887000,10.189886962890625,0.04179999977350235,0.1317249983549118,-0.1989624947309494
1788107825782974200,10.19997412109375,0.038224998861551285,0.1097249984741211,-0.19648750126361847
1788107825793069300,10.2100693359375,0.056512501090765,0.06572499871253967,-0.21119999885559082
1788107825803154200,10.220154296875,0.06627500057220459,0.07067500054836273,-0.23319999873638153
1788107825813241900,10.230241943359376,0.06146249920129776,0.11219999939203262,-0.24777500331401825
1788107825823329500,10.24032958984375,0.052799999713897705,0.1377750039100647,-0.2367749959230423
1788107825833419300,10.250419189453124,0.055275000631809235,0.12430000305175781,-0.20624999701976776
1788107825843505400,10.26050537109375,0.05898749828338623,0.0999625027179718,-0.15991249680519104
1788107825853590000,10.270590087890625,0.04922499880194664,0.1097249984741211,-0.08538749814033508
1788107825863681300,10.280681396484376,0.03203750029206276,0.13653749227523804,-0.013199999928474426
1788107825873772300,10.290772216796874,0.018699999898672104,0.15248750150203705,0.04166249930858612
1788107825883863000,10.300863037109375,0.011274999938905239,0.1414874941110611,0.0906125009059906
1788107825893951500,10.310951416015625,-0.004537499975413084,0.13296249508857727,0.1358499974012375
1788107825904033500,10.321033447265625,-0.01677500084042549,0.11096250265836716,0.17861250042915344
1788107825914125000,10.331125,-0.022824998944997787,0.09253749996423721,0.21889999508857727
1788107825924217600,10.341217529296875,-0.022824998944997787,0.08401250094175339,0.2494249939918518
1788107825934315300,10.351315185546875,-0.025299999862909317,0.08772499859333038,0.2677125036716461
1788107825944409900,10.361409912109375,-0.03506249934434891,0.09624999761581421,0.27018749713897705
1788107825954502400,10.37150244140625,-0.04124999791383743,0.09624999761581421,0.2554749846458435
1788107825964591900,10.381591796875,-0.04606249928474426,0.07177499681711197,0.22495000064373016
1788107825974676000,10.391676025390625,-0.0424874983727932,0.04977500066161156,0.1993750035762787
1788107825984767000,10.40176708984375,-0.0387750007212162,0.04124999791383743,0.17118750512599945
1788107825994858200,10.411858154296874,-0.05224999785423279,0.05967500060796738,0.15661250054836273
1788107826004957200,10.421957275390625,-0.08030000329017639,0.08648750185966492,0.16637499630451202
1788107826015048400,10.43204833984375,-0.1023000031709671,0.08772499859333038,0.17613749206066132
1788107826025138000,10.442137939453126,-0.11329999566078186,0.0681999996304512,0.17861250042915344
1788107826035228400,10.452228515625,-0.11453749984502792,0.037675000727176666,0.16266250610351562
1788107826045316400,10.46231640625,-0.10477499663829803,0.0034374999813735485,0.11261250078678131
1788107826055406300,10.47240625,-0.0742499977350235,0.0009624999947845936,0.04166249930858612
1788107826065492000,10.482491943359374,-0.05101250112056732,0.04124999791383743,-0.03162499889731407
1788107826075581200,10.492581298828124,-0.05224999785423279,0.11343749612569809,-0.0719124972820282
1788107826085679400,10.502679443359375,-0.05953750014305115,0.15606249868869781,-0.05967500060796738
1788107826095766300,10.512766357421874,-0.0644875019788742,0.14877499639987946,-0.02186249941587448
1788107826105851600,10.5228515625,-0.06324999779462814,0.09377499669790268,0.00989999994635582
1788107826115937800,10.532937744140625,-0.04853750020265579,0.04743750020861626,0.02956249937415123
1788107826126030800,10.54303076171875,-0.025299999862909317,0.03148749843239784,0.01484999991953373
1788107826136123400,10.553123291015625,-0.0032999999821186066,0.0742499977350235,-0.02186249941587448
1788107826146222000,10.56322216796875,0.0015124999918043613,0.1451999992132187,-0.03162499889731407
1788107826156307500,10.573307373046875,-0.0057749999687075615,0.20006249845027924,-0.005912499967962503
1788107826166397400,10.5833974609375,-0.029012499377131462,0.21353749930858612,0.047849997878074646
1788107826176488200,10.59348828125,-0.05706249922513962,0.16830000281333923,0.10766249895095825
1788107826186579000,10.603578857421875,-0.07177499681711197,0.08043749630451202,0.13942499458789825
1788107826196673800,10.613673828125,-0.05953750014305115,-0.008799999952316284,0.10408750176429749
1788107826206767000,10.62376708984375,-0.026537500321865082,-0.10532499849796295,0.012374999932944775
1788107826216853500,10.633853515625,0.025987500324845314,-0.1518000066280365,-0.13667500019073486
1788107826226941000,10.64394091796875,0.07246249914169312,-0.09803749620914459,-0.2844874858856201
1788107826237021000,10.65402099609375,0.06998749822378159,0.021724998950958252,-0.3675374984741211
1788107826247111700,10.664111572265625,0.052799999713897705,0.09143749624490738,-0.36877501010894775
1788107826257199400,10.674199462890625,0.033275000751018524,0.08648750185966492,-0.31872498989105225
1788107826267289600,10.68428955078125,0.023512499406933784,0.005912499967962503,-0.24543750286102295
1788107826277368000,10.6943681640625,0.040699999779462814,-0.08332499861717224,-0.195250004529953
1788107826287466000,10.704466064453126,0.06146249920129776,-0.11137499660253525,-0.18067499995231628
1788107826297546500,10.71454638671875,0.082225002348423,-0.06627500057220459,-0.170912504196167
1788107826307636700,10.72463671875,0.10175000131130219,0.020487500354647636,-0.16472500562667847
1788107826317718800,10.73471875,0.09679999947547913,0.12072499841451645,-0.12815000116825104
1788107826327812400,10.744812255859374,0.07356250286102295,0.179299995303154,-0.05238749831914902
1788107826337898200,10.754898193359375,0.04179999977350235,0.17201249301433563,0.06737499684095383
1788107826347987000,10.764987060546876,0.013749999925494194,0.16706250607967377,0.201712504029274
1788107826358074600,10.77507470703125,-0.03148749843239784,0.1769624948501587,0.3386625051498413
1788107826368169700,10.785169677734375,-0.08401250094175339,0.1280124932527542,0.4595249891281128
1788107826378250500,10.79525048828125,-0.09624999761581421,0.010724999941885471,0.5182374715805054
1788107826388342500,10.805342529296874,-0.04606249928474426,-0.09913749992847443,0.4497624933719635
1788107826398424600,10.815424560546875,0.010037500411272049,-0.13708749413490295,0.27994999289512634
1788107826408518000,10.825517822265626,0.057750001549720764,-0.08937499672174454,0.08332499861717224
1788107826418596900,10.835596923828126,0.08579999953508377,0.0364375002682209,-0.05472499877214432
1788107826428692200,10.845692138671875,0.0845625028014183,0.1769624948501587,-0.10243749618530273
1788107826438768400,10.855768310546875,0.055275000631809235,0.2733500003814697,-0.05967500060796738
1788107826448857900,10.86585791015625,0.008937500417232513,0.2770625054836273,0.028324998915195465
1788107826458940700,10.875940673828126,-0.025299999862909317,0.16830000281333923,0.11990000307559967
1788107826469024800,10.886024658203125,-0.022824998944997787,-0.035612501204013824,0.13708749413490295
1788107826479103700,10.896103759765625,0.02722499892115593,-0.2176624983549118,0.03684999793767929
1788107826489211100,10.906211181640625,0.11756250262260437,-0.2616625130176544,-0.15496249496936798
1788107826499306200,10.91630615234375,0.16403749585151672,-0.0943249985575676,-0.3455374836921692
1788107826509405000,10.926405029296875,0.12622499465942383,0.20377500355243683,-0.43230000138282776
1788107826519481300,10.9364814453125,0.04427500069141388,0.45416250824928284,-0.35653749108314514
1788107826529568500,10.946568603515624,-0.030249999836087227,0.4969249963760376,-0.15867500007152557
1788107826539652600,10.956652587890625,-0.029012499377131462,0.29782500863075256,0.00989999994635582
1788107826549743000,10.9667431640625,0.038224998861551285,0.04124999791383743,0.08084999769926071
1788107826559825000,10.976824951171874,0.07851249724626541,-0.0943249985575676,0.07837499678134918
1788107826569921000,10.986921142578124,0.07122500240802765,-0.033275000751018524,0.052662499248981476
1788107826580006100,10.997006103515625,0.016224998980760574,0.12319999933242798,0.05389999970793724
1788107826590093800,11.00709375,-0.05706249922513962,0.26124998927116394,0.0943249985575676
1788107826600190700,11.017190673828125,-0.12677499651908875,0.2782999873161316,0.14561249315738678
1788107826610284300,11.0272841796875,-0.1695374995470047,0.2012999951839447,0.20061250030994415
1788107826620375800,11.037375732421875,-0.21463750302791595,0.08772499859333038,0.20061250030994415
1788107826630465000,11.047465087890625,-0.22206249833106995,-0.02227500081062317,0.10161250084638596
1788107826640558800,11.057558837890625,-0.1975875049829483,-0.07727500051259995,-0.0681999996304512
1788107826650648600,11.067648681640625,-0.14877499639987946,-0.09556250274181366,-0.24901250004768372
1788107826660741600,11.07774169921875,-0.1280124932527542,-0.025849999859929085,-0.38458749651908875
1788107826670833400,11.08783349609375,-0.15111249685287476,0.08043749630451202,-0.4152500033378601
1788107826680920300,11.09792041015625,-0.1658249944448471,0.09377499669790268,-0.3614875078201294
1788107826691040800,11.108040771484376,-0.13653749227523804,0.02419999986886978,-0.2782999873161316
1788107826701127200,11.118127197265625,-0.09982500225305557,-0.0002749999985098839,-0.20624999701976776
1788107826711223000,11.12822314453125,-0.10477499663829803,0.0364375002682209,-0.15496249496936798
1788107826721319700,11.138319580078125,-0.12182500213384628,0.05967500060796738,-0.10615000128746033
1788107826731405300,11.1484052734375,-0.11329999566078186,0.005912499967962503,-0.08043749630451202
1788107826741485300,11.1584853515625,-0.0644875019788742,-0.09308750182390213,-0.10119999945163727
1788107826751576600,11.16857666015625,0.005224999971687794,-0.13337500393390656,-0.15619999170303345
1788107826761670100,11.178670166015625,0.021037500351667404,-0.005087499972432852,-0.18177500367164612
1788107826771762400,11.188762451171876,-0.021724998950958252,0.17448750138282776,-0.12925000488758087
1788107826781851400,11.198851318359376,-0.04853750020265579,0.22824999690055847,-0.008387500420212746
1788107826791942400,11.2089423828125,-0.04977500066161156,0.13420000672340393,0.11618749797344208
1788107826802032400,11.219032470703125,-0.03148749843239784,-0.030799999833106995,0.16885000467300415
1788107826812124700,11.229124755859376,0.007699999958276749,-0.16032500565052032,0.11742500215768814
1788107826822218000,11.239218017578125,0.04427500069141388,-0.14561249315738678,0.00989999994635582
1788107826832310500,11.249310546875,0.060224998742341995,-0.0015124999918043613,-0.08772499859333038
1788107826842400800,11.25940087890625,0.035750001668930054,0.15248750150203705,-0.10119999945163727
1788107826852497000,11.269496826171874,0.013749999925494194,0.14396250247955322,-0.04867500066757202
1788107826862591200,11.27959130859375,0.011274999938905239,0.009487500414252281,0.011137500405311584
1788107826872696000,11.289696044921875,0.01746249943971634,-0.1260875016450882,0.006324999965727329
1788107826882777600,11.299777587890626,0.035750001668930054,-0.1541374921798706,-0.05719999969005585
1788107826892888300,11.309888427734375,0.045512501150369644,-0.10408750176429749,-0.14643749594688416
1788107826902985000,11.31998486328125,0.03946249932050705,-0.005087499972432852,-0.2050125002861023
1788107826913081000,11.3300810546875,0.01251249946653843,0.03891250118613243,-0.22220000624656677
1788107826923165200,11.340165283203126,0.007699999958276749,-0.011274999938905239,-0.2124374955892563
1788107826933264600,11.3502646484375,0.030937500298023224,-0.08332499861717224,-0.22824999690055847
1788107826943348700,11.3603486328125,0.056512501090765,-0.0882750004529953,-0.2759625017642975
1788107826953427500,11.370427490234375,0.057750001549720764,-0.002749999985098839,-0.32477501034736633
1788107826963509800,11.380509765625,0.033275000751018524,0.08896250277757645,-0.30153748393058777
1788107826973600300,11.390600341796874,0.002749999985098839,0.11824999749660492,-0.23319999873638153
1788107826983681000,11.400680908203125,0.0002749999985098839,0.07301250100135803,-0.1769624948501587
1788107826993767400,11.410767333984374,0.0002749999985098839,0.002199999988079071,-0.13791249692440033
1788107827003853000,11.42085302734375,0.003987499978393316,-0.047849997878074646,-0.11219999939203262
1788107827013947100,11.430947021484375,0.008937500417232513,-0.018562499433755875,-0.10848750174045563
1788107827024031000,11.441031005859376,-0.010724999941885471,0.07301250100135803,-0.08415000140666962
1788107827034123000,11.451123046875,-0.026537500321865082,0.10848750174045563,-0.0193875003606081
1788107827044212000,11.4612119140625,-0.04606249928474426,0.12072499841451645,0.060087498277425766
1788107827054304500,11.471304443359376,-0.08153750002384186,0.09748750180006027,0.14313749969005585
1788107827064386000,11.481385986328124,-0.09377499669790268,0.03519999980926514,0.16637499630451202
1788107827074476800,11.491476806640625,-0.06077500060200691,-0.030799999833106995,0.11137499660253525
1788107827084557800,11.501557861328125,0.007699999958276749,-0.04179999977350235,-0.008387500420212746
1788107827094651100,11.511651123046875,0.052799999713897705,0.04619999974966049,-0.10615000128746033
1788107827104743400,11.521743408203125,0.01993750035762787,0.21601249277591705,-0.10615000128746033
1788107827114828000,11.531828125,-0.0387750007212162,0.30758750438690186,-0.007149999961256981
1788107827124921900,11.541921875,-0.05953750014305115,0.2367749959230423,0.11261250078678131
1788107827135008500,11.552008544921875,-0.05101250112056732,0.12677499651908875,0.1859000027179718
1788107827145094700,11.5620947265625,-0.05101250112056732,0.05719999969005585,0.201712504029274
1788107827155173600,11.572173583984375,-0.08277499675750732,0.03396249935030937,0.1896124929189682
1788107827165266700,11.5822666015625,-0.12058749794960022,0.025437500327825546,0.14066250622272491
1788107827175359000,11.59235888671875,-0.12677499651908875,-0.035612501204013824,0.057612501084804535
1788107827185443000,11.602443115234376,-0.1083500012755394,-0.1615625023841858,-0.05967500060796738
1788107827195534800,11.612534912109375,-0.07177499681711197,-0.2751374840736389,-0.22824999690055847
1788107827205622500,11.62262255859375,0.002749999985098839,-0.3863750100135803,-0.43601250648498535
1788107827215713500,11.632713623046875,0.113987497985363,-0.3997125029563904,-0.6619250178337097
1788107827225845000,11.642844970703125,0.2250874936580658,-0.2433750033378601,-0.8427374958992004
1788107827235942100,11.652942138671875,0.2690874934196472,0.04372499883174896,-0.8586875200271606
1788107827246033400,11.663033447265626,0.23127499222755432,0.31130000948905945,-0.6693499684333801
1788107827256121000,11.67312109375,0.15056249499320984,0.38087499141693115,-0.3382500112056732
1788107827266212900,11.683212890625,0.09679999947547913,0.20624999701976776,0.006324999965727329
1788107827276299300,11.69329931640625,0.09803749620914459,-0.021037500351667404,0.2116124927997589
1788107827286392300,11.703392333984375,0.10779999941587448,-0.15289999544620514,0.2531374990940094
1788107827296490500,11.713490478515626,0.12251249700784683,-0.13708749413490295,0.16142499446868896
1788107827306587400,11.72358740234375,0.13956250250339508,-0.03932499885559082,0.02956249937415123
1788107827316676400,11.73367626953125,0.15427500009536743,0.10477499663829803,-0.06462500244379044
1788107827326759700,11.743759765625,0.12856249511241913,0.23925000429153442,-0.062150001525878906
1788107827336847000,11.75384716796875,0.047987498342990875,0.29906249046325684,0.047849997878074646
1788107827346926300,11.76392626953125,-0.07177499681711197,0.2648249864578247,0.18713749945163727
1788107827357012000,11.774011962890626,-0.17434999346733093,0.12925000488758087,0.27994999289512634
1788107827367126000,11.7841259765625,-0.19882500171661377,-0.09184999763965607,0.26413750648498535
1788107827377202200,11.7942021484375,-0.15729999542236328,-0.2788499891757965,0.1601874977350235
1788107827387293200,11.804293212890625,-0.08153750002384186,-0.33137500286102295,-0.02667500078678131
1788107827397384000,11.814384033203124,-0.05458749830722809,-0.3031874895095825,-0.23553749918937683
1788107827407468300,11.82446826171875,-0.09129999577999115,-0.1578499972820282,-0.3993000090122223
1788107827417558500,11.83455859375,-0.09129999577999115,-0.03451250120997429,-0.46406251192092896
1788107827427643600,11.8446435546875,-0.01677500084042549,-0.11013749986886978,-0.5190625190734863
1788107827437730600,11.85473046875,0.13474999368190765,-0.22866250574588776,-0.5861625075340271
1788107827447818200,11.864818359375,0.23608750104904175,-0.10532499849796295,-0.608162522315979
1788107827457898200,11.874898193359375,0.20803749561309814,0.2232999950647354,-0.45182499289512634
1788107827467983400,11.8849833984375,0.08579999953508377,0.47011250257492065,-0.09748750180006027
1788107827478075400,11.895075439453125,-0.010724999941885471,0.3638249933719635,0.31790000200271606
1788107827488155400,11.9051552734375,-0.014299999922513962,-0.005087499972432852,0.6183375120162964
1788107827498247700,11.91524755859375,-0.014299999922513962,-0.25808748602867126,0.7271000146865845
1788107827508336000,11.925336181640626,-0.04729999974370003,-0.2714250087738037,0.6623374819755554
1788107827518424000,11.935424072265626,-0.09377499669790268,-0.15289999544620514,0.46447500586509705
1788107827528512300,11.94551220703125,-0.09982500225305557,-0.028324998915195465,0.22990000247955322
1788107827538603000,11.95560302734375,-0.08277499675750732,0.05719999969005585,0.020899999886751175
1788107827548693000,11.96569287109375,-0.06806249916553497,0.06696250289678574,-0.14272500574588776
1788107827558776800,11.97577685546875,-0.04853750020265579,-0.0002749999985098839,-0.258774995803833
1788107827568869400,11.985869384765625,-0.026537500321865082,-0.02708750031888485,-0.34072500467300415
1788107827578959000,11.995958984375,-0.01677500084042549,0.02419999986886978,-0.37853750586509705
1788107827589047300,12.00604736328125,-0.01924999989569187,0.0742499977350235,-0.37248748540878296
1788107827599122200,12.0161220703125,0.013749999925494194,0.05101250112056732,-0.34072500467300415
1788107827609211000,12.0262109375,0.06146249920129776,0.020487500354647636,-0.2782999873161316
1788107827619295200,12.036295166015625,0.060224998742341995,0.04619999974966049,-0.17820000648498535
1788107827629396200,12.046396240234374,-0.009487500414252281,0.11343749612569809,-0.04867500066757202
1788107827639478800,12.056478759765625,-0.06806249916553497,0.05348749831318855,0.08442500233650208
1788107827649567700,12.066567626953125,-0.04001250118017197,-0.14685000479221344,0.13089999556541443
1788107827659654100,12.076654052734375,0.033275000751018524,-0.31542500853538513,0.06366249918937683
1788107827669741000,12.086740966796874,0.09803749620914459,-0.29218751192092896,-0.07067500054836273
1788107827679860200,12.096860107421875,0.10298749804496765,-0.05884999781847,-0.15496249496936798
1788107827689951700,12.10695166015625,0.05403750017285347,0.17806249856948853,-0.1354375034570694
1788107827700032300,12.1170322265625,0.006462499964982271,0.2012999951839447,-0.01691249944269657
1788107827710125300,12.127125244140625,0.01251249946653843,-0.002749999985098839,0.0906125009059906
1788107827720220000,12.137219970703125,0.08579999953508377,-0.22384999692440033,0.1284250020980835
1788107827730304800,12.1473046875,0.12498749792575836,-0.15661250054836273,0.11508750170469284
1788107827740396800,12.157396728515625,0.07851249724626541,0.12430000305175781,0.11990000307559967
1788107827750541300,12.167541259765626,-0.03272499889135361,0.3185875117778778,0.201712504029274
1788107827760631300,12.17763134765625,-0.1438249945640564,0.21848750114440918,0.32999998331069946
1788107827770723300,12.187723388671875,-0.15111249685287476,-0.19689999520778656,0.3544749915599823
1788107827780816400,12.19781640625,-0.07906249910593033,-0.6294749975204468,0.2116124927997589
1788107827790900500,12.207900390625,0.035750001668930054,-0.8102874755859375,-0.11343749612569809
1788107827800990200,12.217990234375,0.15056249499320984,-0.6525750160217285,-0.5190625190734863
1788107827811076400,12.228076416015625,0.24832500517368317,-0.2946625053882599,-0.8294000029563904
1788107827821163800,12.238163818359375,0.3338499963283539,0.04124999791383743,-0.9417374730110168
1788107827831243500,12.248243408203125,0.3485625088214874,0.2648249864578247,-0.809737503528595
1788107827841335000,12.2583349609375,0.28503748774528503,0.3381125032901764,-0.48977500200271606
1788107827851422200,12.268422119140626,0.17627499997615814,0.22453749179840088,-0.08896250277757645
1788107827861522200,12.278522216796874,0.10779999941587448,-0.05884999781847,0.233474999666214
1788107827871606300,12.288606201171875,0.12622499465942383,-0.34113749861717224,0.37523749470710754
1788107827881697000,12.298697021484376,0.16898749768733978,-0.44618749618530273,0.3227125108242035
1788107827891781400,12.308781494140625,0.21285000443458557,-0.34718748927116394,0.14918750524520874
1788107827901871000,12.31887109375,0.24227499961853027,-0.1358499974012375,-0.022962499409914017
1788107827911960000,12.3289599609375,0.25437501072883606,0.09143749624490738,-0.09638749808073044
1788107827922053400,12.339053466796875,0.23003749549388885,0.2465374916791916,-0.040150001645088196
1788107827932134100,12.349134033203125,0.1615625023841858,0.2965874969959259,0.10161250084638596
1788107827942228500,12.359228515625,0.0882750004529953,0.19648750126361847,0.23842500150203705
1788107827952318200,12.369318115234375,0.0882750004529953,-0.01251249946653843,0.2714250087738037
1788107827962416400,12.37941650390625,0.113987497985363,-0.17008750140666962,0.19689999520778656
1788107827972497200,12.3894970703125,0.13832500576972961,-0.20666250586509705,0.05884999781847
1788107827982584000,12.399583984375,0.1335124969482422,-0.0943249985575676,-0.07315000146627426
1788107827992665300,12.409665283203125,0.09322500228881836,0.0424874983727932,-0.12443749606609344
1788107828002758400,12.41975830078125,0.07851249724626541,0.10119999945163727,-0.1317249983549118
1788107828012849200,12.42984912109375,0.08098749816417694,0.14396250247955322,-0.11219999939203262
1788107828022944800,12.43994482421875,0.0002749999985098839,0.22206249833106995,-0.0364375002682209
1788107828033028000,12.450028076171876,-0.09253749996423721,0.20253749191761017,0.047849997878074646
1788107828043125800,12.460125732421876,-0.11577499657869339,0.08896250277757645,0.09913749992847443
1788107828053218800,12.47021875,-0.10106249898672104,0.004674999974668026,0.1284250020980835
1788107828063312600,12.480312744140624,-0.1120624989271164,-0.006324999965727329,0.16513749957084656
1788107828073393400,12.490393310546875,-0.15606249868869781,0.05224999785423279,0.22866250574588776
1788107828083485200,12.500485107421875,-0.1915374994277954,0.06943749636411667,0.3068999946117401
1788107828093570600,12.510570556640625,-0.19263750314712524,0.03272499889135361,0.34347498416900635
1788107828103667200,12.520667236328125,-0.16335000097751617,-0.04908749833703041,0.3312374949455261
1788107828113751800,12.530751708984376,-0.11082500219345093,-0.1321374922990799,0.28971248865127563
1788107828123844900,12.540844970703125,-0.03382499888539314,-0.15056249499320984,0.2176624983549118
