time,seconds_elapsed,z,y,x
1788107644155781600,0.11178173828125,-0.7980089783668518,0.9035959839820862,0.4518119990825653
1788107644165878500,0.12187841796875,-0.7640770077705383,1.0327810049057007,0.3227660059928894
1788107644175963100,0.131963134765625,-0.727217972278595,1.0787090063095093,0.1560100018978119
1788107644186043000,0.14204296875,-0.5428169965744019,0.9841319918632507,0.2849059998989105
1788107644236535000,0.19253515625,-1.0444799661636353,0.9193599820137024,0.36434999108314514
1788107644266794800,0.222794677734375,-1.2060370445251465,0.7747570276260376,0.5459780097007751
1788107644297033500,0.253033447265625,-1.6484769582748413,0.625074028968811,0.5700399875640869
1788107644307129600,0.263129638671875,-1.4785809516906738,0.6264830231666565,0.5348910093307495
1788107644317220600,0.273220703125,-1.1978869438171387,0.7323610186576843,0.36436501145362854
1788107644327313400,0.2833134765625,-1.0290759801864624,0.6377580165863037,0.554190993309021
1788107644337397800,0.293397705078125,-0.7195169925689697,0.48755601048469543,0.7556250095367432
1788107644347493000,0.3034931640625,-0.42790600657463074,0.07168799638748169,1.5901999473571777
1788107644357578200,0.313578125,-0.0841670036315918,0.1971839964389801,1.0419399738311768
1788107644367665000,0.323664794921875,-0.4868040084838867,0.37572601437568665,0.6730980277061462
1788107644377747200,0.333747314453125,-0.5688289999961853,0.48045799136161804,-0.08998099714517593
1788107644387840800,0.3438408203125,-0.817596971988678,0.7570819854736328,-0.6916210055351257
1788107644397920000,0.353919921875,-0.7054049968719482,0.5475890040397644,-0.5048279762268066
1788107644408010800,0.3640107421875,-1.2505710124969482,0.5262410044670105,-0.5099440217018127
1788107644418097000,0.374096923828125,-1.6247650384902954,0.6131749749183655,-0.3131439983844757
1788107644428178000,0.384177978515625,-1.5502150058746338,0.6523630023002625,-0.18137100338935852
1788107644438260700,0.3942607421875,-1.300333023071289,0.4148539900779724,0.00046400001156143844
1788107644448344600,0.404344482421875,-0.5241929888725281,0.49939200282096863,0.25714200735092163
1788107644458431500,0.414431396484375,-0.011699999682605267,0.6221320033073425,0.49920499324798584
1788107644468522200,0.424522216796875,0.20892900228500366,0.46434199810028076,0.3913869857788086
1788107644478603000,0.43460302734375,0.3545190095901489,0.011235999874770641,0.2989729940891266
1788107644488687900,0.44468798828125,0.7075650095939636,-0.354310005903244,1.3726229667663574
1788107644498772000,0.45477197265625,-0.29403799772262573,-0.7524840235710144,1.294052004814148
1788107644508860400,0.4648603515625,-1.402649998664856,-0.48845499753952026,1.648010015487671
1788107644518942200,0.474942138671875,-1.7885349988937378,-0.1546420007944107,2.0278050899505615
1788107644529030000,0.48502978515625,-1.7163519859313965,0.05976099893450737,2.127531051635742
1788107644539117600,0.49511767578125,-1.1867870092391968,0.13054999709129333,1.815405011177063
1788107644549202200,0.5052021484375,-0.759257972240448,0.05574199929833412,1.4049819707870483
1788107644559287800,0.515287841796875,-0.8050230145454407,0.1464499980211258,1.1389260292053223
1788107644569374500,0.52537451171875,-2.5149660110473633,2.275831937789917,-2.53193998336792
1788107644579454500,0.535454345703125,-2.0443320274353027,9.860950469970703,-14.75048828125
1788107644589539300,0.545539306640625,1.0655289888381958,2.2135870456695557,-4.869388103485107
1788107644599616800,0.55561669921875,-0.7433419823646545,-1.2413439750671387,0.5168390274047852
1788107644609706200,0.565706298828125,-1.6060659885406494,1.1352850198745728,0.22202299535274506
1788107644619790600,0.57579052734375,-1.0138829946517944,2.2509799003601074,0.5678550004959106
1788107644629875000,0.585875,-0.7895150184631348,1.5961849689483643,1.4474170207977295
1788107644639963400,0.59596337890625,-0.7484139800071716,1.5497649908065796,1.0414069890975952
1788107644650054400,0.606054443359375,-0.1710589975118637,1.750488042831421,0.2667909860610962
1788107644660137700,0.6161376953125,0.2171339988708496,1.951051950454712,-0.1496729999780655
1788107644670225700,0.6262255859375,0.48689401149749756,1.7896130084991455,-0.07793399691581726
1788107644690394000,0.64639404296875,0.6952409744262695,2.0527350902557373,0.05548600107431412
1788107644700472800,0.656472900390625,0.45246198773384094,2.015989065170288,0.021824000403285027
1788107644710562000,0.66656201171875,0.33902400732040405,1.955122947692871,-0.0317160002887249
1788107644720647700,0.676647705078125,0.3584670126438141,1.985787034034729,-0.1241229996085167
1788107644730731500,0.6867314453125,0.17550699412822723,2.0699949264526367,-0.2340639978647232
1788107644740816400,0.69681640625,-0.062247999012470245,2.066951036453247,-0.13689599931240082
1788107644750900000,0.70689990234375,-0.53267502784729,2.1354129314422607,-0.16266000270843506
1788107644760988700,0.71698876953125,-0.8645899891853333,2.2272191047668457,-0.32880398631095886
1788107644771076000,0.727076171875,-0.9042040109634399,2.142509937286377,-0.1543170064687729
1788107644781162200,0.737162353515625,-0.8035910129547119,2.043764114379883,0.21595899760723114
1788107644791240000,0.747239990234375,-0.4883129894733429,2.0490479469299316,0.3398190140724182
1788107644801334000,0.757333984375,-0.16514000296592712,1.9313809871673584,0.32864800095558167
1788107644811416000,0.767416015625,-0.124160997569561,1.7824870347976685,0.22307300567626953
1788107644821501700,0.777501708984375,-0.18709799647331238,1.7332550287246704,-0.057771001011133194
1788107644831582500,0.78758251953125,-0.32389700412750244,1.5662519931793213,0.01054999977350235
1788107644841677600,0.797677490234375,-0.5418310165405273,1.780627965927124,-0.1202860027551651
1788107644851761000,0.807760986328125,-0.7408689856529236,1.4557770490646362,0.12273000180721283
1788107644861853200,0.817853271484375,-0.9596109986305237,1.2731109857559204,0.28035199642181396
1788107644871939800,0.82793994140625,-1.0744609832763672,1.2278339862823486,0.06950099766254425
1788107644882020400,0.838020263671875,-1.073138952255249,1.3566950559616089,-0.3119490146636963
1788107644892114400,0.848114501953125,-1.1526819467544556,1.2430590391159058,-0.32456400990486145
1788107644902205000,0.858204833984375,-1.2939419746398926,1.2185800075531006,-0.2486020028591156
1788107644912288000,0.8682880859375,-1.369184970855713,1.2191619873046875,-0.49442800879478455
1788107644922379300,0.878379150390625,-1.3313930034637451,0.8254820108413696,-0.1305910050868988
1788107644932467000,0.888467041015625,-1.24201500415802,0.9906439781188965,-0.41431498527526855
1788107644942552600,0.898552490234375,-0.9423710107803345,1.0618950128555298,-0.14346200227737427
1788107644952636700,0.90863671875,-0.7221540212631226,1.0617649555206299,-0.09580899775028229
1788107644962726100,0.91872607421875,-0.4838249981403351,1.1687170267105103,-0.21442000567913055
1788107644972810800,0.928810791015625,-0.24955500662326813,0.9297580122947693,-0.0963670015335083
1788107644982900700,0.938900634765625,-0.2986389994621277,0.9509649872779846,-0.26304900646209717
1788107644993002000,0.949001953125,-0.19042399525642395,1.0506969690322876,-0.2415899932384491
1788107645003095000,0.959094970703125,-0.18542900681495667,1.0698720216751099,-0.07108999788761139
1788107645013185000,0.96918505859375,-0.10863199830055237,1.2527960538864136,-0.05996499955654144
1788107645023272400,0.9792724609375,-0.13638900220394135,1.183743953704834,0.0773560032248497
1788107645033354800,0.989354736328125,-0.28707799315452576,1.3959829807281494,-0.18023400008678436
1788107645043447600,0.999447509765625,-0.5491719841957092,1.5903890132904053,-0.5206159949302673
1788107645053533200,1.009533203125,-0.5142130255699158,1.4982270002365112,-0.26531699299812317
1788107645063623000,1.019622802734375,-0.8503869771957397,1.536120057106018,-0.16243399679660797
1788107645073709300,1.029709228515625,-0.9508399963378906,1.6198209524154663,0.03789699822664261
1788107645083799600,1.039799560546875,-1.0903090238571167,1.669268012046814,0.09720899909734726
1788107645093895400,1.0498955078125,-1.1981979608535767,1.844480037689209,-0.1473419964313507
1788107645103985400,1.0599853515625,-1.2220180034637451,1.5733489990234375,0.011713000014424324
1788107645114077000,1.070076904296875,-1.3103209733963013,1.6317830085754395,-0.021750999614596367
1788107645124165600,1.08016552734375,-1.151239037513733,1.7791600227355957,-0.1764329969882965
1788107645134259700,1.090259765625,-1.075186014175415,1.8100639581680298,-0.281466007232666
1788107645144347100,1.10034716796875,-0.6873760223388672,1.6876599788665771,0.008194000460207462
1788107645154430700,1.1104306640625,-0.8232430219650269,1.7092070579528809,-0.43298599123954773
1788107645164540200,1.1205400390625,-0.6270580291748047,1.3199269771575928,-0.2062070071697235
1788107645174625300,1.130625244140625,-0.9590160250663757,1.2633090019226074,-0.3740220069885254
1788107645184706800,1.140706787109375,-1.0486030578613281,1.4085769653320312,-0.66764897108078
1788107645194791700,1.150791748046875,-1.2489910125732422,1.147251009941101,-0.42346900701522827
1788107645204875500,1.16087548828125,-1.076051950454712,1.1605019569396973,-0.3099069893360138
1788107645214957300,1.170957275390625,-0.906745970249176,1.181702971458435,-0.5775259733200073
1788107645225042200,1.181042236328125,-0.7192209959030151,1.1717029809951782,-0.6827849745750427
1788107645235128300,1.19112841796875,-0.6787819862365723,1.1948820352554321,-0.7728059887886047
1788107645245219000,1.201218994140625,-0.8317790031433105,1.3222270011901855,-0.7794849872589111
1788107645255302000,1.211302001953125,-0.7013729810714722,1.3831830024719238,-0.5623239874839783
1788107645265383200,1.221383056640625,-0.5165330171585083,1.3796859979629517,-0.33234700560569763
1788107645275468000,1.231468017578125,-0.36837899684906006,1.3665330410003662,-0.31695398688316345
1788107645285548300,1.24154833984375,-0.1315779983997345,1.261633038520813,-0.12949800491333008
1788107645295634700,1.251634765625,0.10760100185871124,1.2776089906692505,0.024244999513030052
1788107645305721600,1.2617216796875,0.28060999512672424,1.310399055480957,0.10129900276660919
1788107645315804200,1.27180419921875,0.23930999636650085,1.2683720588684082,0.22893700003623962
1788107645325891800,1.281891845703125,-0.14490899443626404,1.323580026626587,0.12432199716567993
1788107645335971000,1.29197119140625,-0.15943199396133423,1.0460330247879028,0.3502019941806793
1788107645346053000,1.30205322265625,-0.44320300221443176,1.0847790241241455,0.07022099941968918
1788107645356140800,1.312140869140625,-0.4588879942893982,0.8949829936027527,0.2523230016231537
1788107645366229200,1.322229248046875,-0.49949198961257935,0.8824660181999207,0.22932499647140503
1788107645376308500,1.33230859375,-0.32366299629211426,0.8244109749794006,0.19549299776554108
1788107645386400500,1.342400390625,-0.19502200186252594,0.7095040082931519,0.03153200075030327
1788107645396478200,1.352478271484375,-0.0782030001282692,0.6693540215492249,-0.3155510127544403
1788107645406562800,1.362562744140625,0.12223099917173386,0.06855800002813339,0.016547000035643578
1788107645426742500,1.382742431640625,0.232791006565094,0.2015639990568161,-0.07965400069952011
1788107645436825300,1.392825439453125,0.07282699644565582,0.21616099774837494,-0.2817949950695038
1788107645446913800,1.402913818359375,-0.0749180018901825,0.2250799983739853,-0.38937801122665405
1788107645457001500,1.41300146484375,-0.3254069983959198,0.18462499976158142,-0.35119399428367615
1788107645467084300,1.423084228515625,-0.5000920295715332,0.2814379930496216,-0.3027850091457367
1788107645477177000,1.433177001953125,-0.5651519894599915,0.2797110080718994,-0.12369100004434586
1788107645487272000,1.44327197265625,-0.4154900014400482,0.3194440007209778,0.07899200171232224
1788107645497357600,1.453357666015625,-0.17779099941253662,0.2434079945087433,0.18979200720787048
1788107645507434200,1.463434326171875,0.10088399797677994,0.16469599306583405,0.16487300395965576
1788107645517514200,1.47351416015625,0.4528239965438843,0.11073099821805954,0.06689900159835815
1788107645527604700,1.483604736328125,0.4789069890975952,0.004337000194936991,0.00989499967545271
1788107645537683500,1.493683349609375,-0.024806000292301178,-0.20700299739837646,-0.0047530001029372215
1788107645547773200,1.503773193359375,-0.26203399896621704,-0.09663400053977966,-0.16397100687026978
1788107645557855700,1.513855712890625,-0.6653439998626709,-0.015924999490380287,-0.41845300793647766
1788107645567939300,1.523939208984375,-0.9301649928092957,-0.04280500113964081,-0.4148530066013336
1788107645578024400,1.5340244140625,-1.1993989944458008,0.03112100064754486,-0.3488920032978058
1788107645588106500,1.5441064453125,-1.403056025505066,0.09179499745368958,-0.21176199615001678
1788107645598189000,1.55418896484375,-1.6285979747772217,0.18682199716567993,-0.21023599803447723
1788107645608275000,1.56427490234375,-1.7901560068130493,0.22257199883460999,-0.22287200391292572
1788107645628449500,1.584449462890625,-1.669975996017456,0.1869809925556183,-0.0250410009175539
1788107645638526700,1.594526611328125,-1.4711229801177979,0.13352499902248383,0.09434100240468979
1788107645648619300,1.604619384765625,-1.099092960357666,0.4736489951610565,-0.16387799382209778
1788107645658705200,1.614705078125,-1.0688769817352295,-0.0792360007762909,0.13586099445819855
1788107645668798700,1.624798828125,-1.1318010091781616,0.05403900146484375,-0.12777799367904663
1788107645678894800,1.634894775390625,-1.1536799669265747,0.12483199685811996,-0.28727400302886963
1788107645688976100,1.64497607421875,-1.4325380325317383,-0.20099599659442902,-0.09636200219392776
1788107645699061200,1.655061279296875,-1.8437700271606445,-0.19791899621486664,-0.4299739897251129
1788107645709151200,1.665151123046875,-2.034214973449707,-0.2600350081920624,-0.5094199776649475
1788107645719248100,1.675248046875,-2.007667064666748,-0.2466370016336441,-0.6928629875183105
1788107645729338600,1.685338623046875,-1.8598589897155762,-0.20850799977779388,-0.8700010180473328
1788107645739416300,1.695416259765625,-1.6304149627685547,-0.4285829961299896,-0.7681549787521362
1788107645749492700,1.70549267578125,-1.1718109846115112,-0.38741499185562134,-0.5729650259017944
1788107645759578000,1.715578125,-0.950609028339386,-0.21152199804782867,-0.5695559978485107
1788107645769660400,1.725660400390625,-0.7533919811248779,-0.24139299988746643,-0.192562997341156
1788107645779747800,1.735747802734375,-0.6356949806213379,-0.31126001477241516,0.07668700069189072
1788107645789834800,1.745834716796875,-0.4310609996318817,-0.0470770001411438,-0.13417400419712067
1788107645799918800,1.7559189453125,-0.6700159907341003,-0.09274999797344208,-0.37695199251174927
1788107645810006800,1.7660068359375,-0.4832339882850647,-0.4424329996109009,-0.06932400166988373
1788107645820081200,1.7760810546875,-0.396789014339447,0.08127699792385101,-0.6345250010490417
1788107645830168600,1.78616845703125,-0.3004859983921051,-0.06518799811601639,-0.2399040013551712
1788107645840252700,1.796252685546875,-0.3031409978866577,-0.0668720006942749,-0.04506399855017662
1788107645850324500,1.806324462890625,0.0856039971113205,0.06173500046133995,0.14869700372219086
1788107645860405000,1.816405029296875,0.25064098834991455,0.19398799538612366,0.03353499993681908
1788107645870496000,1.82649609375,0.4558219909667969,0.2047709971666336,0.1634030044078827
1788107645880579000,1.8365791015625,0.6115570068359375,0.19328300654888153,0.10757999867200851
1788107645890660000,1.84666015625,0.8730350136756897,0.15743200480937958,0.11660700291395187
1788107645900741600,1.85674169921875,0.9474760293960571,0.13141199946403503,0.08738800138235092
1788107645910831600,1.86683154296875,0.8679580092430115,0.08698800206184387,0.1302880048751831
1788107645920911400,1.876911376953125,1.0848720073699951,0.7223950028419495,-0.16232499480247498
1788107645930995000,1.886994873046875,0.2820810079574585,-0.417589008808136,0.23127900063991547
1788107645941077500,1.897077392578125,0.25279200077056885,0.15984199941158295,-0.1345590054988861
1788107645961250800,1.917250732421875,-0.47591400146484375,-0.005696999840438366,-0.1693899929523468
1788107645971338800,1.9273388671875,-0.486845999956131,0.44131898880004883,-0.639240026473999
1788107645981423900,1.937423828125,-1.0062769651412964,-0.7297490239143372,-0.5023159980773926
1788107645991503000,1.947503173828125,-0.9154390096664429,-0.5776730179786682,-0.7597609758377075
1788107646001597200,1.95759716796875,-0.5857700109481812,-0.16144800186157227,-1.1780799627304077
1788107646011680800,1.9676806640625,-0.7276129722595215,-0.31474700570106506,-1.0472700595855713
1788107646021778400,1.9777783203125,-0.6588979959487915,0.05866000056266785,-1.1564379930496216
1788107646031866600,1.98786669921875,-1.0169219970703125,0.32012200355529785,-1.2086379528045654
1788107646041959200,1.997959228515625,-1.1163870096206665,0.039184000343084335,-0.8446540236473083
1788107646052051500,2.008051513671875,-1.169661045074463,0.3031519949436188,-0.43223801255226135
1788107646062147800,2.01814794921875,-0.9894449710845947,0.7849349975585938,-0.28574201464653015
1788107646072239000,2.028239013671875,-0.8039109706878662,0.781013011932373,0.20590999722480774
1788107646082329000,2.0383291015625,-0.307015985250473,0.9599609971046448,0.38756799697875977
1788107646092416300,2.048416259765625,0.15240399539470673,0.9638140201568604,0.6568610072135925
1788107646102510000,2.058510009765625,0.7394459843635559,0.9098939895629883,0.963808000087738
1788107646112592000,2.068591796875,1.0826460123062134,0.9605690240859985,0.99760502576828
1788107646122684400,2.078684326171875,1.5079660415649414,1.0841000080108643,0.9649789929389954
1788107646132767200,2.088767333984375,1.651847004890442,1.0041569471359253,1.0665279626846313
1788107646142861300,2.098861328125,1.4406299591064453,1.03131902217865,0.7668060064315796
1788107646152950500,2.108950439453125,1.3853440284729004,1.1884870529174805,0.5594279766082764
1788107646163037400,2.119037353515625,1.1690000295639038,1.3247809410095215,0.6354209780693054
1788107646173121300,2.129121337890625,0.37710899114608765,0.6076200008392334,0.9419170022010803
1788107646183211300,2.139211181640625,0.27387601137161255,0.6269879937171936,1.1095869541168213
1788107646193294800,2.149294921875,0.2590999901294708,0.8347480297088623,0.8618980050086975
1788107646203392000,2.15939208984375,0.06058799847960472,0.560886025428772,0.980908989906311
1788107646213479000,2.16947900390625,-0.06798200309276581,0.5059149861335754,0.7858719825744629
1788107646223564300,2.179564208984375,-0.2560110092163086,0.41230499744415283,0.5638070106506348
1788107646233648400,2.1896484375,-0.4517500102519989,0.11789000034332275,0.23882600665092468
1788107646243738600,2.199738525390625,-0.4568850100040436,-0.06992799788713455,0.1423880010843277
1788107646253817000,2.209817138671875,-0.4811750054359436,-0.07383900135755539,-0.058077000081539154
1788107646263907600,2.219907470703125,-0.3811050057411194,0.062056999653577805,-0.6585429906845093
1788107646273991400,2.229991455078125,-0.7714390158653259,-1.0376900434494019,-0.3274869918823242
1788107646284087000,2.240087158203125,-0.721526026725769,-0.47192901372909546,-0.9379969835281372
1788107646294177800,2.250177734375,-0.9001219868659973,-0.5673090219497681,-1.0031280517578125
1788107646304279000,2.260279052734375,-0.9427390098571777,-0.6084409952163696,-0.5788300037384033
1788107646314385700,2.2703857421875,-0.7223470211029053,-0.47667500376701355,-0.36234599351882935
1788107646324468200,2.28046826171875,-0.6919990181922913,-0.7041550278663635,-0.19374099373817444
1788107646334556200,2.29055615234375,-0.3244450092315674,-0.6031050086021423,-0.18563400208950043
1788107646344643300,2.300643310546875,0.1068980023264885,-0.711525022983551,-0.05117399990558624
1788107646354732000,2.31073193359375,0.36963799595832825,-0.5221660137176514,-0.015860000625252724
1788107646364814000,2.32081396484375,0.4733099937438965,-0.6698169708251953,0.3595240116119385
1788107646374897700,2.330897705078125,0.28255099058151245,-0.5927889943122864,0.3998120129108429
1788107646384980700,2.340980712890625,0.19274300336837769,-0.6127060055732727,0.6536039710044861
1788107646395073300,2.3510732421875,-0.07479099929332733,-0.6514580249786377,0.5078229904174805
1788107646405159200,2.3611591796875,-0.12016700208187103,-0.6042600274085999,0.4666939973831177
1788107646415250000,2.37125,-0.34655600786209106,-0.5154650211334229,0.34981000423431396
1788107646425332500,2.38133251953125,-0.713362991809845,-0.5017330050468445,0.2512330114841461
1788107646435410200,2.39141015625,-0.9337660074234009,-0.3979969918727875,0.19482800364494324
1788107646445497900,2.401497802734375,-0.967943012714386,0.09453900158405304,-0.2013940066099167
1788107646455583700,2.411583740234375,-1.4142370223999023,-0.6420419812202454,-0.09495899826288223
1788107646465674500,2.421674560546875,-1.5331089496612549,-0.9062970280647278,0.13577499985694885
1788107646475757800,2.4317578125,-1.3549330234527588,-0.6660929918289185,-0.23378700017929077
1788107646485843500,2.441843505859375,-1.2775050401687622,-0.5297729969024658,-0.4831790030002594
1788107646495933000,2.451932861328125,-1.1804840564727783,-0.690680980682373,-0.43856799602508545
1788107646506019300,2.462019287109375,-0.5869879722595215,0.18668299913406372,-0.7889490127563477
1788107646516100900,2.472100830078125,-1.1876850128173828,-0.8356649875640869,-0.17306700348854065
1788107646526188500,2.4821884765625,-1.3194680213928223,-0.833262026309967,0.0927010029554367
1788107646536281900,2.49228173828125,-1.1701630353927612,-0.13292400538921356,-0.34108299016952515
1788107646546362000,2.502362060546875,-1.2410110235214233,-0.2037000060081482,-0.2140830010175705
1788107646556444400,2.5124443359375,-1.0317230224609375,-0.05379600077867508,-0.13708600401878357
1788107646566529300,2.522529296875,-0.6332690119743347,-0.05994899943470955,0.03168199956417084
1788107646576605000,2.53260498046875,-0.21172499656677246,0.009496999904513359,0.025188999250531197
1788107646586689800,2.542689697265625,0.11125899851322174,-0.05105099827051163,-0.027076000347733498
1788107646596770800,2.552770751953125,0.6968259811401367,0.14745399355888367,0.05661100149154663
1788107646606857200,2.562857177734375,0.7965800166130066,0.1854030042886734,0.09167800098657608
1788107646616943400,2.572943359375,0.9663419723510742,0.28449898958206177,0.2886829972267151
1788107646627028000,2.583028076171875,0.9268519878387451,0.21952000260353088,0.5313249826431274
1788107646637113000,2.593113037109375,1.0582400560379028,0.23509299755096436,0.6390479803085327
1788107646647204000,2.6032041015625,1.2594250440597534,0.18086199462413788,0.7882490158081055
1788107646657287000,2.613286865234375,1.3750020265579224,0.09263300150632858,0.9298189878463745
1788107646667376600,2.623376708984375,1.4766650199890137,0.021820999681949615,0.9221680164337158
1788107646677453600,2.63345361328125,1.7894049882888794,-0.0227269995957613,0.8453440070152283
1788107646687548700,2.643548583984375,1.4506139755249023,0.020802000537514687,0.39254599809646606
1788107646697629400,2.65362939453125,1.0142600536346436,0.06588900089263916,0.15454399585723877
1788107646707710500,2.66371044921875,0.25996100902557373,0.22143900394439697,-0.1881140023469925
1788107646727906600,2.683906494140625,-1.1239449977874756,0.103643998503685,-0.37579798698425293
1788107646737991700,2.69399169921875,-0.8346250057220459,0.19005799293518066,-0.2567560076713562
1788107646748085000,2.7040849609375,-0.49531298875808716,0.40245699882507324,-0.33228498697280884
1788107646758161000,2.714160888671875,-0.12921899557113647,0.02961999922990799,0.17940199375152588
1788107646768255000,2.7242548828125,0.5718889832496643,0.05784500017762184,0.382517009973526
1788107646778342100,2.734342041015625,1.1246639490127563,-0.1603890061378479,0.5799819827079773
1788107646788436000,2.74443603515625,1.662909984588623,-0.289682000875473,0.7297130227088928
1788107646798516700,2.754516845703125,1.8405319452285767,-0.3810890018939972,0.7564510107040405
1788107646808603100,2.76460302734375,1.543807029724121,-0.46627700328826904,0.6063460111618042
1788107646818697200,2.774697265625,1.123621940612793,-0.3726640045642853,0.3404980003833771
1788107646828776400,2.7847763671875,0.46159300208091736,-0.3954960107803345,0.18684999644756317
1788107646838865000,2.794864990234375,-0.09907799959182739,-0.3067449927330017,0.2258239984512329
1788107646848953900,2.804953857421875,-0.31158000230789185,-0.26803499460220337,0.39237499237060547
1788107646859046400,2.81504638671875,-0.20220999419689178,-0.2443619966506958,0.5244590044021606
1788107646869128000,2.8251279296875,-0.2889080047607422,-0.18457099795341492,0.48056700825691223
1788107646879215900,2.8352158203125,-0.3917129933834076,-0.18790100514888763,0.4619799852371216
1788107646889302000,2.845302001953125,-0.34547901153564453,-0.29677098989486694,0.5432249903678894
1788107646899390200,2.85539013671875,-0.36727601289749146,-0.3162670135498047,0.45949599146842957
1788107646909472300,2.86547216796875,-0.42822301387786865,-0.2963150143623352,0.396016001701355
1788107646919556400,2.875556396484375,-0.5703129768371582,-0.36022499203681946,0.43010199069976807
1788107646929646600,2.885646484375,-0.503367006778717,-0.4308690130710602,0.4186770021915436
1788107646939734500,2.895734619140625,-0.3755289912223816,-0.46853500604629517,0.4465390145778656
1788107646949810700,2.905810791015625,-0.1304740011692047,-0.5486260056495667,0.3965289890766144
1788107646959900400,2.915900390625,-0.009939000010490417,-0.4897949993610382,0.3566569983959198
1788107646969991000,2.925990966796875,0.036713000386953354,-0.41717299818992615,0.3366999924182892
1788107646980080600,2.93608056640625,0.003206999972462654,-0.3843420147895813,0.28649699687957764
1788107646990163500,2.94616357421875,-0.06490200012922287,-0.2718670070171356,0.22569799423217773
1788107647000244500,2.956244384765625,-0.19034799933433533,-0.15537899732589722,0.22032900154590607
1788107647010329000,2.9663291015625,-0.3730660080909729,-0.003134000115096569,0.06792999804019928
1788107647020423200,2.976423095703125,-0.3735649883747101,0.2101619988679886,-0.000547999981790781
1788107647030501000,2.986501220703125,-0.42581799626350403,0.3179279863834381,0.05149200186133385
1788107647040593700,2.99659375,-0.6234400272369385,0.4337269961833954,0.050749000161886215
1788107647050680300,3.006680419921875,-0.7574859857559204,0.5469539761543274,-0.02028599940240383
1788107647060762600,3.0167626953125,-0.9864010214805603,0.5993210077285767,-0.14700500667095184
1788107647070872000,3.0268720703125,-1.0439029932022095,0.7023730278015137,-0.3440679907798767
1788107647080959000,3.036958984375,-1.1214009523391724,0.7707719802856445,-0.48284000158309937
1788107647091039700,3.047039794921875,-1.0901559591293335,0.9727259874343872,-0.6474260091781616
1788107647101123800,3.057123779296875,-0.8826090097427368,1.0212069749832153,-0.6750339865684509
1788107647111214600,3.067214599609375,-0.4205319881439209,1.029096007347107,-0.5119519829750061
1788107647121297000,3.077296875,-0.023079000413417816,1.0932879447937012,-0.39302700757980347
1788107647131379500,3.08737939453125,0.506492018699646,1.198161005973816,-0.1754949986934662
1788107647141467000,3.097466796875,0.9458699822425842,1.1718339920043945,0.030050000175833702
1788107647151552800,3.107552734375,1.236644983291626,1.1770639419555664,0.2476779967546463
1788107647161646600,3.117646484375,1.6673539876937866,1.0031559467315674,0.7001209855079651
1788107647171733000,3.12773291015625,2.408931016921997,0.877964973449707,1.2257699966430664
1788107647181825800,3.13782568359375,3.0744149684906006,0.7337200045585632,1.7020289897918701
1788107647191915000,3.1479150390625,3.439223051071167,0.6513159871101379,1.822579026222229
1788107647202012400,3.158012451171875,3.1149210929870605,0.6575449705123901,1.5281800031661987
1788107647212096800,3.1680966796875,2.1288070678710938,0.676600992679596,1.056298017501831
1788107647222193700,3.178193603515625,0.8875529766082764,0.5419340133666992,0.7137240171432495
1788107647232282000,3.1882822265625,-0.2972019910812378,0.4349919855594635,0.6445450186729431
1788107647242372600,3.19837255859375,-1.1657509803771973,0.3015190064907074,0.7579060196876526
1788107647252457500,3.20845751953125,-1.5011659860610962,0.2201710045337677,0.859607994556427
1788107647262549500,3.218549560546875,-1.7057490348815918,0.11462199687957764,0.838267982006073
1788107647272637400,3.228637451171875,-1.610798954963684,-0.09991499781608582,0.8671879768371582
1788107647282729700,3.238729736328125,-1.1927560567855835,-0.40288999676704407,0.9755679965019226
1788107647292821500,3.248821533203125,-0.8263779878616333,-0.7116379737854004,1.118177056312561
1788107647302913300,3.258913330078125,-0.5985580086708069,-0.9717069864273071,1.215095043182373
1788107647312998700,3.26899853515625,-0.5175740122795105,-1.1794650554656982,1.161376953125
1788107647323089400,3.27908935546875,-0.6692709922790527,-1.3011640310287476,0.9116470217704773
1788107647333176000,3.289176025390625,-0.9110400080680847,-1.3074419498443604,0.5093989968299866
1788107647343273000,3.29927294921875,-1.4412659406661987,-1.2658439874649048,-0.07028400152921677
1788107647353362700,3.30936279296875,-1.8485709428787231,-1.2107399702072144,-0.3991140127182007
1788107647363456500,3.31945654296875,-2.1352310180664062,-1.0194799900054932,-0.44379499554634094
1788107647373541600,3.329541748046875,-2.178555965423584,-1.0747050046920776,-0.2725439965724945
1788107647383634400,3.339634521484375,-2.048110008239746,-0.9787650108337402,0.13809500634670258
1788107647393724700,3.349724609375,-1.528771996498108,-0.9482730031013489,0.3908509910106659
1788107647403815400,3.3598154296875,-0.9066630005836487,-0.955560028553009,0.6175940036773682
1788107647413904600,3.369904541015625,-0.2561210095882416,-0.9597690105438232,0.8725460171699524
1788107647423989500,3.379989501953125,0.3566400110721588,-0.9216899871826172,1.0331799983978271
1788107647434076700,3.39007666015625,0.8625869750976562,-0.935600996017456,1.2535879611968994
1788107647444178700,3.4001787109375,1.1141539812088013,-0.9529290199279785,1.4426170587539673
1788107647454259000,3.410259033203125,1.3434350490570068,-0.977886974811554,1.7401659488677979
1788107647464356400,3.4203564453125,1.4878979921340942,-1.0233440399169922,1.8291800022125244
1788107647474442200,3.430442138671875,1.6688400506973267,-0.9860000014305115,1.6149519681930542
1788107647484530000,3.440530029296875,1.5919170379638672,-0.8797299861907959,1.3023769855499268
1788107647494625000,3.450625,1.2377289533615112,-0.8489019870758057,1.1972639560699463
1788107647504705000,3.460705078125,0.7648680210113525,-0.6313830018043518,0.9716020226478577
1788107647514794800,3.470794677734375,0.2713789939880371,-0.6015959978103638,1.0800060033798218
1788107647524882400,3.48088232421875,-0.23362599313259125,-0.4349980056285858,1.1413170099258423
1788107647534969000,3.490968994140625,-0.5703539848327637,-0.4049440026283264,1.1185280084609985
1788107647545054500,3.501054443359375,-0.8336830139160156,-0.3378030061721802,0.9555299878120422
1788107647555146000,3.51114599609375,-0.9390590190887451,-0.2941629886627197,0.7320860028266907
1788107647565229300,3.521229248046875,-0.9719669818878174,-0.3552759885787964,0.6269760131835938
1788107647575312600,3.531312744140625,-0.9101690053939819,-0.30489298701286316,0.6288319826126099
1788107647585398300,3.541398193359375,-0.8962389826774597,-0.30867600440979004,0.7216529846191406
1788107647595486200,3.551486328125,-0.9019079804420471,-0.23773500323295593,0.5853040218353271
1788107647605567700,3.561567626953125,-0.8820739984512329,-0.2291789948940277,0.26563501358032227
1788107647615651300,3.5716513671875,-0.9267309904098511,-0.3248800039291382,0.04610100015997887
1788107647625733600,3.581733642578125,-0.8365020155906677,-0.4922269880771637,0.15359200537204742
1788107647635816700,3.591816650390625,-0.5135020017623901,-0.6617209911346436,0.6338139772415161
1788107647645901000,3.601901123046875,0.020539000630378723,-0.7569419741630554,1.0865609645843506
1788107647655989200,3.6119892578125,0.5949190258979797,-0.8411369919776917,1.2836120128631592
1788107647666068000,3.62206787109375,1.0740000009536743,-0.8836169838905334,1.2354789972305298
1788107647676151300,3.6321513671875,1.310472011566162,-0.844219982624054,0.985522985458374
1788107647686240500,3.642240478515625,1.4379160404205322,-0.8225259780883789,0.718966007232666
1788107647696321000,3.652321044921875,1.1449389457702637,-0.7801169753074646,0.5430470108985901
1788107647706414800,3.662414794921875,0.6702470183372498,-0.687362015247345,0.5771170258522034
1788107647716509700,3.672509765625,0.26780200004577637,-0.6264209747314453,0.7081379890441895
1788107647726597400,3.682597412109375,-0.03974499925971031,-0.58160400390625,0.9848920106887817
1788107647736679000,3.692678955078125,-0.0006360000115819275,-0.648360013961792,1.2065969705581665
1788107647746756400,3.70275634765625,0.2591089904308319,-0.7828119993209839,1.4351279735565186
1788107647756839000,3.7128388671875,0.5777810215950012,-0.902534008026123,1.6028759479522705
1788107647766925300,3.72292529296875,1.0320359468460083,-1.0197219848632812,1.7677949666976929
1788107647777004800,3.7330048828125,1.2894370555877686,-1.1034129858016968,1.7667659521102905
1788107647787089000,3.7430888671875,1.2476589679718018,-1.1467609405517578,1.5416430234909058
1788107647797171200,3.753171142578125,1.0199300050735474,-1.1289340257644653,1.267619013786316
1788107647807259400,3.76325927734375,0.6219779849052429,-1.0383670330047607,0.9280779957771301
1788107647817342000,3.773342041015625,0.14372700452804565,-0.8664640188217163,0.5953930020332336
1788107647827426600,3.783426513671875,-0.3394930064678192,-0.7718909978866577,0.535165011882782
1788107647837509000,3.793509033203125,-0.6211469769477844,-0.5943160057067871,0.4630660116672516
1788107647847600000,3.80360009765625,-0.8367120027542114,-0.4954400062561035,0.486178994178772
1788107647857686800,3.813686767578125,-0.9372180104255676,-0.4036659896373749,0.5853779911994934
1788107647867776300,3.8237763671875,-0.984158992767334,-0.3502340018749237,0.712602972984314
1788107647877862700,3.833862548828125,-0.8507729768753052,-0.4275529980659485,0.8755199909210205
1788107647887953400,3.843953369140625,-0.43047401309013367,-0.523481011390686,1.0770200490951538
1788107647898039300,3.854039306640625,0.2126539945602417,-0.7354419827461243,1.2583500146865845
1788107647908127500,3.86412744140625,0.999871015548706,-0.8083459734916687,1.4266910552978516
1788107647918210600,3.87421044921875,1.77456796169281,-0.9402459859848022,1.4535130262374878
1788107647928301600,3.884301513671875,2.3455638885498047,-0.9256979823112488,1.2038450241088867
1788107647938386700,3.89438671875,2.5314109325408936,-0.8934299945831299,0.9513149857521057
1788107647948480000,3.90447998046875,2.2209360599517822,-0.780115008354187,0.6816459894180298
1788107647958566000,3.91456591796875,1.414381980895996,-0.6493549942970276,0.46856701374053955
1788107647968650800,3.924650634765625,0.39801400899887085,-0.439285010099411,0.2553260028362274
1788107647978742300,3.9347421875,-0.5713520050048828,-0.3161439895629883,0.4116609990596771
1788107647988821800,3.94482177734375,-1.3553789854049683,-0.1893630027770996,0.5875160098075867
1788107647998907400,3.954907470703125,-1.6062519550323486,-0.13332000374794006,0.7482290267944336
1788107648008995800,3.964995849609375,-1.541659951210022,-0.06360600143671036,0.711438000202179
1788107648019077400,3.975077392578125,-1.2162100076675415,-0.1282529979944229,0.7354360222816467
1788107648029172500,3.98517236328125,-0.7904919981956482,-0.14325299859046936,0.5819510221481323
1788107648039261000,3.995260986328125,-0.14623099565505981,-0.1485690027475357,0.4155830144882202
1788107648049346000,4.005345947265625,0.14663800597190857,-0.209074005484581,0.2786230146884918
1788107648059437000,4.01543701171875,0.34011998772621155,-0.1810780018568039,0.060141000896692276
1788107648069523000,4.02552294921875,0.47661200165748596,-0.21978099644184113,0.12458299845457077
1788107648079608600,4.035608642578125,0.6969680190086365,-0.18692000210285187,0.2654370069503784
1788107648089693400,4.045693359375,0.852973997592926,-0.28589698672294617,0.4855070114135742
1788107648099786200,4.0557861328125,1.1596449613571167,-0.28731098771095276,0.6230170130729675
1788107648109868500,4.06586865234375,1.4615399837493896,-0.2508600056171417,0.5244629979133606
1788107648119959000,4.075958984375,1.819108009338379,-0.24393899738788605,0.3547450006008148
1788107648130044700,4.086044677734375,2.0043540000915527,-0.22493399679660797,0.13203899562358856
1788107648140134100,4.096134033203125,1.821234941482544,-0.2789109945297241,0.04700100049376488
1788107648150211800,4.1062119140625,1.6200460195541382,-0.2851159870624542,0.12191800028085709
1788107648160299300,4.11629931640625,1.1525169610977173,-0.2890389859676361,0.15129099786281586
1788107648170393300,4.126393310546875,0.6920080184936523,-0.20750699937343597,-0.013983000069856644
1788107648180485600,4.136485595703125,0.17009800672531128,-0.24547900259494781,-0.17875799536705017
1788107648190561000,4.14656103515625,-0.24618199467658997,-0.17641399800777435,-0.4161109924316406
1788107648200651500,4.156651611328125,-0.5069220066070557,-0.07303600013256073,-0.5525649785995483
1788107648210735900,4.16673583984375,-0.7827360033988953,-0.007864000275731087,-0.5706170201301575
1788107648220825900,4.176825927734375,-1.0413830280303955,0.07775600254535675,-0.5507789850234985
1788107648230925600,4.186925537109375,-1.165266990661621,0.17829400300979614,-0.5273849964141846
1788107648241011500,4.197011474609375,-1.231721043586731,0.1551939994096756,-0.40020298957824707
1788107648251100000,4.207099853515625,-0.9709960222244263,0.06762699782848358,0.03288400173187256
1788107648261184000,4.21718408203125,-0.5523099899291992,-0.04994099959731102,0.3438799977302551
1788107648271270000,4.227269775390625,-0.12149100005626678,-0.2810010015964508,0.5689820051193237
1788107648281348000,4.23734814453125,0.37261199951171875,-0.47625499963760376,0.6577609777450562
1788107648291430700,4.2474306640625,0.8196960091590881,-0.7087439894676208,0.7182499766349792
1788107648301516500,4.2575166015625,1.1758610010147095,-0.8605300188064575,0.5541539788246155
1788107648311606000,4.26760595703125,1.3337839841842651,-0.9845659732818604,0.37801799178123474
1788107648321690400,4.2776904296875,1.1473759412765503,-0.9644790291786194,0.2223770022392273
1788107648331779000,4.287779052734375,0.7017250061035156,-0.9192569851875305,0.007284999825060368
1788107648341869800,4.297869873046875,0.09372399747371674,-0.872098982334137,-0.09143099933862686
1788107648351960300,4.307960205078125,-0.5703039765357971,-0.7936519980430603,-0.1509300023317337
1788107648362038800,4.318038818359375,-0.9335939884185791,-0.7516930103302002,0.04364100098609924
1788107648372132900,4.3281328125,-1.1817580461502075,-0.7226849794387817,0.3414190113544464
1788107648382210800,4.3382109375,-1.2786799669265747,-0.7289310097694397,0.4764609932899475
1788107648392306000,4.348305908203125,-1.1572179794311523,-0.720333993434906,0.40147098898887634
1788107648402388500,4.358388427734375,-1.0634030103683472,-0.7077370285987854,0.19350099563598633
1788107648412471600,4.368471435546875,-1.092857003211975,-0.6978390216827393,-0.00822100043296814
1788107648422553000,4.378552978515625,-1.0599720478057861,-0.6308370232582092,-0.16291800141334534
1788107648432646000,4.38864599609375,-1.0539729595184326,-0.5587220191955566,-0.33132898807525635
1788107648442726000,4.398725830078125,-0.9484779834747314,-0.5204960107803345,-0.2995850145816803
1788107648452814800,4.40881494140625,-0.5834609866142273,-0.4063259959220886,-0.23287999629974365
1788107648462897400,4.4188974609375,-0.3177430033683777,-0.35906699299812317,-0.14396299421787262
1788107648472983600,4.428983642578125,0.039608001708984375,-0.2800000011920929,-0.032033998519182205
1788107648483081200,4.439081298828125,0.39041200280189514,-0.18074199557304382,0.10291200131177902
1788107648493168400,4.44916845703125,0.6642320156097412,-0.21498499810695648,0.30831199884414673
1788107648503260000,4.459260009765625,1.1691269874572754,-0.11000700294971466,0.34633898735046387
1788107648513347600,4.46934765625,1.5297729969024658,-0.082505002617836,0.47073501348495483
1788107648523430100,4.47943017578125,1.7861729860305786,-0.052646998316049576,0.5254250168800354
1788107648533514800,4.4895146484375,2.0435609817504883,-0.0455159991979599,0.5789679884910583
1788107648543605200,4.499605224609375,1.910586953163147,0.045805998146533966,0.5273759961128235
1788107648553698800,4.50969873046875,1.7682299613952637,0.05546500161290169,0.5631399750709534
1788107648563786500,4.519786376953125,1.47849702835083,0.0743739977478981,0.5524110198020935
1788107648573868000,4.529867919921875,1.354200005531311,0.046007998287677765,0.5298320055007935
1788107648583957200,4.539957275390625,1.2633270025253296,0.004683000035583973,0.5751270055770874
1788107648594045000,4.550044921875,1.208027958869934,-0.018432000651955605,0.49445199966430664
1788107648604135400,4.560135498046875,1.1753549575805664,-0.031254999339580536,0.47111400961875916
1788107648614226700,4.570226806640625,1.0212030410766602,0.02706499956548214,0.49195098876953125
1788107648624306200,4.58030615234375,0.8542619943618774,0.03392599895596504,0.3385080099105835
1788107648634395400,4.5903955078125,0.5298309922218323,0.06327400356531143,0.06092799827456474
1788107648644483600,4.600483642578125,0.23501800000667572,0.04135100170969963,-0.2321619987487793
1788107648654567700,4.610567626953125,-0.040789999067783356,0.13379299640655518,-0.4427720010280609
1788107648664656100,4.62065625,-0.27365100383758545,0.13222700357437134,-0.4278219938278198
1788107648674742000,4.630741943359375,-0.42215999960899353,0.12536700069904327,-0.27123600244522095
1788107648684820000,4.640820068359375,-0.37005099654197693,0.11139699816703796,-0.07204200327396393
1788107648694907100,4.6509072265625,-0.207614004611969,0.015576999634504318,-0.07304999977350235
1788107648705000700,4.661000732421875,-0.06546799838542938,0.01051000040024519,-0.18249200284481049
1788107648715090400,4.67109033203125,-0.13868600130081177,-0.1144699975848198,-0.26665198802948
1788107648725181400,4.681181396484375,-0.019574999809265137,-0.1750890016555786,-0.4196290075778961
1788107648735278600,4.691278564453125,0.10089600086212158,-0.30451199412345886,-0.45270100235939026
1788107648745365000,4.701364990234375,0.193354994058609,-0.36829298734664917,-0.3462870121002197
1788107648755446500,4.711446533203125,0.24721799790859222,-0.4922800064086914,-0.23737700283527374
1788107648765529600,4.721529541015625,0.27686700224876404,-0.5368340015411377,-0.4816490113735199
1788107648775617500,4.731617431640625,0.04206499829888344,-0.555063009262085,-0.7780870199203491
1788107648785697000,4.741697021484375,-0.27244099974632263,-0.570917010307312,-1.0623689889907837
1788107648795778300,4.7517783203125,-0.5749760270118713,-0.6398940086364746,-1.1767890453338623
1788107648805865500,4.761865478515625,-0.8002949953079224,-0.548570990562439,-1.3456809520721436
1788107648815949000,4.771948974609375,-0.9867110252380371,-0.5533620119094849,-1.339169979095459
1788107648826029600,4.782029541015625,-1.0726569890975952,-0.5702120065689087,-1.19343900680542
1788107648836115200,4.792115234375,-0.9082670211791992,-0.563506007194519,-0.7826619744300842
1788107648846201000,4.802201171875,-0.7386429905891418,-0.5072619915008545,-0.4129379987716675
1788107648856291300,4.812291259765625,-0.5633289813995361,-0.39362600445747375,-0.17190399765968323
1788107648866364700,4.82236474609375,-0.3899640142917633,-0.35794100165367126,-0.013752000406384468
1788107648876453400,4.832453369140625,-0.09087099879980087,-0.3132680058479309,0.1649949997663498
1788107648886536000,4.842535888671875,0.23438499867916107,-0.280333012342453,0.28359299898147583
1788107648896622600,4.85262255859375,0.4903450012207031,-0.21640999615192413,0.31877401471138
1788107648906706000,4.862705810546875,0.5009179711341858,-0.19068600237369537,0.3540619909763336
1788107648916793300,4.87279345703125,0.4063679873943329,-0.15351499617099762,0.32239800691604614
1788107648926875000,4.882875,0.22773100435733795,-0.1405559927225113,0.43816500902175903
1788107648936958700,4.892958740234375,0.025165000930428505,-0.02026199921965599,0.42807498574256897
1788107648947042600,4.90304248046875,-0.1883549988269806,-0.03501199930906296,0.48827600479125977
1788107648957128200,4.913128173828125,-0.4584920108318329,-0.12728999555110931,0.4927459955215454
1788107648967218200,4.92321826171875,-0.48325398564338684,-0.06505200266838074,0.42210400104522705
1788107648977319700,4.933319580078125,-0.6889259815216064,-0.054336998611688614,0.1757189929485321
1788107648987411200,4.9434111328125,-0.7823299765586853,-0.04236200079321861,-0.012635000050067902
1788107648997493800,4.95349365234375,-0.8392059803009033,-0.04539399966597557,-0.22435399889945984
1788107649007580000,4.963579833984375,-0.9435510039329529,-0.03969400003552437,-0.23590600490570068
1788107649017661000,4.973660888671875,-0.6524180173873901,-0.10590700060129166,-0.18577100336551666
1788107649027744500,4.98374462890625,-0.47060999274253845,-0.0561399981379509,-0.348147988319397
1788107649037828600,4.99382861328125,-0.11299999803304672,-0.17715400457382202,-0.28885000944137573
1788107649047918000,5.00391796875,0.14297200739383698,-0.016433000564575195,-0.37826699018478394
1788107649057998800,5.013998779296875,0.4130280017852783,-0.1711529940366745,-0.1310960054397583
1788107649068089600,5.024089599609375,0.5291789770126343,0.03767799958586693,-0.24225300550460815
1788107649078168800,5.0341689453125,0.5140230059623718,0.01813100092113018,-0.2068140059709549
1788107649088256300,5.04425634765625,0.5290799736976624,0.06318700313568115,-0.21345800161361694
1788107649098341400,5.05434130859375,0.5013430118560791,0.028264999389648438,-0.18045400083065033
1788107649108433200,5.06443310546875,0.5316410064697266,0.013539999723434448,-0.13120900094509125
1788107649118518800,5.074518798828125,0.41818898916244507,0.015049000270664692,-0.015075000002980232
1788107649128610300,5.0846103515625,0.3972949981689453,0.07408999651670456,0.043696001172065735
1788107649138698500,5.094698486328125,0.4481070041656494,0.1012360006570816,-0.06259699910879135
1788107649148789000,5.1047890625,0.47954899072647095,0.06324800103902817,-0.2537020146846771
1788107649158878200,5.114878173828125,0.5369679927825928,0.027184000238776207,-0.5801360011100769
1788107649168960800,5.124960693359375,0.5415869951248169,-0.10702399909496307,-0.6654180288314819
1788107649179050200,5.13505029296875,0.5847899913787842,-0.1220569983124733,-0.6672549843788147
1788107649189136100,5.14513623046875,0.7045810222625732,-0.07996399700641632,-0.6466100215911865
1788107649199225300,5.155225341796875,0.799701988697052,-0.018099000677466393,-0.5093269944190979
1788107649209308700,5.16530859375,0.8697819709777832,-0.01570899970829487,-0.5024440288543701
1788107649219402500,5.175402587890625,0.9028130173683167,0.04053699970245361,-0.47043299674987793
1788107649229477600,5.1854775390625,1.066694974899292,0.04187199845910072,-0.44432300329208374
1788107649239568400,5.195568359375,1.1947400569915771,-0.15719200670719147,-0.10111699998378754
1788107649249654800,5.20565478515625,1.2740390300750732,-0.0720990002155304,-0.09050899744033813
1788107649259740000,5.215739990234375,1.3910490274429321,-0.1703840047121048,0.19616800546646118
1788107649269825000,5.225824951171875,1.4125579595565796,-0.22511599957942963,0.4041439890861511
1788107649279914800,5.235914794921875,1.2733319997787476,-0.2626189887523651,0.5400969982147217
1788107649289997300,5.245997314453125,1.1895899772644043,-0.4264169931411743,0.5605810284614563
1788107649300080600,5.25608056640625,1.0083889961242676,-0.5374220013618469,0.6107320189476013
1788107649310155000,5.266155029296875,0.6798980236053467,-0.5401859879493713,0.6214370131492615
1788107649320245200,5.276245361328125,0.29182299971580505,-0.5708420276641846,0.4506570100784302
1788107649330325200,5.2863251953125,-0.018257999792695045,-0.6484310030937195,0.3014020025730133
1788107649340415500,5.29641552734375,-0.400501012802124,-0.6862310171127319,0.10065600275993347
1788107649350500600,5.30650048828125,-0.514394998550415,-0.8049539923667908,0.1027270033955574
1788107649370672600,5.326672607421875,-0.5468109846115112,-0.85691899061203,0.19982300698757172
1788107649380765000,5.336764892578125,-0.4297170042991638,-0.8427950143814087,0.2573550045490265
1788107649390852000,5.34685205078125,-0.046560000628232956,-0.6686300039291382,0.6025469899177551
1788107649400952300,5.356952392578125,-1.6479029655456543,-1.5272220373153687,-0.03604700043797493
1788107649411042300,5.367042236328125,-0.11828599870204926,-0.8572070002555847,-0.39806899428367615
1788107649421134000,5.377134033203125,-0.298103004693985,-1.2336859703063965,0.23305900394916534
1788107649431216000,5.387216064453125,-0.2491369992494583,-0.9250220060348511,-0.17958399653434753
1788107649441299500,5.397299560546875,-0.2529110014438629,-0.8621900081634521,0.1695220023393631
1788107649451387000,5.407386962890625,-0.3763290047645569,-0.8592180013656616,0.06991799920797348
1788107649461469400,5.417469482421875,-0.40457800030708313,-0.7236869931221008,0.0331140011548996
1788107649471561700,5.427561767578125,-0.35745200514793396,-0.6968790292739868,0.2589530050754547
1788107649481643800,5.437643798828125,-0.20320899784564972,-0.649914026260376,0.43027499318122864
1788107649491735600,5.447735595703125,0.12115400284528732,-0.6079099774360657,0.5259379744529724
1788107649501810200,5.45781005859375,0.36964699625968933,-0.5086989998817444,0.5259630084037781
1788107649511903200,5.4679033203125,0.61564701795578,-0.4500750005245209,0.634552001953125
1788107649521984800,5.47798486328125,0.7679150104522705,-0.46961700916290283,0.8562250137329102
1788107649532076800,5.488076904296875,0.9322050213813782,-0.3769190013408661,0.897782027721405
1788107649542168000,5.49816796875,0.9376320242881775,-0.3285120129585266,0.7726259827613831
1788107649552270600,5.5082705078125,0.8679149746894836,-0.23398299515247345,0.6279370188713074
1788107649562349800,5.518349853515625,0.740319013595581,-0.2704879939556122,0.5207759737968445
1788107649572447700,5.52844775390625,0.5566719770431519,-0.21063999831676483,0.37070900201797485
1788107649582532600,5.53853271484375,0.3599979877471924,-0.10677099972963333,0.2603510022163391
1788107649592636700,5.54863671875,0.06912200152873993,-0.04534199833869934,0.1852779984474182
1788107649602722600,5.55872265625,-0.26673001050949097,0.022508999332785606,0.021950000897049904
1788107649612813300,5.568813232421875,-0.5375570058822632,-0.02223600074648857,-0.06715600192546844
1788107649622899700,5.578899658203125,-0.6956999897956848,0.011691000312566757,-0.17352800071239471
1788107649632989000,5.588989013671875,-0.6803879737854004,0.06424099951982498,-0.36715298891067505
1788107649643068200,5.599068115234375,-0.48041200637817383,0.03046499937772751,-0.42096900939941406
1788107649653161200,5.6091611328125,-0.11832799762487411,-0.028396999463438988,-0.2200080007314682
1788107649663252000,5.619251953125,0.40848100185394287,-0.08393099904060364,0.04454300180077553
1788107649673336000,5.629336181640625,0.9357810020446777,-0.11851300299167633,0.1837099939584732
1788107649683428900,5.639428955078125,1.2251189947128296,-0.10401800274848938,0.19366200268268585
1788107649693516800,5.649516845703125,1.4497120380401611,-0.12841400504112244,0.27417701482772827
1788107649703606800,5.659606689453125,1.4162410497665405,-0.15803499519824982,0.4409720003604889
1788107649713698800,5.66969873046875,1.553352952003479,-0.1245810016989708,0.6077399849891663
1788107649723787000,5.679787109375,1.3992810249328613,-0.23079000413417816,0.6810629963874817
1788107649733883600,5.689883544921875,1.3367630243301392,-0.26433899998664856,0.7012929916381836
1788107649743980800,5.699980712890625,1.2152190208435059,-0.2916339933872223,0.7170959711074829
1788107649754062600,5.7100625,0.9537529945373535,-0.2517220079898834,0.5836920142173767
1788107649764158200,5.720158203125,0.5080459713935852,-0.2552120089530945,0.4969860017299652
1788107649774250000,5.73025,-0.0854640007019043,-0.2644850015640259,0.4787899851799011
1788107649784336100,5.740336181640625,-0.4606870114803314,-0.3128499984741211,0.4178459942340851
1788107649794418400,5.75041845703125,-0.7181730270385742,-0.21525299549102783,0.19346199929714203
1788107649804507000,5.7605068359375,-0.9841430187225342,-0.24330900609493256,-0.11738000065088272
1788107649814590700,5.7705908203125,-1.1400560140609741,-0.3114689886569977,-0.34421300888061523
1788107649824679400,5.780679443359375,-1.2964669466018677,-0.38154399394989014,-0.44630900025367737
1788107649834769200,5.79076904296875,-1.3612350225448608,-0.35377201437950134,-0.5630509853363037
1788107649844862000,5.800862060546875,-1.364603042602539,-0.30590200424194336,-0.641057014465332
1788107649854945300,5.8109453125,-1.2267299890518188,-0.32932400703430176,-0.7858309745788574
1788107649865028000,5.821028076171875,-1.0133399963378906,-0.2747899889945984,-0.7879760265350342
1788107649875118000,5.8311181640625,-0.624330997467041,-0.37623998522758484,-0.6810629963874817
1788107649885209000,5.841208984375,-0.13959500193595886,-0.3646889925003052,-0.6151990294456482
1788107649905389800,5.861389892578125,0.8144440054893494,-0.5698189735412598,0.011754999868571758
1788107649915475000,5.871474853515625,1.1561360359191895,-0.596917986869812,0.2994210124015808
1788107649925558800,5.881558837890625,1.5049870014190674,-0.5829570293426514,0.4812600016593933
1788107649935644200,5.89164404296875,1.6666920185089111,-0.5761690139770508,0.4946480095386505
1788107649945726700,5.901726806640625,1.8502470254898071,-0.5552759766578674,0.5003269910812378
1788107649955812000,5.91181201171875,1.8846839666366577,-0.4940420091152191,0.5739160180091858
1788107649965892900,5.921892822265625,1.6288939714431763,-0.4205769896507263,0.7701169848442078
1788107649975977200,5.931977294921875,0.9611859917640686,-0.28085601329803467,0.5621790289878845
1788107649986066200,5.942066162109375,0.26737499237060547,-0.17747199535369873,0.40298500657081604
1788107649996153900,5.95215380859375,-0.3173379898071289,-0.1521880030632019,0.2877750098705292
1788107650006236400,5.962236328125,-0.8830689787864685,-0.14832499623298645,0.286190003156662
1788107650016316700,5.972316650390625,-1.1978700160980225,-0.10505100339651108,0.3389259874820709
1788107650026401000,5.982401123046875,-1.3086800575256348,-0.06710600107908249,0.31373101472854614
1788107650036486000,5.99248583984375,-1.3382289409637451,-0.0715159997344017,0.3465940058231354
1788107650046572300,6.002572265625,-1.277258038520813,0.015332000330090523,0.060074999928474426
1788107650056656400,6.012656494140625,-1.1337080001831055,-0.18347500264644623,0.010230000130832195
1788107650066738200,6.02273828125,-0.9284949898719788,-0.22404100000858307,-0.10160599648952484
1788107650076819500,6.0328193359375,-0.812466025352478,-0.22080500423908234,-0.22707499563694
1788107650086907400,6.042907470703125,-0.8627359867095947,-0.252359002828598,-0.24743199348449707
1788107650096986400,6.052986328125,-0.8853790163993835,-0.29227399826049805,-0.4035030007362366
1788107650107068700,6.063068603515625,-0.7785419821739197,-0.36584100127220154,-0.46201199293136597
1788107650117150500,6.073150390625,-0.6541609764099121,-0.279803991317749,-0.5617179870605469
1788107650127242800,6.08324267578125,-0.5273560285568237,-0.32996898889541626,-0.5103399753570557
1788107650137326800,6.093326904296875,-0.2718670070171356,-0.34126999974250793,-0.40701499581336975
1788107650147415000,6.1034150390625,0.017309000715613365,-0.3881840109825134,-0.2513760030269623
1788107650157496800,6.113496826171875,0.23117999732494354,-0.45562300086021423,-0.1676730066537857
1788107650167587000,6.123587158203125,0.8614460229873657,-0.35758399963378906,-0.05086199939250946
1788107650177668900,6.1336689453125,1.07635498046875,-0.3876200020313263,-0.052671998739242554
1788107650187759400,6.14375927734375,1.1885099411010742,-0.4271300137042999,0.033303000032901764
1788107650197842000,6.153842041015625,1.2721209526062012,-0.4002079963684082,0.07895799726247787
1788107650207933000,6.163932861328125,1.1716059446334839,-0.35405799746513367,0.09782599657773972
1788107650218021600,6.174021728515625,0.8955730199813843,-0.3529140055179596,0.1657160073518753
1788107650228107000,6.18410693359375,0.7075889706611633,-0.3606100082397461,0.2703390121459961
1788107650238182000,6.194181884765625,0.5539609789848328,-0.3646959960460663,0.27972298860549927
1788107650248272600,6.204272705078125,0.4989050030708313,-0.25426098704338074,0.16964800655841827
1788107650258349800,6.214349853515625,0.34056299924850464,-0.30901899933815,0.27433499693870544
1788107650268439800,6.224439697265625,0.24986499547958374,-0.32865700125694275,0.5062969923019409
1788107650278525200,6.234525146484375,0.09457100182771683,-0.315091997385025,0.5841730237007141
1788107650288609500,6.244609619140625,-0.10650300234556198,-0.23453499376773834,0.5262519717216492
1788107650298691800,6.25469189453125,-0.36688199639320374,-0.20953600108623505,0.3345800042152405
1788107650308785000,6.264784912109375,-0.7043660283088684,-0.2824440002441406,0.3209809958934784
1788107650318867000,6.274866943359375,-0.956824004650116,-0.39211800694465637,0.41555100679397583
1788107650328950800,6.28495068359375,-1.0733309984207153,-0.4295400083065033,0.3803290128707886
1788107650339033900,6.295033935546875,-1.1069159507751465,-0.4511300027370453,0.06762000173330307
1788107650349121300,6.305121337890625,-1.3353170156478882,-0.41616299748420715,-0.43395400047302246
1788107650359210000,6.3152099609375,-1.6397119760513306,-0.42219701409339905,-0.9057310223579407
1788107650369291500,6.32529150390625,-1.906358003616333,-0.3389430046081543,-1.2680530548095703
1788107650379373600,6.33537353515625,-1.9356590509414673,-0.4026719927787781,-1.1019179821014404
1788107650389456400,6.345456298828125,-1.4704060554504395,-0.53752601146698,-0.6697840094566345
1788107650399541200,6.355541259765625,-0.6943140029907227,-0.5622770190238953,-0.34698399901390076
1788107650409630200,6.365630126953125,0.09264200180768967,-0.595067024230957,-0.26271799206733704
1788107650419717600,6.375717529296875,0.7234249711036682,-0.6200330257415771,-0.3880169987678528
1788107650429805000,6.38580517578125,1.0970640182495117,-0.6127259731292725,-0.5713440179824829
1788107650439886300,6.39588623046875,1.073714017868042,-0.5703639984130859,-0.4570949971675873
1788107650449973200,6.40597314453125,0.9055539965629578,-0.510200023651123,-0.18590499460697174
1788107650460050000,6.4160498046875,0.8074349761009216,-0.4269289970397949,0.04557399824261665
1788107650470134800,6.426134765625,0.855567991733551,-0.4106549918651581,0.2208070009946823
1788107650480213500,6.436213623046875,1.0139809846878052,-0.3271690011024475,0.3046480119228363
1788107650490305500,6.446305419921875,1.1091699600219727,-0.2159239947795868,0.18129900097846985
1788107650500393200,6.456393310546875,1.2176909446716309,-0.21627099812030792,0.30443501472473145
1788107650510483200,6.466483154296875,1.108497977256775,-0.10689699649810791,0.4654029905796051
1788107650520568000,6.476568115234375,0.826649010181427,0.064690001308918,0.604843020439148
1788107650530657800,6.48665771484375,0.3148069977760315,0.2838220000267029,0.40400901436805725
1788107650540740400,6.496740234375,-0.3683139979839325,0.47823500633239746,0.0468050017952919
1788107650550833200,6.506833251953125,-0.987779974937439,0.548973023891449,-0.15376900136470795
1788107650560917200,6.516917236328125,-1.5066640377044678,0.6508780121803284,-0.3254550099372864
1788107650571012000,6.52701220703125,-1.5819740295410156,0.6945919990539551,-0.451680988073349
1788107650581105000,6.53710498046875,-1.368630051612854,0.7514709830284119,-0.5988370180130005
1788107650591196700,6.54719677734375,-1.0202690362930298,0.7717559933662415,-0.8151410222053528
1788107650601280300,6.5572802734375,-0.4667609930038452,0.7449960112571716,-0.9762099981307983
1788107650611362800,6.56736279296875,0.10240799933671951,0.6214330196380615,-0.760860025882721
1788107650621450800,6.57745068359375,0.6769099831581116,0.3991810083389282,-0.2934330105781555
1788107650631534000,6.5875341796875,1.3316210508346558,0.3076139986515045,0.22678400576114655
1788107650641624300,6.597624267578125,1.7583940029144287,0.2430659979581833,0.4969860017299652
1788107650651707600,6.607707763671875,2.252979040145874,0.21863099932670593,0.4958209991455078
1788107650661800000,6.617800048828125,2.518657922744751,0.19763299822807312,0.44926199316978455
1788107650671884500,6.627884521484375,2.1596970558166504,0.257748007774353,0.1802320033311844
1788107650681976800,6.637976806640625,1.6437269449234009,0.4046739935874939,-0.09463900327682495
1788107650692064300,6.648064208984375,1.0397299528121948,0.4099090099334717,-0.04878000169992447
1788107650702158600,6.65815869140625,0.6505150198936462,0.30552101135253906,0.35041001439094543
1788107650712254200,6.668254150390625,0.6710000038146973,0.2200939953327179,0.6200349926948547
1788107650722345500,6.678345458984375,0.8532549738883972,0.11671999841928482,0.6688169836997986
1788107650732429300,6.68842919921875,0.9477019906044006,0.10117500275373459,0.5699790120124817
1788107650742513200,6.69851318359375,0.7311369776725769,0.039639998227357864,0.3825230002403259
1788107650752596200,6.70859619140625,0.23012399673461914,-0.05388699844479561,0.3169980049133301
1788107650762687500,6.7186875,-0.38204899430274963,-0.060329001396894455,0.35480499267578125
1788107650772775200,6.728775146484375,-1.0204230546951294,-0.18189600110054016,0.3306809961795807
1788107650782868500,6.738868408203125,-1.5652639865875244,-0.22413399815559387,0.13155800104141235
1788107650792953900,6.748953857421875,-1.712515950202942,-0.2712860107421875,0.035464998334646225
1788107650803040800,6.759040771484375,-1.6101280450820923,-0.24222899973392487,0.0036589999217540026
1788107650813134000,6.769134033203125,-1.373810052871704,-0.30393901467323303,0.18155699968338013
1788107650823225000,6.77922509765625,-1.0434279441833496,-0.29196301102638245,0.3323250114917755
1788107650833316600,6.789316650390625,-0.7623900175094604,-0.36002200841903687,0.353971004486084
1788107650843401200,6.799401123046875,-0.6653130054473877,-0.4115059971809387,0.2607499957084656
1788107650853488600,6.809488525390625,-0.6895679831504822,-0.5333369970321655,0.1738550066947937
1788107650863577300,6.819577392578125,-0.6614410281181335,-0.5518749952316284,0.010727000422775745
1788107650873663700,6.829663818359375,-0.5458400249481201,-0.5863569974899292,0.20612500607967377
1788107650883748600,6.83974853515625,-0.27224001288414,-0.7402889728546143,0.6347270011901855
1788107650893831700,6.849831787109375,0.11710800230503082,-0.7419520020484924,1.0050220489501953
1788107650903926300,6.85992626953125,0.48367100954055786,-0.730027973651886,0.851760983467102
1788107650914009900,6.870009765625,0.4467479884624481,-0.6614890098571777,0.2892319858074188
1788107650924102400,6.880102294921875,0.17021599411964417,-0.626239001750946,-0.17004899680614471
1788107650934194200,6.890194091796875,-0.4200640022754669,-0.652944028377533,-0.3156760036945343
1788107650944296000,6.9002958984375,-0.9050589799880981,-0.6634290218353271,-0.2809950113296509
1788107650954395600,6.910395751953125,-1.2081849575042725,-0.5519490242004395,-0.2271209955215454
1788107650974582000,6.93058203125,-0.9327419996261597,-0.32783201336860657,-0.13599799573421478
1788107650984674300,6.94067431640625,-0.608614981174469,-0.4198949933052063,-0.02278199978172779
1788107650994756400,6.95075634765625,-0.006453000009059906,-0.4165419936180115,0.13285799324512482
1788107651004848400,6.960848388671875,0.4083549976348877,-0.5870550274848938,0.48987001180648804
1788107651014935300,6.970935302734375,0.749970018863678,-0.6507930159568787,0.712315022945404
1788107651025016300,6.981016357421875,0.9349160194396973,-0.5985130071640015,0.5856500267982483
1788107651035108600,6.991108642578125,0.9105079770088196,-0.5044010281562805,0.24737000465393066
1788107651045200400,7.001200439453125,0.6560140252113342,-0.4078260064125061,-0.00013800000306218863
1788107651055286000,7.0112861328125,0.29054099321365356,-0.26486098766326904,-0.14293000102043152
1788107651065374200,7.021374267578125,-0.10120400041341782,-0.13900500535964966,-0.14015500247478485
1788107651075457800,7.031457763671875,-0.345786988735199,0.016845999285578728,-0.23342999815940857
1788107651085545000,7.041544921875,-0.4537709951400757,0.08885800093412399,-0.3253600001335144
1788107651095628000,7.0516279296875,-0.4838399887084961,0.21713200211524963,-0.4076870083808899
1788107651105715500,7.061715576171875,-0.30252599716186523,0.23241199553012848,-0.2961159944534302
1788107651115798500,7.071798583984375,0.07134100049734116,0.263590008020401,-0.12883499264717102
1788107651125887500,7.081887451171875,0.5162280201911926,0.14508099853992462,0.1633169949054718
1788107651135972900,7.091972900390625,0.9691240191459656,0.1242469996213913,0.27548301219940186
1788107651146054400,7.102054443359375,1.4189599752426147,0.12069600075483322,0.3455899953842163
1788107651156143600,7.1121435546875,1.5119889974594116,0.1558700054883957,0.1521109938621521
1788107651166230800,7.122230712890625,1.4598900079727173,0.17772500216960907,-0.09831699728965759
1788107651176312000,7.13231201171875,1.2111059427261353,0.19551999866962433,-0.27572500705718994
1788107651186396700,7.142396728515625,0.9692549705505371,0.23486900329589844,-0.2536590099334717
1788107651206569500,7.162569580078125,1.2860020399093628,0.31436100602149963,-0.15852299332618713
1788107651216660500,7.172660400390625,1.5901939868927002,0.2596679925918579,-0.013822999782860279
1788107651226738400,7.182738525390625,1.9299869537353516,0.20986999571323395,0.0410429984331131
1788107651236828700,7.19282861328125,2.2950000762939453,0.10651200264692307,0.17212000489234924
1788107651246907600,7.20290771484375,2.520782947540283,-0.00008299999899463728,0.4257409870624542
1788107651256996400,7.212996337890625,2.275162935256958,-0.013962999917566776,0.40271198749542236
1788107651267071700,7.22307177734375,1.9492180347442627,-0.0617309994995594,0.35882899165153503
1788107651277166300,7.233166259765625,1.4260629415512085,-0.08037000149488449,0.35310098528862
1788107651287252500,7.24325244140625,0.6973339915275574,-0.09561699628829956,0.3575659990310669
1788107651297331500,7.25333154296875,-0.027393000200390816,-0.04345100000500679,0.11922500282526016
1788107651307417600,7.26341748046875,-0.5113840103149414,-0.02106199972331524,-0.27652499079704285
1788107651317504800,7.2735048828125,-0.833965003490448,-0.11928100138902664,-0.4547800123691559
1788107651327584000,7.283583984375,-0.9911689758300781,-0.21709099411964417,-0.4937190115451813
1788107651337672400,7.29367236328125,-1.0385669469833374,-0.2546199858188629,-0.4507650136947632
1788107651347746800,7.303746826171875,-1.0153499841690063,-0.28791001439094543,-0.5382500290870667
1788107651357835500,7.31383544921875,-0.6603990197181702,-0.34639400243759155,-0.44582599401474
1788107651367926500,7.323926513671875,-0.26599299907684326,-0.5040069818496704,-0.3547019958496094
1788107651378014700,7.3340146484375,-0.027991000562906265,-0.574213981628418,-0.19585399329662323
1788107651388103400,7.344103515625,0.14620700478553772,-0.6123030185699463,-0.058758001774549484
1788107651398195200,7.3541953125,0.22520600259304047,-0.5789160132408142,-0.18606999516487122
1788107651408278800,7.36427880859375,0.14548200368881226,-0.6292099952697754,-0.4003100097179413
1788107651418367000,7.374366943359375,0.005177000071853399,-0.6018940210342407,-0.5236660242080688
1788107651428455000,7.384454833984375,0.07129699736833572,-0.5348920226097107,-0.6096069812774658
1788107651438544000,7.3945439453125,0.05694499984383583,-0.41787898540496826,-0.47157999873161316
1788107651448626000,7.4046259765625,0.08605899661779404,-0.36584699153900146,-0.11433999985456467
1788107651458717200,7.41471728515625,0.2745929956436157,-0.2045219987630844,0.2192929983139038
1788107651468796400,7.42479638671875,0.5195009708404541,-0.1711830049753189,0.38100001215934753
1788107651478889000,7.434888916015625,0.8258619904518127,-0.11525899916887283,0.617913007736206
1788107651488971500,7.444971435546875,0.9544100165367126,-0.1858370006084442,0.8156909942626953
1788107651499059000,7.455058837890625,0.9510459899902344,-0.21818099915981293,1.1043740510940552
1788107651509151200,7.465151123046875,0.6037529706954956,-0.19431400299072266,1.3381240367889404
1788107651519237400,7.4752373046875,0.21226200461387634,-0.07158800214529037,1.143530011177063
1788107651529312800,7.485312744140625,-0.4256240129470825,0.046362001448869705,0.5827069878578186
1788107651539397400,7.4953974609375,-1.0368030071258545,-0.07316400110721588,0.04507699981331825
1788107651549471700,7.5054716796875,-1.4834400415420532,-0.1219319999217987,-0.258882999420166
1788107651559558700,7.51555859375,-1.5201900005340576,-0.3242349922657013,-0.28156399726867676
1788107651569643000,7.52564306640625,-1.0544589757919312,-0.5375570058822632,-0.33879101276397705
1788107651579725600,7.5357255859375,-0.32436099648475647,-0.7797960042953491,-0.20536300539970398
1788107651589805600,7.5458056640625,0.48229798674583435,-0.8716239929199219,-0.025224000215530396
1788107651599893800,7.555893798828125,1.008618950843811,-0.915215015411377,0.0630130022764206
1788107651609974300,7.565974365234375,1.1515029668807983,-0.9595350027084351,0.05540899932384491
1788107651620059000,7.576058837890625,0.8719040155410767,-0.9768999814987183,-0.12523500621318817
1788107651630146800,7.586146728515625,0.21629300713539124,-0.8996649980545044,-0.44403699040412903
1788107651640228900,7.596228759765625,-0.6196110248565674,-0.7882270216941833,-0.7097409963607788
1788107651650312200,7.606312255859375,-1.2610770463943481,-0.7683730125427246,-0.7876219749450684
1788107651660397300,7.616397216796875,-1.4641590118408203,-0.695635974407196,-0.6219320297241211
1788107651670485200,7.6264853515625,-1.1396839618682861,-0.7210320234298706,-0.26260700821876526
1788107651680577000,7.636576904296875,-0.4226570129394531,-0.6902049779891968,-0.03666900098323822
1788107651690655000,7.646655029296875,0.38522499799728394,-0.7837070226669312,0.15892300009727478
1788107651700742100,7.6567421875,1.061297059059143,-0.9103839993476868,0.43227899074554443
1788107651710826500,7.666826416015625,1.476904034614563,-1.0505239963531494,0.7464920282363892
1788107651720928000,7.676927978515625,1.3730080127716064,-1.0236690044403076,0.9914000034332275
1788107651731014100,7.68701416015625,0.9455689787864685,-1.0669139623641968,0.9939990043640137
1788107651741105700,7.697105712890625,0.35983601212501526,-0.921068012714386,0.7126370072364807
1788107651751195000,7.70719482421875,-0.422991007566452,-0.834526002407074,0.2663699984550476
1788107651761276400,7.7172763671875,-1.1308799982070923,-0.8155810236930847,-0.2758910059928894
1788107651771362300,7.7273623046875,-1.7654290199279785,-0.6301400065422058,-0.6639919877052307
1788107651781446400,7.7374462890625,-2.240854024887085,-0.7301849722862244,-0.5711899995803833
1788107651791533800,7.747533935546875,-2.14267897605896,-0.8023539781570435,-0.15285900235176086
1788107651801632800,7.7576328125,-1.537654995918274,-0.890330970287323,0.17349499464035034
1788107651811728400,7.767728271484375,-0.6126070022583008,-0.9241600036621094,0.32804399728775024
1788107651821815300,7.777815185546875,0.19208799302577972,-0.8874379992485046,0.17059199512004852
1788107651831903200,7.7879033203125,0.4157409965991974,-0.8923630118370056,-0.012861999683082104
1788107651841990100,7.797990234375,0.18840600550174713,-0.8246279954910278,-0.11722700297832489
1788107651852082400,7.80808251953125,-0.32857298851013184,-0.7049130201339722,-0.19798199832439423
1788107651862176300,7.81817626953125,-0.9199709892272949,-0.5897780060768127,-0.2299399971961975
1788107651872265700,7.828265625,-1.15658700466156,-0.49860599637031555,-0.1973399966955185
1788107651882355500,7.83835546875,-1.1210479736328125,-0.4851759970188141,-0.19192899763584137
1788107651892447500,7.848447509765625,-0.7587149739265442,-0.4551520049571991,-0.18695400655269623
1788107651902537500,7.858537353515625,-0.23013600707054138,-0.49661800265312195,-0.06747599691152573
1788107651912623600,7.86862353515625,0.4177579879760742,-0.5111179947853088,0.1372310072183609
1788107651922715400,7.87871533203125,0.956616997718811,-0.38243499398231506,0.46963199973106384
1788107651932804900,7.888804931640625,1.2587380409240723,-0.3407520055770874,0.7797629833221436
1788107651942894600,7.89889453125,1.3192440271377563,-0.26614999771118164,0.9582089781761169
1788107651952979200,7.908979248046875,1.085042953491211,-0.2093539983034134,0.9409480094909668
1788107651963064800,7.91906494140625,0.7223269939422607,-0.03455200046300888,0.625229001045227
1788107651973153300,7.9291533203125,0.0842519998550415,0.1394059956073761,0.24525299668312073
1788107651983241500,7.939241455078125,-0.7176100015640259,0.26114198565483093,-0.08390200138092041
1788107651993320200,7.9493203125,-1.2431249618530273,0.4092920124530792,-0.32732799649238586
1788107652003411700,7.95941162109375,-1.4732849597930908,0.470892995595932,-0.299344003200531
1788107652013497000,7.9694970703125,-1.1186720132827759,0.4740790128707886,-0.08685000240802765
1788107652023586600,7.979586669921875,-0.5620570182800293,0.30974501371383667,0.3198460042476654
1788107652033674200,7.98967431640625,0.24112699925899506,0.1901330053806305,0.6810740232467651
1788107652043764200,7.99976416015625,1.085729956626892,-0.020275000482797623,1.0598859786987305
1788107652053848600,8.0098486328125,1.8266119956970215,-0.17810200154781342,1.3111480474472046
1788107652063940400,8.0199404296875,2.2042129039764404,-0.4041909873485565,1.3226029872894287
1788107652074025000,8.03002490234375,2.2550439834594727,-0.5097500085830688,1.2285280227661133
1788107652084114200,8.0401142578125,1.8066619634628296,-0.5432890057563782,0.9253010153770447
1788107652094205200,8.050205078125,1.183609962463379,-0.68436199426651,0.7258430123329163
1788107652104298800,8.060298828125,0.6027569770812988,-0.7572199702262878,0.8029710054397583
1788107652114381300,8.07038134765625,0.21796000003814697,-0.7562819719314575,0.9275029897689819
1788107652124525300,8.080525390625,0.21428599953651428,-0.7525830268859863,1.0744129419326782
1788107652134652700,8.090652587890625,0.36447298526763916,-0.8624749779701233,1.3239109516143799
1788107652144740900,8.100740966796875,0.5171549916267395,-0.9839230179786682,1.296597957611084
1788107652154832100,8.11083203125,0.6693810224533081,-1.1228699684143066,1.3377879858016968
1788107652164920000,8.120920166015624,0.8006420135498047,-1.2289539575576782,1.3666690587997437
1788107652175014000,8.131013916015625,0.750495970249176,-1.3659939765930176,1.3634480237960815
1788107652185101000,8.14110107421875,0.48070600628852844,-1.496279001235962,1.247243046760559
1788107652195190500,8.1511904296875,0.2500059902667999,-1.4777289628982544,1.0329790115356445
1788107652205275100,8.161275146484375,-0.06543699651956558,-1.430906057357788,0.8898270130157471
1788107652215363300,8.17136328125,-0.44447600841522217,-1.3732630014419556,0.8984950184822083
1788107652225441500,8.181441650390624,-0.7282840013504028,-1.37562894821167,0.8764489889144897
1788107652235567400,8.1915673828125,-0.8934000134468079,-1.330494999885559,0.966946005821228
1788107652245653500,8.201653564453125,-0.7296990156173706,-1.3271169662475586,1.0425299406051636
1788107652255739000,8.21173876953125,-0.3761959969997406,-1.301772952079773,1.2817339897155762
1788107652265820700,8.221820556640624,0.23994499444961548,-1.245332956314087,1.4963059425354004
1788107652275908400,8.231908447265624,0.7784870266914368,-1.164209008216858,1.59505295753479
1788107652285992400,8.241992431640625,1.115347981452942,-1.0747660398483276,1.5901440382003784
1788107652296075300,8.2520751953125,1.3089499473571777,-0.9490100145339966,1.5025490522384644
1788107652306157800,8.26215771484375,1.135949969291687,-0.8205209970474243,1.415990948677063
1788107652316244000,8.272243896484374,0.8900629878044128,-0.7091529965400696,1.3272830247879028
1788107652326320000,8.282320068359375,0.5232800245285034,-0.6151149868965149,1.2479469776153564
1788107652336402000,8.29240185546875,0.32541900873184204,-0.4967069923877716,1.1979360580444336
1788107652346492200,8.3024921875,0.28841501474380493,-0.3924959897994995,1.0730140209197998
1788107652356582400,8.31258251953125,0.25744500756263733,-0.2397959977388382,0.9741349816322327
1788107652366668500,8.32266845703125,0.22580499947071075,-0.1887959986925125,1.1041359901428223
1788107652376756000,8.332755859375,0.35893601179122925,-0.14242500066757202,1.270779013633728
1788107652386846200,8.34284619140625,0.5241410136222839,-0.15138399600982666,1.3622889518737793
1788107652396924700,8.352924560546874,0.7395640015602112,-0.2229209989309311,1.5291260480880737
1788107652407007000,8.363007080078125,1.0559049844741821,-0.3923090100288391,1.634181022644043
1788107652417094000,8.373093994140625,1.3681880235671997,-0.44178199768066406,1.5368419885635376
1788107652427181300,8.383181396484375,1.532014012336731,-0.48148998618125916,1.3527640104293823
1788107652437269200,8.393269287109375,1.558516025543213,-0.45299801230430603,1.1082769632339478
1788107652447357000,8.40335693359375,1.3625019788742065,-0.3692629933357239,0.8587599992752075
1788107652457433300,8.413433349609376,1.0443370342254639,-0.2222599983215332,0.613178014755249
1788107652467527200,8.423527099609375,0.7490519881248474,-0.10165400058031082,0.6281070113182068
1788107652477613000,8.433613037109374,0.5300310254096985,-0.12371800094842911,0.7110300064086914
1788107652487703800,8.443703857421875,0.609961986541748,-0.12420400232076645,0.8504170179367065
1788107652497801500,8.453801513671875,0.911270022392273,-0.17540200054645538,0.9999210238456726
1788107652507891700,8.4638916015625,1.221714973449707,-0.2794420123100281,1.107422947883606
1788107652517975000,8.47397509765625,1.6121079921722412,-0.24906599521636963,1.0874730348587036
1788107652528065800,8.484065673828125,1.7672309875488281,-0.2587699890136719,1.0241169929504395
1788107652538154500,8.494154541015625,1.5540440082550049,-0.16870400309562683,0.9404780268669128
1788107652548233000,8.50423291015625,1.0233219861984253,-0.053814999759197235,0.9180290102958679
1788107652558321700,8.51432177734375,0.3584139943122864,0.023990999907255173,0.8560810089111328
1788107652568409900,8.524409912109375,-0.17451000213623047,0.11095400154590607,0.8112750053405762
1788107652578493200,8.5344931640625,-0.5112800002098083,0.16617700457572937,0.9017530083656311
1788107652588581600,8.54458154296875,-0.6998419761657715,0.21526800096035004,0.9823610186576843
1788107652598665500,8.55466552734375,-0.3130599856376648,0.19147799909114838,1.2920589447021484
1788107652608756200,8.564756103515625,0.1055309996008873,0.0760049968957901,1.4342659711837769
1788107652618843000,8.5748427734375,0.4279089868068695,-0.02072400040924549,1.402029037475586
1788107652628932000,8.58493212890625,0.5047450065612793,-0.03427699953317642,1.2609360218048096
1788107652639004400,8.59500439453125,0.2658439874649048,-0.07413200289011002,1.1209909915924072
1788107652649092600,8.605092529296876,-0.06666500121355057,-0.0702119991183281,1.1317579746246338
1788107652659179800,8.6151796875,-0.4893850088119507,-0.15304100513458252,1.209421992301941
1788107652669266200,8.62526611328125,-0.6439939737319946,-0.08780500292778015,1.1426000595092773
1788107652679355100,8.635355224609375,-0.6655510067939758,-0.0677340030670166,1.1719110012054443
1788107652689441800,8.64544189453125,-0.5610449910163879,-0.09467799961566925,1.0981090068817139
1788107652709607700,8.665607666015624,-0.13720999658107758,-0.16116400063037872,0.9721119999885559
1788107652719692800,8.67569287109375,-0.0374159999191761,-0.26719599962234497,1.0682100057601929
1788107652729775600,8.685775634765625,-0.06257399916648865,-0.3326280117034912,1.1291680335998535
1788107652739860500,8.695860595703126,-0.05621900036931038,-0.4075799882411957,1.0274499654769897
1788107652749949700,8.70594970703125,0.025932999327778816,-0.45020899176597595,0.8900669813156128
1788107652760033300,8.716033203125,0.16166900098323822,-0.5006809830665588,0.8766220211982727
1788107652770117600,8.72611767578125,0.15581899881362915,-0.5529530048370361,0.8718529939651489
1788107652780202200,8.7362021484375,0.20457500219345093,-0.5403730273246765,0.916953980922699
1788107652790284000,8.746283935546876,0.19833500683307648,-0.5062479972839355,0.9207590222358704
1788107652810462200,8.766462158203124,-0.051187001168727875,-0.49573999643325806,1.0234479904174805
1788107652820543700,8.776543701171875,-0.21953999996185303,-0.4262099862098694,1.0208990573883057
1788107652830626600,8.78662646484375,-0.36938199400901794,-0.4539859890937805,1.0101970434188843
1788107652840709000,8.796709228515626,-0.46342000365257263,-0.3665739893913269,0.96424800157547
1788107652850801000,8.80680078125,-0.5541070103645325,-0.3682970106601715,0.9074379801750183
1788107652860880600,8.816880615234375,-0.5213249921798706,-0.2789579927921295,0.8244140148162842
1788107652870965000,8.826965087890626,-0.4374150037765503,-0.2714639902114868,0.8185330033302307
1788107652881047800,8.8370478515625,-0.22208400070667267,-0.24802300333976746,0.8484129905700684
1788107652891136000,8.847135986328125,0.01817600056529045,-0.23223400115966797,0.8578060269355774
1788107652901229000,8.85722900390625,0.13657400012016296,-0.2160010039806366,0.7922760248184204
1788107652911320800,8.86732080078125,0.25147300958633423,-0.2555049955844879,0.7303289771080017
1788107652921407700,8.87740771484375,0.33670899271965027,-0.3130820095539093,0.7831730246543884
1788107652931490800,8.88749072265625,0.4371280074119568,-0.3584260046482086,0.7659270167350769
1788107652941582300,8.897582275390626,0.542497992515564,-0.43276700377464294,0.8028219938278198
1788107652951669200,8.907669189453125,0.7072229981422424,-0.4506779909133911,0.7925559878349304
1788107652961761300,8.91776123046875,0.7099090218544006,-0.5063109993934631,0.8401219844818115
1788107652971845600,8.927845703125,0.7965379953384399,-0.46170198917388916,0.7418109774589539
1788107652981939000,8.93793896484375,0.6066160202026367,-0.4423910081386566,0.6207699775695801
1788107652992022800,8.948022705078126,0.18153700232505798,-0.33509698510169983,0.49201700091362
1788107653002118700,8.95811865234375,-0.2756649851799011,-0.13332200050354004,0.3267210125923157
1788107653012210700,8.968210693359374,-0.6745889782905579,0.024393999949097633,0.11611100286245346
1788107653022302000,8.978302001953125,-1.025197982788086,0.17357799410820007,-0.1331470012664795
1788107653032383200,8.98838330078125,-1.2190459966659546,0.25632399320602417,-0.3394699990749359
1788107653042475300,8.998475341796874,-1.1380720138549805,0.2844040095806122,-0.46829599142074585
1788107653052562200,9.008562255859376,-0.8683220148086548,0.22680799663066864,-0.37975001335144043
1788107653062653200,9.018653076171875,-0.34062299132347107,0.2482910007238388,-0.2259099930524826
1788107653072733700,9.028733642578125,0.22257100045681,0.22039499878883362,-0.0675709992647171
1788107653082825700,9.03882568359375,0.6719229817390442,0.11596199870109558,0.11166799813508987
1788107653092906200,9.04890625,1.0451730489730835,0.1329050064086914,0.09513399749994278
1788107653102998300,9.058998291015625,1.1679610013961792,0.20087699592113495,0.0973069965839386
1788107653113081600,9.06908154296875,1.1570080518722534,0.2637310028076172,0.0689300000667572
1788107653123174000,9.079173828125,1.0375460386276245,0.3704639971256256,0.1172880008816719
1788107653133260500,9.089260498046874,0.742576003074646,0.45237401127815247,0.2131119966506958
1788107653143348500,9.099348388671874,0.45644599199295044,0.5526189804077148,0.3385069966316223
1788107653153432000,9.10943212890625,0.40477699041366577,0.6184669733047485,0.42585399746894836
1788107653163528400,9.119528564453125,0.5668209791183472,0.6338610053062439,0.5051050186157227
1788107653173617200,9.1296171875,0.8293020129203796,0.5727890133857727,0.5762889981269836
1788107653183710000,9.1397099609375,1.1855360269546509,0.5385860204696655,0.706017017364502
1788107653193797400,9.14979736328125,1.6685420274734497,0.5035510063171387,0.9877399802207947
1788107653203886300,9.15988623046875,1.9584519863128662,0.43407899141311646,1.3230290412902832
1788107653213977900,9.169977783203125,1.9714210033416748,0.31006500124931335,1.631322979927063
1788107653224065300,9.180065185546875,1.8219059705734253,0.2944830060005188,1.657876968383789
1788107653234156800,9.19015673828125,1.5856499671936035,0.2490130066871643,1.5465739965438843
1788107653244246800,9.200246826171876,1.270907998085022,0.2422190010547638,1.2629430294036865
1788107653254328800,9.210328857421874,0.7392799854278564,0.19044999778270721,1.0146009922027588
1788107653264419600,9.220419677734375,0.22482599318027496,0.1558140069246292,0.7895069718360901
1788107653274499800,9.230499755859375,-0.08375799655914307,0.14678099751472473,0.47236600518226624
1788107653284590600,9.240590576171876,-0.27056100964546204,0.03833400085568428,0.4564569890499115
1788107653294675500,9.250675537109375,-0.21533100306987762,-0.05581799894571304,0.39537298679351807
1788107653304764400,9.260764404296875,-0.16617600619792938,-0.28005900979042053,0.4424780011177063
1788107653314851000,9.27085107421875,0.037029001861810684,-0.504285991191864,0.5719649791717529
1788107653324935000,9.280934814453126,0.022796999663114548,-0.6446499824523926,0.639835000038147
1788107653335016200,9.29101611328125,-0.09193799644708633,-0.8468080163002014,0.7141010165214539
1788107653345110300,9.3011103515625,-0.2848309874534607,-1.0132689476013184,0.6626430153846741
1788107653355195000,9.31119482421875,-0.5771849751472473,-1.2443009614944458,0.7074350118637085
1788107653365295600,9.321295654296875,-0.8643710017204285,-1.40932297706604,0.6607679724693298
1788107653375380200,9.331380126953125,-1.127958059310913,-1.5551780462265015,0.5220680236816406
1788107653385487600,9.341487548828125,-1.2551729679107666,-1.7582299709320068,0.3828960061073303
1788107653395573000,9.351572998046874,-1.180907964706421,-1.8662320375442505,0.2531520128250122
1788107653405667800,9.361667724609376,-1.2408430576324463,-1.9960319995880127,0.14290200173854828
1788107653415752200,9.371752197265625,-1.3054039478302002,-2.0168700218200684,0.07934500277042389
1788107653425844000,9.381843994140626,-1.5197629928588867,-1.9747560024261475,-0.12073300033807755
1788107653435932200,9.39193212890625,-1.9562549591064453,-1.792991042137146,-0.24714399874210358
1788107653446017300,9.402017333984375,-2.2983028888702393,-1.645372986793518,-0.3771600127220154
1788107653456100600,9.4121005859375,-2.6923320293426514,-1.4656089544296265,-0.4239729940891266
1788107653466192000,9.42219189453125,-2.9326529502868652,-1.2960699796676636,-0.43452998995780945
1788107653476277000,9.432277099609376,-2.9925410747528076,-1.227512001991272,-0.243026003241539
1788107653486361600,9.442361572265625,-2.734086036682129,-1.2753620147705078,0.13021300733089447
1788107653496441000,9.452441162109375,-2.215682029724121,-1.328637957572937,0.46031999588012695
1788107653506527200,9.46252734375,-1.6490249633789062,-1.4268889427185059,0.513467013835907
1788107653516608000,9.47260791015625,-0.8754670023918152,-1.3319950103759766,0.24627000093460083
1788107653526694000,9.48269384765625,-0.1443679928779602,-1.195261001586914,0.1867859959602356
1788107653536779300,9.492779296875,-0.07261999696493149,-1.0265040397644043,-0.04268699884414673
1788107653546861000,9.502861083984374,-0.14741000533103943,-1.1331579685211182,0.07785400003194809
1788107653556937500,9.5129375,-0.3018819987773895,-0.6629340052604675,-0.42561501264572144
1788107653567020800,9.523020751953124,-1.3917380571365356,-0.7061499953269958,-0.6673250198364258
1788107653577097200,9.53309716796875,-2.037424087524414,-0.6191869974136353,-0.2022559940814972
1788107653587185000,9.543184814453125,-2.9143929481506348,-0.45869898796081543,-0.13700799643993378
1788107653597269000,9.55326904296875,-3.011251926422119,-0.4472990036010742,0.42770498991012573
1788107653607349200,9.563349365234375,-1.8274600505828857,-0.220210000872612,0.8970549702644348
1788107653617438000,9.57343798828125,-0.4265489876270294,-0.21475300192832947,1.185291051864624
1788107653627531500,9.583531494140624,1.3330049514770508,0.007984999567270279,1.2885359525680542
1788107653637613600,9.593613525390625,2.7654149532318115,0.10363700240850449,1.2812910079956055
1788107653647699000,9.603698974609374,4.082775115966797,0.06883999705314636,1.4644500017166138
1788107653657779500,9.613779541015624,5.077217102050781,0.3318980038166046,1.4802500009536743
1788107653667863300,9.62386328125,5.5299577713012695,0.5403980016708374,1.4411729574203491
1788107653677947100,9.633947021484374,5.503312110900879,0.7190459966659546,1.3484879732131958
1788107653688039700,9.644039794921875,5.035146236419678,0.7733910083770752,1.4019869565963745
1788107653698124500,9.65412451171875,4.30429220199585,1.0328660011291504,1.1587170362472534
1788107653708220400,9.664220458984374,3.642047882080078,1.0549659729003906,1.0523279905319214
1788107653718297600,9.674297607421876,2.4161629676818848,1.0199379920959473,0.6440209746360779
1788107653728388400,9.684388427734374,1.5570160150527954,1.0169850587844849,0.5319669842720032
1788107653738470100,9.69447021484375,0.8615930080413818,0.9690470099449158,0.38624200224876404
1788107653748561700,9.704561767578125,0.6203550100326538,0.891776978969574,0.22053800523281097
1788107653758648000,9.71464794921875,0.2847200036048889,0.716804027557373,0.0076950001530349255
1788107653768728000,9.72472802734375,0.035805001854896545,0.43220698833465576,0.14877599477767944
1788107653778807000,9.73480712890625,0.4049069881439209,0.4029819965362549,0.1878799945116043
1788107653788891100,9.74489111328125,0.395330011844635,0.04062899947166443,0.5199270248413086
1788107653798969900,9.754969970703126,0.025848999619483948,-0.10776100307703018,0.788025975227356
1788107653809058800,9.765058837890624,0.9336900115013123,-0.13152100145816803,0.7153139710426331
1788107653819149600,9.775149658203125,0.36542901396751404,-0.5935699939727783,0.08383200317621231
1788107653829241600,9.78524169921875,0.34032300114631653,-0.5740079879760742,-0.1870409995317459
1788107653839323100,9.7953232421875,-0.35518699884414673,-0.6883630156517029,-0.29990100860595703
1788107653849407500,9.805407470703125,-1.1338809728622437,-0.7706300020217896,-0.6079319715499878
1788107653859492000,9.8154921875,-1.5516209602355957,-0.770654022693634,-1.060394048690796
1788107653869584100,9.825584228515625,-1.4323879480361938,-0.8639330267906189,-1.0426219701766968
1788107653879670800,9.8356708984375,-1.1323779821395874,-0.9610069990158081,-0.49598100781440735
1788107653889761000,9.845760986328125,-0.8291590213775635,-1.0259649753570557,0.04232700169086456
1788107653899843600,9.855843505859376,-0.1675339937210083,-1.0338640213012695,0.4623959958553314
1788107653909952800,9.865952880859375,0.1854110062122345,-1.182770013809204,0.9071909785270691
1788107653920032300,9.8760322265625,0.6425560116767883,-1.1949529647827148,0.9659839868545532
1788107653930122200,9.886122314453125,0.8337929844856262,-1.3360400199890137,1.037984013557434
1788107653940204800,9.896204833984376,1.2914780378341675,-1.2788280248641968,0.9657559990882874
1788107653950291500,9.90629150390625,1.3010259866714478,-1.2470229864120483,0.6758340001106262
1788107653960375600,9.91637548828125,1.0748469829559326,-1.0034250020980835,0.5224019885063171
1788107653980553200,9.93655322265625,-0.7339239716529846,-0.6510900259017944,0.01722400076687336
1788107653990638600,9.946638671875,-1.5206880569458008,-0.43036699295043945,-0.12136100232601166
1788107654000717600,9.956717529296874,-2.090857982635498,-0.4397439956665039,-0.12041699886322021
1788107654010813700,9.966813720703126,-2.074291944503784,-0.43009400367736816,-0.12267299741506577
1788107654020901400,9.9769013671875,-1.7234770059585571,-0.5224170088768005,-0.16803599894046783
1788107654030994700,9.98699462890625,-1.2681690454483032,-0.7432159781455994,-0.2853209972381592
1788107654041085000,9.9970849609375,-0.8042029738426208,-0.9723280072212219,-0.4439629912376404
1788107654051177500,10.007177490234374,-0.3949039876461029,-1.2261120080947876,-0.41762998700141907
1788107654061263400,10.017263427734376,0.15730099380016327,-1.5568569898605347,-0.45598000288009644
1788107654071353300,10.027353271484374,0.7521780133247375,-1.7401219606399536,-0.470210999250412
1788107654081442800,10.03744287109375,0.9982900023460388,-1.9128309488296509,-0.398497998714447
1788107654091526000,10.04752587890625,1.2067960500717163,-1.9854730367660522,-0.44250500202178955
1788107654101620000,10.057619873046875,1.31489896774292,-2.0990309715270996,-0.38791999220848083
1788107654111708400,10.06770849609375,1.3431370258331299,-2.102524995803833,-0.21310999989509583
1788107654121806800,10.077806884765625,1.4865909814834595,-2.0545780658721924,0.10674700140953064
1788107654131893200,10.087893310546875,1.7138069868087769,-1.9788659811019897,0.44905799627304077
1788107654141983500,10.0979833984375,1.9465880393981934,-1.8697140216827393,0.9420440196990967
1788107654152068400,10.108068359375,2.127068042755127,-1.675318956375122,1.379593014717102
1788107654162164500,10.11816455078125,2.103200912475586,-1.3793599605560303,1.6288540363311768
1788107654172252000,10.128251953125,1.9606560468673706,-1.1169339418411255,1.870553970336914
1788107654182344700,10.1383447265625,1.838479995727539,-0.8317450284957886,2.069119930267334
1788107654192428300,10.14842822265625,1.8176310062408447,-0.5998560190200806,2.191318988800049
1788107654202521300,10.158521240234375,2.000370979309082,-0.5170530080795288,2.2115509510040283
1788107654212606500,10.1686064453125,2.436461925506592,-0.2425519973039627,2.124562978744507
1788107654222690000,10.17868994140625,2.7323999404907227,0.043331000953912735,2.112009048461914
1788107654232780300,10.1887802734375,2.884722948074341,0.2799319922924042,2.131861925125122
1788107654242871300,10.198871337890624,2.545614004135132,0.5963330268859863,1.980376958847046
1788107654252955000,10.208954833984375,2.02177095413208,0.8255929946899414,1.764646053314209
1788107654263047700,10.219047607421874,1.3833149671554565,0.9347310066223145,1.7688419818878174
1788107654273136400,10.229136474609374,0.9368410110473633,1.1273349523544312,1.6807060241699219
1788107654283220700,10.239220703125,0.656853973865509,1.2062170505523682,1.6489770412445068
1788107654293300700,10.24930078125,0.46695399284362793,1.3424960374832153,1.5608320236206055
1788107654303392500,10.259392578125,0.23186899721622467,1.558640956878662,0.9754319787025452
1788107654313478000,10.269477783203126,-0.15768900513648987,1.7959330081939697,0.2182140052318573
1788107654323573800,10.27957373046875,-0.6670960187911987,2.219357967376709,-0.5652480125427246
1788107654333659400,10.289659423828125,-0.833184003829956,2.5001020431518555,-0.8527430295944214
1788107654343751200,10.299751220703126,-0.6895260214805603,2.773677110671997,-1.1481289863586426
1788107654353842200,10.30984228515625,-0.06023700162768364,2.8640589714050293,-0.9223020076751709
1788107654363941400,10.31994140625,0.6284809708595276,2.873100996017456,-0.6794989705085754
1788107654374022000,10.33002197265625,1.6938890218734741,2.843190908432007,-0.18026499450206757
1788107654384114700,10.34011474609375,3.1214699745178223,2.5897281169891357,0.522022008895874
1788107654394198300,10.3501982421875,4.58798885345459,2.365535020828247,1.0494810342788696
1788107654404291800,10.360291748046874,5.588078022003174,2.0766348838806152,1.0281569957733154
1788107654414374700,10.370374755859375,6.131711959838867,1.711555004119873,0.7870079874992371
1788107654424520700,10.380520751953124,5.601840019226074,1.3789230585098267,0.39505401253700256
1788107654434607400,10.390607421875,5.145668029785156,1.0392290353775024,0.4545370042324066
1788107654444687400,10.400687255859374,4.001418113708496,0.6798750162124634,0.2220669984817505
1788107654454772700,10.410772705078125,2.8333470821380615,0.3969149887561798,0.14815400540828705
1788107654464859400,10.420859375,1.6637849807739258,0.0004870000120718032,0.10994800180196762
1788107654474944500,10.430944580078124,0.8155660033226013,-0.3598119914531708,0.04849399998784065
1788107654485022200,10.441022216796876,0.32988300919532776,-0.5256040096282959,-0.21459800004959106
1788107654495110000,10.45110986328125,-0.3016360104084015,-0.8056250214576721,-0.49898698925971985
1788107654505201200,10.461201171875,-0.9104589819908142,-1.0042120218276978,-0.456479012966156
1788107654515289600,10.47128955078125,-1.296800971031189,-1.0926569700241089,-0.15205000340938568
1788107654525375200,10.481375244140626,-1.8453060388565063,-1.1444770097732544,-0.03023100085556507
1788107654535503400,10.49150341796875,-2.4960598945617676,-1.1861519813537598,-0.17295099794864655
1788107654545595400,10.501595458984376,-3.4015190601348877,-1.2588189840316772,-0.3259260058403015
1788107654555676400,10.511676513671874,-4.508224964141846,-1.382612943649292,-0.4462760090827942
1788107654565761000,10.521760986328125,-5.502862930297852,-1.6287620067596436,-0.2699719965457916
1788107654575850000,10.53185009765625,-6.120699882507324,-1.831164002418518,-0.14015400409698486
1788107654585938700,10.541938720703126,-6.2231950759887695,-2.021984100341797,-0.25896599888801575
1788107654596014000,10.55201416015625,-6.001585960388184,-2.3066489696502686,-0.25436800718307495
1788107654606108000,10.56210791015625,-5.443371772766113,-2.5124869346618652,-0.25012901425361633
1788107654616196000,10.572196044921874,-4.599102973937988,-2.862421989440918,-0.09069100022315979
1788107654626274300,10.5822744140625,-3.8397769927978516,-3.0438098907470703,-0.1145320013165474
1788107654636354600,10.5923544921875,-3.3604350090026855,-3.3116979598999023,-0.10040800273418427
1788107654646441500,10.60244140625,-3.309792995452881,-3.5524380207061768,0.12384399771690369
1788107654656520400,10.6125205078125,-3.6555020809173584,-3.7351698875427246,0.19267000257968903
1788107654666601500,10.6226015625,-4.261007785797119,-3.8606369495391846,0.21597999334335327
1788107654676684300,10.632684326171875,-4.876678943634033,-4.003044128417969,0.29334399104118347
1788107654686767400,10.642767333984375,-5.057666778564453,-4.026390075683594,0.44237399101257324
1788107654696851700,10.652851806640625,-4.831697940826416,-4.109548091888428,0.7023169994354248
1788107654706936800,10.662936767578126,-4.672723770141602,-4.2012038230896,0.7145789861679077
1788107654717022500,10.6730224609375,-4.62251615524292,-4.279358863830566,0.6418600082397461
1788107654727118300,10.683118408203125,-4.9554219245910645,-4.328268051147461,0.5062850117683411
1788107654737198600,10.693198486328125,-5.245619773864746,-4.395260810852051,0.7734379768371582
1788107654747286300,10.703286376953125,-5.55702018737793,-4.306447982788086,1.0997669696807861
1788107654757367300,10.7133671875,-5.983495235443115,-4.18747091293335,1.402204990386963
1788107654767458300,10.723458251953126,-6.417095184326172,-4.0287909507751465,1.1177289485931396
1788107654777551000,10.733551025390625,-7.062847137451172,-3.8753669261932373,0.5464059710502625
1788107654787643400,10.743643310546876,-7.941608905792236,-3.7759790420532227,0.06441900134086609
1788107654797729500,10.7537294921875,-8.652363777160645,-3.657809019088745,-0.047040000557899475
1788107654807814400,10.763814453125,-8.89212417602539,-3.4567670822143555,0.026384999975562096
1788107654817900000,10.773900146484374,-8.363763809204102,-3.031588077545166,0.02692900039255619
1788107654827982300,10.783982421875,-7.767786026000977,-3.256258964538574,0.34077998995780945
1788107654848155600,10.80415576171875,-6.866189002990723,-2.22662091255188,-0.7090960144996643
1788107654858248200,10.814248291015625,-3.0920639038085938,-2.3370490074157715,-0.9385889768600464
1788107654868335600,10.824335693359375,-3.452392101287842,-1.9384900331497192,-1.709157943725586
1788107654878416600,10.834416748046875,-1.8671740293502808,-0.6075209975242615,-1.6805670261383057
1788107654888505300,10.84450537109375,-0.2078859955072403,0.8545100092887878,-1.6767899990081787
1788107654898591000,10.854591064453125,0.32232600450515747,2.2064030170440674,-1.6772500276565552
1788107654908685300,10.864685302734374,1.8217350244522095,4.053512096405029,-1.0665520429611206
1788107654918769200,10.87476904296875,4.116897106170654,5.559278964996338,-0.35993799567222595
1788107654928860400,10.8848603515625,6.362520217895508,6.9065327644348145,-0.7371640205383301
1788107654938943700,10.89494384765625,8.574690818786621,8.336668968200684,-1.2761460542678833
1788107654949026800,10.90502685546875,9.994945526123047,9.67442512512207,-2.0931200981140137
1788107654959118000,10.9151181640625,10.629755020141602,10.390687942504883,-2.8664491176605225
1788107654969203200,10.925203125,11.299677848815918,10.550278663635254,-2.9659340381622314
1788107654979288800,10.935288818359375,11.761425971984863,10.040531158447266,-2.475588083267212
1788107654989380600,10.945380615234376,12.40349292755127,8.989303588867188,-1.7065989971160889
1788107654999466800,10.955466796875,13.285287857055664,7.441366195678711,-1.0032470226287842
1788107655009556500,10.965556396484375,14.79499340057373,5.688727855682373,-0.5058349967002869
1788107655019639000,10.97563916015625,16.099742889404297,4.301175117492676,-0.3900740146636963
1788107655029726200,10.985726318359376,16.551616668701172,3.464348077774048,-0.4083769917488098
1788107655039811300,10.995811279296875,15.907625198364258,3.2172439098358154,0.25686800479888916
1788107655049898800,11.005898681640625,14.439784049987793,2.99896502494812,0.9661020040512085
1788107655059982800,11.01598291015625,11.838883399963379,2.789513111114502,1.2228970527648926
1788107655070069200,11.0260693359375,8.556153297424316,2.4925379753112793,1.0770299434661865
1788107655080158500,11.036158447265626,4.893898963928223,2.147181987762451,0.3906869888305664
1788107655090248200,11.046248291015624,1.094519019126892,1.8225090503692627,-0.2718679904937744
1788107655100332300,11.056332275390625,-2.302090883255005,1.4487940073013306,-0.4857800006866455
1788107655110414300,11.066414306640626,-5.168467998504639,0.9066370129585266,-0.4987789988517761
1788107655120501500,11.07650146484375,-7.391593933105469,0.5162749886512756,-0.6788150072097778
1788107655130588000,11.086587890625,-8.645120620727539,0.014450999908149242,-0.7962960004806519
1788107655140678000,11.096677978515626,-9.091401100158691,-0.6618980169296265,-0.806194007396698
1788107655150766300,11.106766357421876,-8.897653579711914,-1.3826760053634644,-0.7520269751548767
1788107655160850400,11.116850341796875,-7.947092056274414,-2.1417291164398193,-0.7731350064277649
1788107655170935000,11.12693505859375,-6.8392109870910645,-2.744281053543091,-0.8115710020065308
1788107655181016000,11.13701611328125,-5.8755879402160645,-3.280930995941162,-1.117130994796753
1788107655191104500,11.1471044921875,-4.943595886230469,-3.64582896232605,-1.1261470317840576
1788107655201197800,11.15719775390625,-4.6388630867004395,-3.9320549964904785,-1.2901450395584106
1788107655211284000,11.167283935546875,-4.397407054901123,-4.025383949279785,-1.405743956565857
1788107655221370600,11.17737060546875,-4.438859939575195,-3.9742400646209717,-1.5512640476226807
1788107655231453400,11.187453369140625,-4.821878910064697,-3.8042080402374268,-1.57218599319458
1788107655241542000,11.1975419921875,-5.574021816253662,-3.5368480682373047,-1.6134109497070312
1788107655251628000,11.2076279296875,-6.231975078582764,-3.1041369438171387,-1.7324210405349731
1788107655261717000,11.217717041015625,-6.446430206298828,-2.7872800827026367,-1.5069350004196167
1788107655271797200,11.22779736328125,-6.247031211853027,-2.3900198936462402,-1.2843979597091675
1788107655281894100,11.23789404296875,-5.636062145233154,-2.0551509857177734,-0.874068021774292
1788107655291974700,11.247974609375,-4.658772945404053,-1.838945984840393,-0.6083580255508423
1788107655302069800,11.25806982421875,-3.6530799865722656,-1.725924015045166,-0.42253899574279785
1788107655312159700,11.26815966796875,-2.261730909347534,-1.701935052871704,-0.022346999496221542
1788107655322254600,11.278254638671875,-0.8359270095825195,-1.6811009645462036,0.13994100689888
1788107655332338400,11.28833837890625,0.32831600308418274,-1.53466796875,0.1353359967470169
1788107655342429200,11.29842919921875,0.9662600159645081,-1.3979239463806152,-0.006796000059694052
1788107655352516400,11.308516357421874,1.0463310480117798,-1.1968799829483032,-0.3649669885635376
1788107655362610700,11.318610595703126,0.6366199851036072,-0.8428239822387695,-0.5485209822654724
1788107655382782200,11.3387822265625,-0.31493300199508667,-0.22046899795532227,-0.636093020439148
1788107655392867000,11.3488671875,-0.5884860157966614,0.176706001162529,-0.8772580027580261
1788107655402947600,11.358947509765626,-0.7656329870223999,0.5429940223693848,-1.0326299667358398
1788107655413036300,11.369036376953124,-0.9397889971733093,0.8711159825325012,-1.1592990159988403
1788107655423122400,11.379122314453125,-0.6198740005493164,1.2410320043563843,-1.1530920267105103
1788107655433204000,11.389203857421874,-0.16304300725460052,1.5135400295257568,-0.7937890291213989
1788107655443288600,11.39928857421875,0.8738960027694702,1.7886769771575928,-0.36823898553848267
1788107655453386800,11.40938671875,2.0452730655670166,2.1085379123687744,-0.15135900676250458
1788107655463481000,11.419481201171875,3.231398105621338,2.4694740772247314,-0.07697200030088425
1788107655473566700,11.429566650390624,4.159214973449707,2.6306838989257812,-0.04719800129532814
1788107655483661800,11.439661865234376,5.143889904022217,2.8208351135253906,-0.11641299724578857
1788107655493748000,11.449748046875,6.193203926086426,2.9579548835754395,-0.13262499868869781
1788107655503835600,11.459835693359375,7.459754943847656,3.117659091949463,-0.03581799939274788
1788107655513927700,11.469927734375,8.577746391296387,3.3101069927215576,-0.193339005112648
1788107655524012300,11.48001220703125,9.400485038757324,3.4677770137786865,-0.47675201296806335
1788107655534090800,11.4900908203125,9.504090309143066,3.482640027999878,-0.7754920125007629
1788107655544179500,11.500179443359375,9.003388404846191,3.4070379734039307,-0.6616269946098328
1788107655554270700,11.510270751953126,8.147603034973145,3.2478129863739014,-0.31069400906562805
1788107655564363800,11.52036376953125,7.279425144195557,3.0370559692382812,-0.0704450011253357
1788107655574445000,11.530445068359375,6.388053894042969,2.7413580417633057,0.16421900689601898
1788107655584537000,11.540537109375,5.501918792724609,2.2853450775146484,0.2856749892234802
1788107655594623000,11.550623046875,4.6403021812438965,1.810966968536377,0.312142014503479
1788107655604714800,11.56071484375,3.8559770584106445,1.1966090202331543,0.36983001232147217
1788107655614797600,11.570797607421875,2.977756977081299,0.6414999961853027,0.48729899525642395
1788107655624890000,11.58089013671875,2.066251039505005,0.049580998718738556,0.689719021320343
1788107655634974200,11.59097412109375,0.8730970025062561,-0.4711430072784424,0.7415379881858826
1788107655645063400,11.6010634765625,-0.40956100821495056,-1.049983024597168,0.786208987236023
1788107655655140400,11.611140380859375,-1.9214290380477905,-1.417145013809204,0.6603749990463257
1788107655665233700,11.621233642578124,-3.425837993621826,-1.7630729675292969,0.3800080120563507
1788107655675317000,11.63131689453125,-4.781752109527588,-2.0656778812408447,0.13680000603199005
1788107655685404400,11.641404296875,-5.822920799255371,-2.256019115447998,-0.05796400085091591
1788107655695487200,11.6514873046875,-6.548941135406494,-2.475069046020508,0.04078499972820282
1788107655705572000,11.661572021484375,-6.925682067871094,-2.776242971420288,0.06907399743795395
1788107655715654400,11.671654296875,-6.949291229248047,-2.8852550983428955,0.0446150004863739
1788107655725740800,11.68174072265625,-6.858473777770996,-3.0594520568847656,-0.09625999629497528
1788107655735831300,11.691831298828125,-6.525743007659912,-3.213599920272827,-0.3268730044364929
1788107655745921800,11.701921875,-6.076047897338867,-3.337167978286743,-0.5110549926757812
1788107655756008000,11.712008056640625,-5.952517032623291,-3.363987922668457,-0.502007007598877
1788107655766091800,11.722091796875,-6.018167972564697,-3.2792270183563232,-0.7341840267181396
1788107655776179700,11.7321796875,-6.13041877746582,-3.0271239280700684,-1.1561739444732666
1788107655786264600,11.7422646484375,-5.916144847869873,-2.7229909896850586,-1.3702290058135986
1788107655796341000,11.752341064453125,-5.095177173614502,-2.4050440788269043,-1.2657569646835327
1788107655806425900,11.76242578125,-4.309397220611572,-2.0829761028289795,-0.9565060138702393
1788107655816504000,11.772504150390626,-3.503983974456787,-1.7583110332489014,-0.6440370082855225
1788107655826591200,11.78259130859375,-2.656053066253662,-1.5172319412231445,-0.2916559875011444
1788107655836672300,11.79267236328125,-1.4043259620666504,-1.299232006072998,-0.0013640000252053142
1788107655846759700,11.802759765625,0.1414490044116974,-1.1065560579299927,0.3283959925174713
1788107655856844500,11.812844482421875,1.7255589962005615,-0.928462028503418,0.4707449972629547
1788107655866929200,11.82292919921875,3.27604603767395,-0.5999360084533691,0.2868120074272156
1788107655877005600,11.833005615234375,4.294619083404541,-0.34878700971603394,0.08314599841833115
1788107655887097000,11.84309716796875,4.677610874176025,0.012237999588251114,-0.14742499589920044
1788107655897178400,11.853178466796875,4.284912109375,0.2682569921016693,-0.2510719895362854
1788107655907271000,11.86327099609375,3.4729130268096924,0.6315979957580566,-0.28290098905563354
1788107655917354200,11.873354248046875,2.367003917694092,0.8368129730224609,-0.2523669898509979
1788107655927442000,11.88344189453125,1.4247360229492188,1.1429840326309204,-0.12394499778747559
1788107655937525200,11.893525146484375,0.8072670102119446,1.3108799457550049,-0.13408100605010986
1788107655947616000,11.903615966796876,0.49380600452423096,1.4491629600524902,-0.3410379886627197
1788107655957694000,11.91369384765625,0.37450098991394043,1.497738003730774,-0.6028429865837097
1788107655967778600,11.923778564453125,0.41180500388145447,1.4840610027313232,-0.7083899974822998
1788107655977860400,11.9338603515625,0.46765899658203125,1.4165730476379395,-0.7542529702186584
1788107655987947500,11.943947509765625,0.49500399827957153,1.363219976425171,-0.6127169728279114
1788107655998033400,11.954033447265624,0.4986270070075989,1.2834320068359375,-0.6132749915122986
1788107656008123400,11.964123291015625,0.4657280147075653,1.1525590419769287,-0.5865129828453064
1788107656018200600,11.97420068359375,0.6044279932975769,0.9965130090713501,-0.5747299790382385
1788107656028293600,11.984293701171875,0.716202974319458,0.9467819929122925,-0.699338972568512
1788107656038372000,11.9943720703125,0.8527060151100159,0.883450984954834,-0.7336810231208801
1788107656048466700,12.004466796875,0.8721989989280701,0.8606470227241516,-0.8779270052909851
1788107656058544000,12.014544189453124,0.7732149958610535,0.8764830231666565,-1.003972053527832
1788107656068635100,12.02463525390625,0.7253620028495789,0.8428109884262085,-1.067788004875183
1788107656078713300,12.03471337890625,0.6906700134277344,0.8855760097503662,-1.0661120414733887
1788107656088805400,12.044805419921875,0.8198660016059875,0.8516119718551636,-1.0497570037841797
1788107656098885400,12.054885498046875,1.1075400114059448,0.6655960083007812,-0.798005998134613
1788107656108972500,12.06497265625,1.4769359827041626,0.5265910029411316,-0.5630800127983093
1788107656119044400,12.07504443359375,1.9738080501556396,0.4029969871044159,-0.31185299158096313
1788107656129138200,12.08513818359375,2.403304100036621,0.4693959951400757,-0.02835099957883358
1788107656139228200,12.095228271484375,2.339247941970825,0.484842985868454,0.1263120025396347
1788107656149307000,12.105306884765625,1.8864150047302246,0.4816510081291199,0.14228099584579468
1788107656159390200,12.11539013671875,1.3816310167312622,0.49699899554252625,0.3794519901275635
1788107656169474600,12.125474609375,0.6359050273895264,0.5333660244941711,0.5277659893035889
1788107656179565300,12.1355654296875,-0.1890459954738617,0.6015740036964417,0.4240890145301819
1788107656189651200,12.145651123046875,-1.030040979385376,0.5875149965286255,0.3616980016231537
1788107656199733000,12.15573291015625,-1.5790040493011475,0.5675650238990784,0.3696869909763336
1788107656209816300,12.16581640625,-1.759192943572998,0.556460976600647,0.24741800129413605
1788107656219892000,12.17589208984375,-1.8149770498275757,0.4938949942588806,0.09466099739074707
1788107656229975800,12.185975830078124,-1.7493220567703247,0.3679090142250061,0.13979999721050262
1788107656240061700,12.196061767578126,-1.6900379657745361,0.3300830125808716,0.35791900753974915
1788107656250150700,12.206150634765624,-1.5001300573349,0.2630099952220917,0.3551979959011078
1788107656260232700,12.216232666015625,-1.3154009580612183,0.1528010070323944,0.12508299946784973
1788107656270324700,12.22632470703125,-1.1280839443206787,0.07587599754333496,-0.0649230033159256
1788107656280399600,12.236399658203124,-1.053225040435791,-0.09264899790287018,-0.13200800120830536
1788107656290492400,12.246492431640625,-0.7546330094337463,-0.2132139950990677,-0.044599998742341995
1788107656300615200,12.256615234375,-0.16820700466632843,-0.2751240134239197,-0.0009710000013001263
1788107656310704000,12.2667041015625,0.18154799938201904,-0.315091997385025,-0.06254299730062485
1788107656320792000,12.2767919921875,0.3599030077457428,-0.27924299240112305,-0.1656160056591034
1788107656330887400,12.286887451171875,0.0658940002322197,-0.17617499828338623,-0.2215850055217743
1788107656340970500,12.296970458984376,-0.4563809931278229,-0.09744399785995483,-0.36510398983955383
1788107656351062500,12.3070625,-0.8115630149841309,0.003978000022470951,-0.4342229962348938
1788107656361151000,12.31715087890625,-1.2996540069580078,0.09805099666118622,-0.48263099789619446
1788107656371246300,12.327246337890625,-1.5897259712219238,0.2821600139141083,-0.5824580192565918
1788107656381330700,12.33733056640625,-1.6838020086288452,0.3653680086135864,-0.41692599654197693
1788107656391420400,12.34742041015625,-1.6589269638061523,0.34451499581336975,-0.12849299609661102
1788107656401514500,12.357514404296875,-1.3772079944610596,0.354779988527298,0.1022460013628006
1788107656411619800,12.367619873046875,-0.8894810080528259,0.3287850022315979,0.2808780074119568
1788107656421713400,12.37771337890625,-0.35078999400138855,0.3661639988422394,0.37717700004577637
1788107656431802600,12.387802734375,0.012842999771237373,0.37123799324035645,0.5300099849700928
1788107656441893600,12.3978935546875,0.16636799275875092,0.34023499488830566,0.601311981678009
1788107656451977700,12.407977783203124,0.22146999835968018,0.43977099657058716,0.46587100625038147
1788107656462074600,12.41807470703125,-0.08370500057935715,0.5043389797210693,0.2605170011520386
1788107656472160800,12.428160888671876,-0.6203529834747314,0.6519650220870972,-0.0016199999954551458
1788107656482250000,12.43825,-1.0856859683990479,0.7066140174865723,0.07442499697208405
1788107656492344600,12.448344482421875,-1.4656859636306763,0.8343579769134521,0.1525299996137619
1788107656502431700,12.458431640625,-1.5020309686660767,0.8765649795532227,0.2806349992752075
1788107656512555800,12.4685556640625,-1.4173589944839478,0.7384790182113647,0.43613800406455994
1788107656522640600,12.478640625,-0.943323016166687,0.667972981929779,0.5272830128669739
1788107656532731600,12.488731689453125,-0.4390830099582672,0.5109990239143372,0.7163130044937134
1788107656542812700,12.498812744140626,-0.002432999899610877,0.40595299005508423,0.756060004234314
1788107656552903200,12.508903076171874,0.510246992111206,0.3096800148487091,0.7314580082893372
1788107656562990300,12.518990234375,0.8731889724731445,0.3011299967765808,0.6275370121002197
1788107656573085400,12.52908544921875,0.7333130240440369,0.31255200505256653,0.49365100264549255
1788107656583174000,12.539173828125,0.5910940170288086,0.27145498991012573,0.5730720162391663
1788107656593271800,12.549271728515626,0.3148469924926758,0.22026599943637848,0.7171909809112549
1788107656603357200,12.559357177734375,0.11564099788665771,0.2453719973564148,0.7661449909210205
1788107656613449200,12.56944921875,-0.0974849984049797,0.3515320122241974,0.6893180012702942
1788107656623534600,12.57953466796875,-0.5487650036811829,0.3534240126609802,0.7812290191650391
1788107656633626000,12.589626220703124,-0.9210289716720581,0.37188199162483215,0.928354024887085
1788107656643716400,12.59971630859375,-1.0028630495071411,0.43901699781417847,0.967848002910614
1788107656653807900,12.609807861328125,-1.060412049293518,0.4786359965801239,1.1238449811935425
1788107656663897000,12.61989697265625,-1.030305027961731,0.5466669797897339,1.1532419919967651
1788107656673986600,12.629986572265626,-0.9298679828643799,0.5621060132980347,1.0908279418945312
1788107656684077800,12.640077880859375,-0.8657559752464294,0.4492650032043457,1.0714340209960938
1788107656694177300,12.65017724609375,-0.8340250253677368,0.3741709887981415,1.1245440244674683
1788107656704272400,12.6602724609375,-0.7413480281829834,0.3098430037498474,1.1965550184249878
1788107656714363600,12.67036376953125,-0.7192239761352539,0.2378160059452057,1.163390040397644
1788107656724443400,12.680443359375,-0.6719909906387329,0.171751007437706,1.146744966506958
1788107656734534000,12.690533935546876,-0.6256710290908813,0.07571099698543549,1.1120229959487915
1788107656744618800,12.70061865234375,-0.656141996383667,0.08410800248384476,1.1451139450073242
1788107656754712600,12.710712646484374,-0.6489130258560181,0.14067299664020538,1.0326770544052124
1788107656764799500,12.720799560546874,-0.6894649863243103,0.1813659965991974,0.8963829874992371
1788107656774884600,12.730884521484375,-0.7950590252876282,0.20943699777126312,0.7887489795684814
1788107656784966400,12.74096630859375,-0.8405719995498657,0.2204889953136444,0.881866991519928
1788107656795051800,12.7510517578125,-1.0306750535964966,0.2878269851207733,0.778544008731842
1788107656805137700,12.7611376953125,-0.9590489864349365,0.2893269956111908,0.6679040193557739
1788107656815228000,12.771227783203125,-0.8611500263214111,0.263698011636734,0.650672972202301
1788107656825306000,12.78130615234375,-0.6716799736022949,0.24001699686050415,0.6891189813613892
1788107656835391500,12.7913916015625,-0.40581899881362915,0.23502500355243683,0.7974249720573425
1788107656845472500,12.801472412109375,-0.2821759879589081,0.33250999450683594,0.700236976146698
1788107656855565800,12.81156591796875,-0.09077300131320953,0.3912869989871979,0.5867059826850891
1788107656865646000,12.82164599609375,0.06127399951219559,0.3908329904079437,0.5313299894332886
1788107656875728400,12.831728271484375,0.06722299754619598,0.37628400325775146,0.6112629771232605
1788107656885814500,12.841814453125,0.12502099573612213,0.4075930118560791,0.6262339949607849
1788107656895904300,12.851904296875,0.10357499867677689,0.42352598905563354,0.6007329821586609
1788107656905988400,12.86198828125,0.16221599280834198,0.5516089797019958,0.46748799085617065
1788107656916071400,12.872071533203124,0.23952099680900574,0.5763310194015503,0.4834209978580475
1788107656926152200,12.882152099609375,0.3429830074310303,0.5359230041503906,0.7219809889793396
1788107656936242700,12.89224267578125,0.5649530291557312,0.5022749900817871,0.7642639875411987
1788107656946331100,12.9023310546875,0.7758049964904785,0.5992109775543213,0.6132320165634155
