time,seconds_elapsed,z,y,x
1788107644153760800,0.1097607421875,7.618488788604736,6.1327691078186035,-0.6227229833602905
1788107644163862500,0.119862548828125,7.626483917236328,6.122077941894531,-0.6299949884414673
1788107644173946600,0.129946533203125,7.63324499130249,6.113187789916992,-0.634440004825592
1788107644184025300,0.140025390625,7.638937950134277,6.106057167053223,-0.6345949769020081
1788107644234519300,0.190519287109375,7.634957790374756,6.112124919891357,-0.6239780187606812
1788107644264784600,0.22078466796875,7.633782863616943,6.115756034851074,-0.6023839712142944
1788107644295016700,0.2510166015625,7.655584812164307,6.087441921234131,-0.6124269962310791
1788107644305112300,0.2611123046875,7.669887065887451,6.067438125610352,-0.6317070126533508
1788107644315202600,0.27120263671875,7.6862711906433105,6.044342994689941,-0.6535599827766418
1788107644325296000,0.281296142578125,7.7024078369140625,6.021306037902832,-0.6758480072021484
1788107644335381200,0.29138134765625,7.717634201049805,5.9990739822387695,-0.6994109749794006
1788107644345475300,0.301475341796875,7.728971004486084,5.981496810913086,-0.7243549823760986
1788107644355561000,0.31156103515625,7.736638069152832,5.968739032745361,-0.7473700046539307
1788107644365647600,0.321647705078125,7.738844871520996,5.9630608558654785,-0.7694960236549377
1788107644375730700,0.331730712890625,7.73889684677124,5.960795879364014,-0.7863460183143616
1788107644385824000,0.341823974609375,7.741947174072266,5.956783771514893,-0.7867760062217712
1788107644395903000,0.351903076171875,7.752021789550781,5.946657180786133,-0.7638319730758667
1788107644405993500,0.361993408203125,7.769028186798096,5.928971767425537,-0.7276250123977661
1788107644416079400,0.372079345703125,7.791959762573242,5.902857780456543,-0.6940320134162903
1788107644426161200,0.3821611328125,7.819972991943359,5.868323802947998,-0.671396017074585
1788107644436244000,0.392243896484375,7.850506782531738,5.828739166259766,-0.6597869992256165
1788107644446327000,0.4023271484375,7.88193416595459,5.787327766418457,-0.6495540142059326
1788107644456414200,0.412414306640625,7.911753177642822,5.748406887054443,-0.6324549913406372
1788107644466505700,0.422505615234375,7.935196876525879,5.718358039855957,-0.6108189821243286
1788107644476585700,0.432585693359375,7.949392795562744,5.70175313949585,-0.5806760191917419
1788107644486671400,0.44267138671875,7.95454216003418,5.699738025665283,-0.527446985244751
1788107644496756000,0.452755859375,7.95918607711792,5.701336860656738,-0.43144500255584717
1788107644506844400,0.462844482421875,7.9658660888671875,5.699099063873291,-0.32451099157333374
1788107644516926200,0.47292626953125,7.976012229919434,5.689670085906982,-0.22563299536705017
1788107644527015200,0.48301513671875,7.989170074462891,5.673724174499512,-0.14851100742816925
1788107644537101300,0.493101318359375,8.004195213317871,5.6536149978637695,-0.0976950004696846
1788107644557275100,0.513275146484375,8.035255432128906,5.609943866729736,-0.056481000036001205
1788107644567362800,0.52336279296875,8.0487060546875,5.590336799621582,-0.08026699721813202
1788107644577440800,0.533440673828125,8.05695915222168,5.577474117279053,-0.1311119943857193
1788107644587527400,0.54352734375,8.063143730163574,5.56903076171875,-0.10772000253200531
1788107644597604400,0.553604248046875,8.076930046081543,5.550045967102051,-0.012969999574124813
1788107644607693600,0.563693603515625,8.086221694946289,5.536088943481445,0.0686660036444664
1788107644617776600,0.573776611328125,8.09704875946045,5.519521236419678,0.11282099783420563
1788107644627863000,0.583863037109375,8.115646362304688,5.491558074951172,0.13812300562858582
1788107644637946400,0.5939462890625,8.139418601989746,5.455903053283691,0.15135200321674347
1788107644658125800,0.614125732421875,8.196866989135742,5.368143081665039,0.18544599413871765
1788107644668213200,0.624213134765625,8.225554466247559,5.322793006896973,0.21945999562740326
1788107644688383700,0.6443837890625,8.268604278564453,5.252468109130859,0.2859390079975128
1788107644698460700,0.654460693359375,8.2811279296875,5.23146390914917,0.3077490031719208
1788107644708549400,0.66454931640625,8.29019832611084,5.215754985809326,0.3294009864330292
1788107644718636300,0.67463623046875,8.296470642089844,5.204014778137207,0.35600799322128296
1788107644728718600,0.684718505859375,8.298908233642578,5.1980390548706055,0.38537099957466125
1788107644738802400,0.694802490234375,8.297821044921875,5.19783878326416,0.4106450080871582
1788107644748889900,0.704889892578125,8.295406341552734,5.199916839599609,0.43248099088668823
1788107644758971100,0.71497119140625,8.294475555419922,5.199718952178955,0.45235198736190796
1788107644769065200,0.725065185546875,8.296187400817871,5.195296764373779,0.4713450074195862
1788107644779148000,0.73514794921875,8.300484657287598,5.186625957489014,0.4908030033111572
1788107644789228300,0.745228271484375,8.30678653717041,5.174785137176514,0.5087779760360718
1788107644799319800,0.75531982421875,8.312594413757324,5.164130210876465,0.5220490097999573
1788107644809404200,0.765404052734375,8.315230369567871,5.159099102020264,0.5297669768333435
1788107644819484200,0.775484130859375,8.313577651977539,5.161156177520752,0.5355690121650696
1788107644829570800,0.78557080078125,8.307636260986328,5.169917106628418,0.5432479977607727
1788107644839660500,0.79566064453125,8.298144340515137,5.184215068817139,0.5519809722900391
1788107644849750000,0.80575,8.28681755065918,5.200974941253662,0.5642970204353333
1788107644859836400,0.81583642578125,8.275019645690918,5.218491077423096,0.5756739974021912
1788107644869927000,0.825927001953125,8.263148307800293,5.236577033996582,0.581928014755249
1788107644880003300,0.83600341796875,8.251876831054688,5.254272937774658,0.5823519825935364
1788107644890097200,0.84609716796875,8.241049766540527,5.271248817443848,0.5822169780731201
1788107644900187100,0.856187255859375,8.231058120727539,5.286758899688721,0.5829660296440125
1788107644910271500,0.866271484375,8.222478866577148,5.298980236053467,0.5929870009422302
1788107644920363300,0.87636328125,8.214566230773926,5.310119152069092,0.602957010269165
1788107644930446800,0.88644677734375,8.208330154418945,5.3187432289123535,0.6118080019950867
1788107644940536000,0.8965361328125,8.203798294067383,5.324649810791016,0.6211259961128235
1788107644950620200,0.9066201171875,8.200824737548828,5.328319072723389,0.6288359761238098
1788107644960709400,0.91670947265625,8.19844913482666,5.331462860107422,0.6332420110702515
1788107644970792200,0.926792236328125,8.196529388427734,5.333990097045898,0.6367009878158569
1788107644980883700,0.9368837890625,8.194540977478027,5.336686134338379,0.6397489905357361
1788107644990985000,0.94698486328125,8.192256927490234,5.340020179748535,0.6411589980125427
1788107645001076700,0.95707666015625,8.18935775756836,5.344511032104492,0.6407819986343384
1788107645011168300,0.967168212890625,8.185543060302734,5.350669860839844,0.638077974319458
1788107645021255400,0.97725537109375,8.180401802062988,5.358738899230957,0.6363779902458191
1788107645031336200,0.987336181640625,8.17219352722168,5.371476173400879,0.6343550086021423
1788107645041430000,0.997429931640625,8.16189193725586,5.387386798858643,0.6321380138397217
1788107645051516000,1.007515869140625,8.149969100952148,5.405500888824463,0.6312839984893799
1788107645061607000,1.01760693359375,8.136612892150879,5.425355911254883,0.6332330107688904
1788107645071692000,1.027692138671875,8.123391151428223,5.445095062255859,0.6336249709129333
1788107645081783300,1.037783203125,8.1100492477417,5.4652419090271,0.6310520172119141
1788107645091879200,1.047879150390625,8.09704875946045,5.48507022857666,0.6259239912033081
1788107645101969000,1.057968994140625,8.085259437561035,5.502896785736084,0.6218590140342712
1788107645112060400,1.068060302734375,8.074204444885254,5.519909858703613,0.6146439909934998
1788107645122148600,1.078148681640625,8.063947677612305,5.536076068878174,0.6038190126419067
1788107645132243500,1.088243408203125,8.053919792175293,5.551615238189697,0.5949400067329407
1788107645142329600,1.09832958984375,8.042840957641602,5.568690776824951,0.5851119756698608
1788107645152414200,1.108414306640625,8.02956771850586,5.588441848754883,0.5791100263595581
1788107645162524400,1.1185244140625,8.013447761535645,5.611812114715576,0.5764369964599609
1788107645172608500,1.1286083984375,7.994654178619385,5.638792037963867,0.574051022529602
1788107645182695700,1.13869580078125,7.975866794586182,5.665510177612305,0.5723159909248352
1788107645192775700,1.148775634765625,7.958536148071289,5.689795970916748,0.5726370215415955
1788107645202858200,1.158858154296875,7.942908763885498,5.711878776550293,0.5698149800300598
1788107645212941600,1.168941650390625,7.9293389320373535,5.731060981750488,0.5661939978599548
1788107645223025400,1.179025390625,7.916225910186768,5.749438762664795,0.5633059740066528
1788107645233112000,1.189112060546875,7.9023590087890625,5.768493175506592,0.563202977180481
1788107645243202000,1.1992021484375,7.88908576965332,5.786280155181885,0.5668330192565918
1788107645253285000,1.20928515625,7.877554893493652,5.801315784454346,0.5734879970550537
1788107645263367200,1.2193671875,7.868222236633301,5.813185214996338,0.5813090205192566
1788107645273449000,1.229448974609375,7.860719203948975,5.822542190551758,0.5891270041465759
1788107645283531800,1.23953173828125,7.854506969451904,5.82991886138916,0.5989930033683777
1788107645293616600,1.24961669921875,7.84903621673584,5.835745811462402,0.6137549877166748
1788107645303704600,1.25970458984375,7.842367172241211,5.842959880828857,0.630200982093811
1788107645323876000,1.2798759765625,7.821591854095459,5.866745948791504,0.6663140058517456
1788107645333954300,1.289954345703125,7.809479236602783,5.880988121032715,0.6826599836349487
1788107645344038000,1.300037841796875,7.79762601852417,5.894396781921387,0.702226996421814
1788107645354122200,1.310122314453125,7.786306858062744,5.906676769256592,0.7242540121078491
1788107645364213200,1.320213134765625,7.775176048278809,5.918492794036865,0.7470110058784485
1788107645374291700,1.330291748046875,7.764027118682861,5.930211067199707,0.7697150111198425
1788107645384383500,1.340383544921875,7.751867771148682,5.943000793457031,0.7932279706001282
1788107645394460000,1.3504599609375,7.737857818603516,5.957529067993164,0.8205950260162354
1788107645404545000,1.360544921875,7.721267223358154,5.975439071655273,0.8462470173835754
1788107645424727000,1.38072705078125,7.679148197174072,6.022761821746826,0.8927419781684875
1788107645434807800,1.390807861328125,7.653572082519531,6.0517778396606445,0.9159070253372192
1788107645444897500,1.4008974609375,7.6255202293396,6.083157062530518,0.9416199922561646
1788107645454983000,1.41098291015625,7.5963029861450195,6.1150407791137695,0.9707800149917603
1788107645465068800,1.42106884765625,7.568676948547363,6.144241809844971,1.0017019510269165
1788107645475159300,1.4311591796875,7.544845104217529,6.168848991394043,1.0298930406570435
1788107645485255000,1.4412548828125,7.5258588790893555,6.188188076019287,1.0525150299072266
1788107645495340300,1.45134033203125,7.511027812957764,6.203371047973633,1.0689669847488403
1788107645505418000,1.46141796875,7.498807907104492,6.216012001037598,1.0812389850616455
1788107645515497700,1.471497802734375,7.486818790435791,6.228876113891602,1.0902429819107056
1788107645525588700,1.481588623046875,7.471958160400391,6.24540901184082,1.0975819826126099
1788107645535666200,1.491666259765625,7.454660892486572,6.2649641036987305,1.103760004043579
1788107645545757000,1.5017568359375,7.436072826385498,6.286745071411133,1.1052900552749634
1788107645555838000,1.511837890625,7.418570041656494,6.307398796081543,1.10521399974823
1788107645565922300,1.52192236328125,7.402504920959473,6.326200008392334,1.105465054512024
1788107645576007000,1.5320068359375,7.387509822845459,6.343669891357422,1.1056970357894897
1788107645586091800,1.542091796875,7.373240947723389,6.360377788543701,1.1049439907073975
1788107645596171500,1.552171630859375,7.359848976135254,6.376226902008057,1.1028809547424316
1788107645606259000,1.562259033203125,7.3484110832214355,6.389762878417969,1.1008230447769165
1788107645626434300,1.582434326171875,7.334702014923096,6.406369209289551,1.0957200527191162
1788107645636510000,1.592510009765625,7.332204818725586,6.410353183746338,1.0891139507293701
1788107645646603000,1.60260302734375,7.331031799316406,6.413601875305176,1.0778189897537231
1788107645656688400,1.6126884765625,7.329082012176514,6.418416976928711,1.0622819662094116
1788107645666780400,1.622780517578125,7.323591232299805,6.427104949951172,1.0475269556045532
1788107645676877800,1.6328779296875,7.314144134521484,6.440316200256348,1.0322940349578857
1788107645686966800,1.642966796875,7.30181884765625,6.456676959991455,1.017266035079956
1788107645697044200,1.653044189453125,7.28844690322876,6.473971843719482,1.0031039714813232
1788107645707135500,1.663135498046875,7.277371883392334,6.488492965698242,0.9896010160446167
1788107645717225200,1.67322509765625,7.270185947418213,6.498309135437012,0.9779340028762817
1788107645727327200,1.6833271484375,7.267148971557617,6.50330114364624,0.9672499895095825
1788107645737404200,1.693404052734375,7.26776123046875,6.50360107421875,0.9606019854545593
1788107645747482000,1.703482177734375,7.269711017608643,6.502630233764648,0.9524379968643188
1788107645757565000,1.71356494140625,7.271815776824951,6.501375198364258,0.9449099898338318
1788107645767650300,1.723650390625,7.273959159851074,6.49972677230835,0.9396979808807373
1788107645777735400,1.7337353515625,7.276526927947998,6.497437000274658,0.9356759786605835
1788107645787823600,1.74382373046875,7.27851676940918,6.496088027954102,0.9295349717140198
1788107645797908000,1.753907958984375,7.2808098793029785,6.493564128875732,0.9292150139808655
1788107645807996000,1.763995849609375,7.283132076263428,6.491957187652588,0.9221879839897156
1788107645818069000,1.774069091796875,7.285754203796387,6.489943027496338,0.9156299829483032
1788107645828158000,1.784157958984375,7.289682865142822,6.485739231109619,0.9141730070114136
1788107645838241500,1.794241455078125,7.296032905578613,6.478126049041748,0.9175099730491638
1788107645848312000,1.80431201171875,7.305163860321045,6.467793941497803,0.9177070260047913
1788107645858393000,1.81439306640625,7.316783905029297,6.455052852630615,0.9148600101470947
1788107645868484400,1.824484375,7.330063819885254,6.440749168395996,0.9093130230903625
1788107645878564400,1.834564453125,7.344411849975586,6.425416946411133,0.9020000100135803
1788107645888648400,1.8446484375,7.358799934387207,6.4102349281311035,0.8927249908447266
1788107645898728700,1.854728759765625,7.371866226196289,6.396615028381348,0.8825380206108093
1788107645908818000,1.86481787109375,7.383566856384277,6.3847479820251465,0.8706030249595642
1788107645918900500,1.874900390625,7.392833232879639,6.375502109527588,0.8596420288085938
1788107645928983800,1.88498388671875,7.4007158279418945,6.367776870727539,0.8489919900894165
1788107645939064600,1.895064697265625,7.407497882843018,6.361772060394287,0.8347700238227844
1788107645959239200,1.9152392578125,7.423895835876465,6.3457350730896,0.8108490109443665
1788107645969324300,1.92532421875,7.4357171058654785,6.333156108856201,0.8007590174674988
1788107645979413000,1.9354130859375,7.450429916381836,6.315975189208984,0.799697995185852
1788107645989491000,1.945490966796875,7.467516899108887,6.296579837799072,0.7932969927787781
1788107645999579400,1.955579345703125,7.48560905456543,6.275485992431641,0.7899109721183777
1788107646009670100,1.965670166015625,7.503407001495361,6.253932952880859,0.7919849753379822
1788107646019761200,1.97576123046875,7.5191330909729,6.234015941619873,0.7998070120811462
1788107646029854200,1.985854248046875,7.53322696685791,6.214984893798828,0.8151640295982361
1788107646039942000,1.99594189453125,7.548141956329346,6.193302154541016,0.8417540192604065
1788107646060130000,2.016130126953125,7.585097789764404,6.140432834625244,0.8951579928398132
1788107646070220300,2.02622021484375,7.6105570793151855,6.104651927947998,0.9233899712562561
1788107646080311300,2.036311279296875,7.639895915985107,6.063953876495361,0.9489359855651855
1788107646090400000,2.04639990234375,7.671261787414551,6.020430088043213,0.9726750254631042
1788107646100493800,2.056493896484375,7.702870845794678,5.976578235626221,0.9931139945983887
1788107646110573300,2.0665732421875,7.731330871582031,5.936844825744629,1.0101280212402344
1788107646120667600,2.076667724609375,7.755727767944336,5.9025139808654785,1.0242290496826172
1788107646130751000,2.0867509765625,7.774263858795166,5.8764967918396,1.03324294090271
1788107646140844300,2.09684423828125,7.785130977630615,5.860860824584961,1.0402220487594604
1788107646150931200,2.10693115234375,7.789905071258545,5.853058815002441,1.0483770370483398
1788107646161022000,2.11702197265625,7.790427207946777,5.849946022033691,1.0617690086364746
1788107646171106300,2.127106201171875,7.789249897003174,5.848052978515625,1.0806809663772583
1788107646181194000,2.137194091796875,7.787056922912598,5.849571228027344,1.0882090330123901
1788107646191279600,2.147279541015625,7.785016059875488,5.852582931518555,1.0866349935531616
1788107646201375700,2.157375732421875,7.782934188842773,5.856379985809326,1.0810999870300293
1788107646211461000,2.167461181640625,7.780515193939209,5.861588001251221,1.0701919794082642
1788107646221547800,2.1775478515625,7.777886867523193,5.867726802825928,1.0555939674377441
1788107646231633200,2.187633056640625,7.775705814361572,5.873542785644531,1.039152979850769
1788107646241721900,2.197721923828125,7.774438858032227,5.878562927246094,1.020089030265808
1788107646251801900,2.2078017578125,7.773275852203369,5.883425235748291,1.000749945640564
1788107646261890600,2.217890625,7.771928787231445,5.8873090744018555,0.9882929921150208
1788107646271975000,2.227974853515625,7.769632816314697,5.892733097076416,0.973908007144928
1788107646282070300,2.2380703125,7.766214847564697,5.9002509117126465,0.9554529786109924
1788107646292162600,2.24816259765625,7.764260768890381,5.904386043548584,0.9457769989967346
1788107646302263000,2.258262939453125,7.765395164489746,5.9042181968688965,0.937470018863678
1788107646312366600,2.26836669921875,7.770571231842041,5.899062156677246,0.9269359707832336
1788107646322452500,2.278452392578125,7.7802581787109375,5.888393878936768,0.9134420156478882
1788107646332540700,2.288540771484375,7.793539047241211,5.873284816741943,0.8973609805107117
1788107646342626800,2.298626708984375,7.807942867279053,5.8566107749938965,0.880977988243103
1788107646352715000,2.308715087890625,7.820662975311279,5.841825008392334,0.866212010383606
1788107646362796300,2.31879638671875,7.830860137939453,5.83006477355957,0.8532180190086365
1788107646372885000,2.328885009765625,7.8380022048950195,5.822289943695068,0.8406479954719543
1788107646382962400,2.33896240234375,7.843218803405762,5.817264080047607,0.826653003692627
1788107646393058600,2.34905859375,7.8465189933776855,5.815340995788574,0.808667004108429
1788107646403143000,2.359142822265625,7.848234176635742,5.816030025482178,0.7867550253868103
1788107646413233700,2.369233642578125,7.847439765930176,5.820178031921387,0.7637050151824951
1788107646423315500,2.3793154296875,7.844782829284668,5.826635837554932,0.741428017616272
1788107646433394200,2.389394287109375,7.84117317199707,5.834023952484131,0.7212290167808533
1788107646443481600,2.399481689453125,7.837515830993652,5.840991973876953,0.7044150233268738
1788107646453567700,2.409567626953125,7.836118221282959,5.843074798583984,0.7026680111885071
1788107646463657500,2.419657470703125,7.835287094116211,5.845008850097656,0.695809006690979
1788107646473740300,2.429740234375,7.836080074310303,5.845592975616455,0.6817989945411682
1788107646483825200,2.4398251953125,7.839328765869141,5.842257976531982,0.6730189919471741
1788107646493916000,2.449916015625,7.843843936920166,5.836565971374512,0.6697660088539124
1788107646504002800,2.4600029296875,7.849380970001221,5.828901767730713,0.6716729998588562
1788107646514086000,2.4700859375,7.856741905212402,5.817473888397217,0.6845399737358093
1788107646524172300,2.48017236328125,7.864923000335693,5.805650234222412,0.6909970045089722
1788107646534264600,2.4902646484375,7.876011848449707,5.790332794189453,0.6931689977645874
1788107646544344300,2.50034423828125,7.891524791717529,5.768373966217041,0.6997870206832886
1788107646554427400,2.510427490234375,7.911287784576416,5.740511894226074,0.7057089805603027
1788107646564512800,2.5205126953125,7.935882091522217,5.705423831939697,0.7140750288963318
1788107646574588700,2.530588623046875,7.962978839874268,5.6664958000183105,0.7223309874534607
1788107646584673300,2.54067333984375,7.991529941558838,5.624964237213135,0.7316060066223145
1788107646594753800,2.55075390625,8.019376754760742,5.583883762359619,0.7415239810943604
1788107646604841200,2.56084130859375,8.044713020324707,5.545663833618164,0.7537840008735657
1788107646614921000,2.5709208984375,8.067177772521973,5.510834217071533,0.7689819931983948
1788107646625010400,2.581010498046875,8.08757209777832,5.478021144866943,0.7889500260353088
1788107646635096600,2.5910966796875,8.106698989868164,5.446341037750244,0.811644971370697
1788107646645187600,2.6011875,8.125452041625977,5.415113925933838,0.832830011844635
1788107646655268000,2.61126806640625,8.143760681152344,5.385035037994385,0.8488889932632446
1788107646665358600,2.621358642578125,8.161177635192871,5.357057094573975,0.8585630059242249
1788107646675436300,2.631436279296875,8.174015045166016,5.337288856506348,0.8595499992370605
1788107646685532400,2.641532470703125,8.179614067077637,5.3288798332214355,0.8584520220756531
1788107646695612400,2.6516123046875,8.177433013916016,5.331896781921387,0.8605020046234131
1788107646705693200,2.661693115234375,8.168925285339355,5.343597888946533,0.8686649799346924
1788107646715775500,2.671775390625,8.158868789672852,5.356335163116455,0.8846060037612915
1788107646725890300,2.681890380859375,8.152093887329102,5.362400054931641,0.9099509716033936
1788107646735974700,2.691974609375,8.150162696838379,5.362733840942383,0.9251229763031006
1788107646746069000,2.702069091796875,8.15498161315918,5.352773189544678,0.9402300119400024
1788107646756144600,2.71214453125,8.16579532623291,5.334266185760498,0.9515609741210938
1788107646766238500,2.722238525390625,8.180520057678223,5.310781002044678,0.9563990235328674
1788107646776324400,2.732324462890625,8.196714401245117,5.285617828369141,0.9571490287780762
1788107646786416600,2.742416748046875,8.209826469421387,5.265859127044678,0.9536769986152649
1788107646796500000,2.7525,8.216958999633789,5.255839824676514,0.9474949836730957
1788107646806586400,2.76258642578125,8.217074394226074,5.2571120262146,0.9394019842147827
1788107646816681000,2.772680908203125,8.210733413696289,5.268383979797363,0.9316530227661133
1788107646826760700,2.7827607421875,8.199710845947266,5.2865118980407715,0.9260269999504089
1788107646836849000,2.792848876953125,8.187474250793457,5.306029796600342,0.9226430058479309
1788107646846936000,2.80293603515625,8.177204132080078,5.322096824645996,0.921180009841919
1788107646857029400,2.813029296875,8.169350624084473,5.334672927856445,0.9181280136108398
1788107646867111200,2.823111083984375,8.162775993347168,5.346037864685059,0.9104599952697754
1788107646877198300,2.8331982421875,8.157563209533691,5.356050968170166,0.8982570171356201
1788107646887288800,2.843288818359375,8.152762413024902,5.36576509475708,0.8837299942970276
1788107646897374700,2.853374755859375,8.147632598876953,5.375644207000732,0.8709480166435242
1788107646907452700,2.86345263671875,8.1420316696167,5.385879993438721,0.8600029945373535
1788107646917545200,2.873545166015625,8.136824607849121,5.39536190032959,0.8497959971427917
1788107646927633700,2.883633544921875,8.133687019348145,5.401577949523926,0.8402600288391113
1788107646937723400,2.893723388671875,8.132827758789062,5.404559135437012,0.829364001750946
1788107646947797500,2.903797607421875,8.134121894836426,5.404786109924316,0.815064013004303
1788107646957887700,2.9138876953125,8.136157035827637,5.404408931732178,0.7971050143241882
1788107646967980000,2.92397998046875,8.138236045837402,5.404339790344238,0.7760300040245056
1788107646978069500,2.934069580078125,8.139779090881348,5.405209064483643,0.7534459829330444
1788107646988151000,2.944151123046875,8.13998031616211,5.407908916473389,0.7316300272941589
1788107646998233600,2.954233642578125,8.13858699798584,5.412609100341797,0.7120839953422546
1788107647008316200,2.964316162109375,8.13570785522461,5.4190568923950195,0.6957610249519348
1788107647018409500,2.974409423828125,8.131860733032227,5.426425933837891,0.6832029819488525
1788107647028488200,2.98448828125,8.127237319946289,5.4343581199646,0.6750869750976562
1788107647038579500,2.994579345703125,8.122002601623535,5.442803859710693,0.6700009703636169
1788107647048666000,3.004666015625,8.117067337036133,5.450655937194824,0.6659849882125854
1788107647058751700,3.014751708984375,8.113675117492676,5.455807209014893,0.6651809811592102
1788107647068843800,3.02484375,8.112469673156738,5.457326889038086,0.6673489809036255
1788107647078947800,3.03494775390625,8.114171028137207,5.453935146331787,0.6743959784507751
1788107647089028400,3.0450283203125,8.120414733886719,5.443012237548828,0.6873700022697449
1788107647099111200,3.055111083984375,8.132219314575195,5.422964096069336,0.7060790061950684
1788107647109202000,3.065201904296875,8.149388313293457,5.393964767456055,0.7298129796981812
1788107647119283500,3.075283447265625,8.171257019042969,5.357141017913818,0.7560799717903137
1788107647129362400,3.085362548828125,8.1972017288208,5.3137288093566895,0.7810999751091003
1788107647139454200,3.0954541015625,8.226762771606445,5.264616966247559,0.802590012550354
1788107647149541400,3.105541259765625,8.259414672851562,5.210144996643066,0.8224520087242126
1788107647159628000,3.1156279296875,8.294048309326172,5.151871204376221,0.8408229947090149
1788107647169720000,3.125719970703125,8.328862190246582,5.092672824859619,0.857155978679657
1788107647179808300,3.135808349609375,8.359711647033691,5.040412902832031,0.8656870126724243
1788107647189900000,3.145900146484375,8.381387710571289,5.00474214553833,0.863057017326355
1788107647199997000,3.155996826171875,8.38970947265625,4.992733001708984,0.8517199754714966
1788107647210086100,3.166086181640625,8.383770942687988,5.0042500495910645,0.8425650000572205
1788107647220175400,3.17617529296875,8.366500854492188,5.033213138580322,0.8416669964790344
1788107647230265000,3.18626513671875,8.343464851379395,5.069518089294434,0.8524450063705444
1788107647240357000,3.196357177734375,8.320874214172363,5.103508949279785,0.8701750040054321
1788107647250440400,3.2064404296875,8.303455352783203,5.129556179046631,0.8833240270614624
1788107647260532700,3.21653271484375,8.293375968933105,5.145585060119629,0.8847650289535522
1788107647270620400,3.226620361328125,8.290501594543457,5.152007102966309,0.8743020296096802
1788107647280712700,3.236712646484375,8.29269790649414,5.151436805725098,0.8566550016403198
1788107647290804200,3.24680419921875,8.295808792114258,5.149429798126221,0.8383740186691284
1788107647300895200,3.256895263671875,8.296320915222168,5.151285171508789,0.8217589855194092
1788107647310980900,3.26698095703125,8.292399406433105,5.159684181213379,0.8085539937019348
1788107647321073400,3.277073486328125,8.283175468444824,5.17622184753418,0.7973009943962097
1788107647331159300,3.2871591796875,8.269227027893066,5.200189113616943,0.7860689759254456
1788107647341255700,3.297255615234375,8.252518653869629,5.227621078491211,0.7797070145606995
1788107647351346700,3.3073466796875,8.235604286193848,5.254042148590088,0.7809330224990845
1788107647361439000,3.31743896484375,8.22155475616455,5.274388790130615,0.7917410135269165
1788107647371526000,3.32752587890625,8.212479591369629,5.285545825958252,0.811269998550415
1788107647381619000,3.337618896484375,8.20974063873291,5.286542892456055,0.8322610259056091
1788107647391707600,3.347707763671875,8.214719772338867,5.2751030921936035,0.8553869724273682
1788107647401800200,3.35780029296875,8.225311279296875,5.254756927490234,0.8785150051116943
1788107647411888400,3.367888427734375,8.239380836486816,5.228515148162842,0.9029120206832886
1788107647421971700,3.3779716796875,8.254935264587402,5.199627876281738,0.9272969961166382
1788107647432059000,3.388058837890625,8.269980430603027,5.170973777770996,0.9530990123748779
1788107647442157600,3.398157470703125,8.283474922180176,5.144286155700684,0.9800059795379639
1788107647452242200,3.4082421875,8.295432090759277,5.1195478439331055,1.0079809427261353
1788107647462339800,3.41833984375,8.306451797485352,5.0969929695129395,1.031285047531128
1788107647472425500,3.428425537109375,8.315940856933594,5.078393936157227,1.0464580059051514
1788107647482514400,3.438514404296875,8.321563720703125,5.067623138427734,1.0539239645004272
1788107647492607700,3.448607666015625,8.322867393493652,5.06459903717041,1.0581560134887695
1788107647502688000,3.45868798828125,8.318412780761719,5.0699968338012695,1.0673049688339233
1788107647512778500,3.468778564453125,8.309120178222656,5.081686019897461,1.083974003791809
1788107647522867700,3.47886767578125,8.296856880187988,5.097218990325928,1.1047559976577759
1788107647532953900,3.488953857421875,8.28431510925293,5.112714767456055,1.1270580291748047
1788107647543038700,3.499038818359375,8.273603439331055,5.125858783721924,1.1458690166473389
1788107647553128700,3.509128662109375,8.265034675598145,5.1362199783325195,1.1612249612808228
1788107647563211000,3.5192109375,8.258514404296875,5.143461227416992,1.175475001335144
1788107647573295900,3.5292958984375,8.252935409545898,5.148585796356201,1.1921340227127075
1788107647583381000,3.539381103515625,8.247079849243164,5.153302192687988,1.2120729684829712
1788107647593468200,3.54946826171875,8.241373062133789,5.157155990600586,1.2343039512634277
1788107647603551500,3.559551513671875,8.235832214355469,5.159934043884277,1.2594159841537476
1788107647613636000,3.569635986328125,8.232069969177246,5.158397197723389,1.2899490594863892
1788107647623718000,3.5797177734375,8.231741905212402,5.14970588684082,1.3262640237808228
1788107647633799700,3.589799560546875,8.23550796508789,5.133415222167969,1.3654550313949585
1788107647643885300,3.59988525390625,8.243215560913086,5.1114501953125,1.4008779525756836
1788107647653972500,3.609972412109375,8.253363609313965,5.087640762329102,1.4275330305099487
1788107647664052200,3.62005224609375,8.263448715209961,5.065865993499756,1.446516990661621
1788107647674135000,3.630135009765625,8.270861625671387,5.049540996551514,1.4611690044403076
1788107647684225300,3.640225341796875,8.273155212402344,5.041991233825684,1.4741829633712769
1788107647694303500,3.650303466796875,8.269669532775879,5.042925834655762,1.4904570579528809
1788107647704394500,3.66039453125,8.263145446777344,5.047383785247803,1.5114049911499023
1788107647714479900,3.67047998046875,8.256612777709961,5.051080226898193,1.5345820188522339
1788107647724581600,3.68058154296875,8.253210067749023,5.050471782684326,1.5547540187835693
1788107647734662000,3.690661865234375,8.254664421081543,5.043312072753906,1.5701780319213867
1788107647744741000,3.7007412109375,8.261028289794922,5.029588222503662,1.5807149410247803
1788107647754822000,3.71082177734375,8.270207405090332,5.012876987457275,1.585790991783142
1788107647764909600,3.72090966796875,8.279775619506836,4.997138977050781,1.5855389833450317
1788107647774987800,3.73098779296875,8.286897659301758,4.987060070037842,1.5800509452819824
1788107647785071000,3.741071044921875,8.289590835571289,4.985261917114258,1.5715810060501099
1788107647795154400,3.751154541015625,8.287296295166016,4.99163293838501,1.5634369850158691
1788107647805244200,3.761244140625,8.280570983886719,5.004948139190674,1.5564860105514526
1788107647815324400,3.771324462890625,8.271004676818848,5.022348880767822,1.5512880086898804
1788107647825410600,3.78141064453125,8.259566307067871,5.0409440994262695,1.5519180297851562
1788107647835492600,3.79149267578125,8.247611045837402,5.058565139770508,1.5581510066986084
1788107647845583600,3.80158349609375,8.237001419067383,5.071950912475586,1.5707299709320068
1788107647855670000,3.811669921875,8.229869842529297,5.078619003295898,1.58645498752594
1788107647865760500,3.821760498046875,8.228262901306152,5.075794219970703,1.6037590503692627
1788107647875845600,3.831845703125,8.234098434448242,5.061046123504639,1.620313048362732
1788107647885934600,3.8419345703125,8.248004913330078,5.033966064453125,1.6338900327682495
1788107647896023300,3.852023193359375,8.26855182647705,4.997834205627441,1.6409449577331543
1788107647906111000,3.862111083984375,8.292658805847168,4.957649230957031,1.641213059425354
1788107647916194300,3.8721943359375,8.316553115844727,4.919579029083252,1.6348379850387573
1788107647926285600,3.88228564453125,8.335308074951172,4.892082214355469,1.6217960119247437
1788107647936368600,3.89236865234375,8.345708847045898,4.879708766937256,1.6054890155792236
1788107647946463700,3.902463623046875,8.344603538513184,4.886279106140137,1.5911740064620972
1788107647956549000,3.912549072265625,8.331707000732422,4.910490989685059,1.5842070579528809
1788107647966635500,3.922635498046875,8.310274124145508,4.945985794067383,1.5863690376281738
1788107647976723700,3.9327236328125,8.285000801086426,4.984655857086182,1.5974889993667603
1788107647986804500,3.942804443359375,8.262540817260742,5.018179893493652,1.608793020248413
1788107647996890600,3.952890625,8.24698543548584,5.040950775146484,1.6174219846725464
1788107648006980000,3.96297998046875,8.240405082702637,5.050965785980225,1.6197179555892944
1788107648017060000,3.97306005859375,8.241520881652832,5.050238132476807,1.616284966468811
1788107648027156200,3.98315625,8.24772834777832,5.042809963226318,1.6078180074691772
1788107648037248800,3.993248779296875,8.255237579345703,5.033117771148682,1.5996179580688477
1788107648047333000,4.0033330078125,8.261086463928223,5.024606227874756,1.5961649417877197
1788107648057424100,4.013424072265625,8.265357971191406,5.016754150390625,1.5987709760665894
1788107648067511800,4.02351171875,8.26878833770752,5.00825309753418,1.607651948928833
1788107648077596200,4.03359619140625,8.273404121398926,4.996890068054199,1.6192229986190796
1788107648087681800,4.043681884765625,8.28072452545166,4.981078147888184,1.63047194480896
1788107648097773600,4.053773681640625,8.291654586791992,4.961543083190918,1.6344859600067139
1788107648107855600,4.063855712890625,8.304954528808594,4.940927982330322,1.6294020414352417
1788107648117947600,4.07394775390625,8.318358421325684,4.922534942626953,1.6166549921035767
1788107648128031700,4.08403173828125,8.328514099121094,4.910912036895752,1.5996259450912476
1788107648138121700,4.094121826171875,8.333523750305176,4.907620906829834,1.583541989326477
1788107648148200000,4.104199951171875,8.333511352539062,4.912031173706055,1.5698870420455933
1788107648158288400,4.114288330078125,8.329174995422363,4.923658847808838,1.556404948234558
1788107648168371200,4.12437109375,8.322478294372559,4.940269947052002,1.539512038230896
1788107648178473200,4.13447314453125,8.31466293334961,4.959690093994141,1.519186019897461
1788107648188549000,4.144549072265625,8.306987762451172,4.9796648025512695,1.4956259727478027
1788107648198639000,4.15463916015625,8.298807144165039,5.000168800354004,1.4724489450454712
1788107648208724500,4.164724365234375,8.28952407836914,5.021665096282959,1.4514440298080444
1788107648218813200,4.174813232421875,8.27929401397705,5.043323040008545,1.4346339702606201
1788107648228914000,4.184913818359375,8.269640922546387,5.062166213989258,1.4239100217819214
1788107648239000300,4.195000244140625,8.2620210647583,5.075931072235107,1.419119954109192
1788107648249087200,4.205087158203125,8.258292198181152,5.08256721496582,1.4170939922332764
1788107648259172000,4.215172119140625,8.25930404663086,5.082075119018555,1.4129409790039062
1788107648269254100,4.225254150390625,8.26492691040039,5.075570106506348,1.4034249782562256
1788107648279337500,4.23533740234375,8.27449893951416,5.065221786499023,1.3842639923095703
1788107648289419000,4.2454189453125,8.285085678100586,5.055924892425537,1.354606032371521
1788107648299506000,4.255505859375,8.294177055358887,5.051224231719971,1.3159539699554443
1788107648309587500,4.26558740234375,8.2975435256958,5.056392192840576,1.2742329835891724
1788107648319676700,4.2756767578125,8.293197631835938,5.0734968185424805,1.2338780164718628
1788107648329762600,4.285762451171875,8.28110408782959,5.101599216461182,1.1987580060958862
1788107648339856400,4.2958564453125,8.262998580932617,5.137538909912109,1.1698180437088013
1788107648349944300,4.3059443359375,8.24279499053955,5.17537784576416,1.1453410387039185
1788107648360026000,4.316026123046875,8.223799705505371,5.210694789886475,1.1215150356292725
1788107648370114800,4.32611474609375,8.207941055297852,5.2412872314453125,1.0948330163955688
1788107648380198400,4.336198486328125,8.196024894714355,5.26637077331543,1.063228964805603
1788107648390287400,4.346287353515625,8.18657398223877,5.288002967834473,1.0281440019607544
1788107648400371000,4.356370849609375,8.178016662597656,5.307910919189453,0.9930629730224609
1788107648410456000,4.3664560546875,8.168871879577637,5.327770233154297,0.9614480137825012
1788107648420536300,4.376536376953125,8.158845901489258,5.3476362228393555,0.9359790086746216
1788107648430628400,4.38662841796875,8.148649215698242,5.366298198699951,0.9178239703178406
1788107648440707300,4.396707275390625,8.14074420928955,5.379971981048584,0.9078630208969116
1788107648450799400,4.40679931640625,8.136330604553223,5.387578964233398,0.9022300243377686
1788107648460886800,4.41688671875,8.135842323303223,5.389102935791016,0.897599995136261
1788107648470967300,4.42696728515625,8.13908576965332,5.3853759765625,0.8905010223388672
1788107648481063700,4.437063720703125,8.14523696899414,5.377531051635742,0.8816369771957397
1788107648491151600,4.447151611328125,8.153786659240723,5.365859031677246,0.8736609816551208
1788107648501243600,4.45724365234375,8.163352966308594,5.352328777313232,0.8673139810562134
1788107648511326700,4.46732666015625,8.171854972839355,5.339861869812012,0.8640750050544739
1788107648521414000,4.477413818359375,8.178498268127441,5.329833030700684,0.8631470203399658
1788107648531498200,4.487498291015625,8.182666778564453,5.323561191558838,0.8623560070991516
1788107648541587200,4.497587158203125,8.184399604797363,5.321474075317383,0.8587620258331299
1788107648551684000,4.50768408203125,8.184313774108887,5.322668075561523,0.8521869778633118
1788107648561769200,4.517769287109375,8.183101654052734,5.326073169708252,0.8424779772758484
1788107648571851500,4.5278515625,8.18178653717041,5.329831123352051,0.8314269781112671
1788107648581939200,4.537939208984375,8.180553436279297,5.333448886871338,0.8202890157699585
1788107648592027100,4.548027099609375,8.179637908935547,5.336761951446533,0.8077890276908875
1788107648602118000,4.558117919921875,8.178009986877441,5.341455936431885,0.7930949926376343
1788107648612211200,4.568211181640625,8.174720764160156,5.34905481338501,0.7755789756774902
1788107648622289700,4.57828955078125,8.169021606445312,5.360943794250488,0.7532250285148621
1788107648632379400,4.58837939453125,8.160470008850098,5.37725305557251,0.729312002658844
1788107648642467300,4.59846728515625,8.15052318572998,5.395319938659668,0.7067580223083496
1788107648652551400,4.608551513671875,8.13992977142334,5.413623809814453,0.6886429786682129
1788107648662640400,4.618640380859375,8.12940502166748,5.43096923828125,0.6763299703598022
1788107648672725000,4.62872509765625,8.120208740234375,5.4454450607299805,0.6703429818153381
1788107648682801000,4.63880078125,8.113197326660156,5.456284999847412,0.6670510172843933
1788107648692891600,4.6488916015625,8.108085632324219,5.46461820602417,0.6609460115432739
1788107648702984200,4.658984130859375,8.10486125946045,5.47060489654541,0.6509559750556946
1788107648713075200,4.6690751953125,8.103174209594727,5.474863052368164,0.6359670162200928
1788107648723164400,4.679164306640625,8.102153778076172,5.478236198425293,0.6196860074996948
1788107648733262300,4.689262451171875,8.099916458129883,5.483048915863037,0.6062809824943542
1788107648743349000,4.699348876953125,8.095080375671387,5.491081237792969,0.5980579853057861
1788107648753430500,4.709430419921875,8.086833953857422,5.503853797912598,0.592199981212616
1788107648763513900,4.719513916015625,8.074054718017578,5.523197174072266,0.5864250063896179
1788107648773602600,4.7296025390625,8.056513786315918,5.549294948577881,0.5813310146331787
1788107648783679700,4.7396796875,8.035859107971191,5.579372882843018,0.579255998134613
1788107648793760300,4.74976025390625,8.012818336486816,5.611993789672852,0.5833039879798889
1788107648803848700,4.7598486328125,7.988357067108154,5.645599842071533,0.5944600105285645
1788107648813931800,4.769931884765625,7.963735103607178,5.6782097816467285,0.6138380169868469
1788107648824012300,4.78001220703125,7.9419050216674805,5.705721855163574,0.6410189867019653
1788107648834100000,4.790099853515625,7.924455165863037,5.726297855377197,0.6727169752120972
1788107648844185000,4.80018505859375,7.911797046661377,5.740166187286377,0.7028599977493286
1788107648854275800,4.81027587890625,7.904615879058838,5.746829032897949,0.7286739945411682
1788107648864348400,4.820348388671875,7.902322769165039,5.7475128173828125,0.7479010224342346
1788107648874437400,4.830437255859375,7.9042158126831055,5.743338108062744,0.7598900198936462
1788107648884519000,4.840518798828125,7.908942222595215,5.736176013946533,0.7648220062255859
1788107648894604800,4.850604736328125,7.913994789123535,5.7291412353515625,0.7652519941329956
1788107648904688600,4.860688720703125,7.916828155517578,5.7254109382629395,0.7638649940490723
1788107648914776600,4.870776611328125,7.91608190536499,5.726436138153076,0.7638769745826721
1788107648934940200,4.890940185546875,7.908633232116699,5.73578405380249,0.7709010243415833
1788107648945025800,4.90102587890625,7.904037952423096,5.741755962371826,0.773563027381897
1788107648955111200,4.911111083984375,7.900660037994385,5.7463297843933105,0.7740799784660339
1788107648965201700,4.92120166015625,7.898599147796631,5.749847888946533,0.7689949870109558
1788107648975303700,4.9313037109375,7.898412227630615,5.7513041496276855,0.7599930167198181
1788107648985394400,4.94139453125,7.9002299308776855,5.75023078918457,0.7491379976272583
1788107648995477200,4.951477294921875,7.904046058654785,5.746078968048096,0.7406889796257019
1788107649005563100,4.961563232421875,7.91105318069458,5.737185955047607,0.7348009943962097
1788107649015645400,4.9716455078125,7.9221720695495605,5.722408771514893,0.7302150130271912
1788107649025729500,4.9817294921875,7.9368767738342285,5.702404022216797,0.7270159721374512
1788107649035813000,4.991813232421875,7.954165935516357,5.678887844085693,0.7221059799194336
1788107649045901800,5.00190185546875,7.9722089767456055,5.654162883758545,0.7171499729156494
1788107649055981300,5.011981201171875,7.989891052246094,5.629876136779785,0.7114359736442566
1788107649066072600,5.022072509765625,8.004847526550293,5.6091837882995605,0.7067570090293884
1788107649076152300,5.03215234375,8.01682186126709,5.592523097991943,0.7030209898948669
1788107649086238500,5.042238525390625,8.025551795959473,5.580227851867676,0.7011139988899231
1788107649096324600,5.05232470703125,8.031365394592285,5.571713924407959,0.702235996723175
1788107649106416600,5.062416748046875,8.034561157226562,5.566836833953857,0.7044180035591125
1788107649116502800,5.072502685546875,8.03543758392334,5.565238952636719,0.7070189714431763
1788107649126593000,5.082593017578125,8.03470230102539,5.566171169281006,0.7080180048942566
1788107649136682200,5.09268212890625,8.032304763793945,5.569859027862549,0.7062579989433289
1788107649146773000,5.10277294921875,8.027912139892578,5.576622009277344,0.7027869820594788
1788107649156862700,5.11286279296875,8.021262168884277,5.586533069610596,0.6999779939651489
1788107649166947600,5.122947509765625,8.012630462646484,5.598920822143555,0.6998839974403381
1788107649177034500,5.133034423828125,8.002397537231445,5.613048076629639,0.7038040161132812
1788107649187119900,5.143119873046875,7.991159915924072,5.628429889678955,0.708611011505127
1788107649197209900,5.1532099609375,7.978700160980225,5.645637035369873,0.7121289968490601
1788107649207296500,5.163296630859375,7.964878082275391,5.664895057678223,0.7139210104942322
1788107649217389800,5.173389892578125,7.950082778930664,5.685568809509277,0.7144629955291748
1788107649227466000,5.183466064453125,7.93387508392334,5.708108901977539,0.7149530053138733
1788107649237557000,5.193556884765625,7.916485786437988,5.73197078704834,0.7167260050773621
1788107649247644000,5.203643798828125,7.896728992462158,5.759006977081299,0.7179419994354248
1788107649257728300,5.213728271484375,7.874291896820068,5.789876937866211,0.7161009907722473
1788107649267813400,5.2238134765625,7.848543167114258,5.825072765350342,0.7133769989013672
1788107649277902600,5.233902587890625,7.817988872528076,5.866501808166504,0.7093729972839355
1788107649287986400,5.243986328125,7.78319787979126,5.913175106048584,0.7044389843940735
1788107649298070800,5.25407080078125,7.744214057922363,5.9644341468811035,0.701898992061615
1788107649308143600,5.2641435546875,7.702573776245117,6.0184807777404785,0.6987069845199585
1788107649318234600,5.274234619140625,7.660060882568359,6.073432922363281,0.6905450224876404
1788107649328313300,5.284313232421875,7.6185078620910645,6.126968860626221,0.6771829724311829
1788107649338404600,5.294404541015625,7.579004764556885,6.17744779586792,0.6616989970207214
1788107649348489500,5.304489501953125,7.5417962074279785,6.22438383102417,0.6467810273170471
1788107649368661500,5.32466162109375,7.476712226867676,6.305132865905762,0.6197299957275391
1788107649378754600,5.334754638671875,7.44784688949585,6.340663909912109,0.6046540141105652
1788107649388839200,5.344839111328125,7.418489933013916,6.375870227813721,0.5952649712562561
1788107649398931700,5.354931640625,7.393456935882568,6.406278133392334,0.5800179839134216
1788107649409029400,5.365029296875,7.378104209899902,6.426272869110107,0.5536940097808838
1788107649419120000,5.3751201171875,7.363218784332275,6.444925785064697,0.5347129702568054
1788107649429202400,5.385202392578125,7.349139213562012,6.4625749588012695,0.5150489807128906
1788107649439288300,5.395288330078125,7.338197231292725,6.476460933685303,0.4963420033454895
1788107649449369600,5.40536962890625,7.3299641609191895,6.487177848815918,0.47767800092697144
1788107649459459000,5.415458984375,7.326504230499268,6.492422103881836,0.4591059982776642
1788107649469545000,5.425544921875,7.328409194946289,6.491505146026611,0.4413590133190155
1788107649479633000,5.4356328125,7.33607292175293,6.4840521812438965,0.4231930077075958
1788107649489716500,5.445716552734375,7.348858833312988,6.470893859863281,0.4022449851036072
1788107649499800000,5.455800048828125,7.364752769470215,6.454233169555664,0.3785420060157776
1788107649509886000,5.465885986328125,7.38193416595459,6.43600606918335,0.35335400700569153
1788107649519971300,5.475971435546875,7.398934841156006,6.417837142944336,0.32722699642181396
1788107649530060300,5.486060302734375,7.414626121520996,6.401041030883789,0.2999280095100403
1788107649540150800,5.49615087890625,7.428225994110107,6.386520862579346,0.27171000838279724
1788107649550249500,5.50624951171875,7.439037799835205,6.375060081481934,0.2435300052165985
1788107649560338200,5.516338134765625,7.447366237640381,6.3662872314453125,0.21707700192928314
1788107649570430700,5.5264306640625,7.453053951263428,6.360429763793945,0.19214299321174622
1788107649580515800,5.536515869140625,7.454816818237305,6.359048843383789,0.1679690033197403
1788107649590620400,5.546620361328125,7.454004764556885,6.360536098480225,0.14614500105381012
1788107649600704500,5.55670458984375,7.452641010284424,6.362534046173096,0.12764400243759155
1788107649610797800,5.5667978515625,7.452274799346924,6.36321496963501,0.1143219992518425
1788107649620881700,5.576881591796875,7.4550580978393555,6.360104084014893,0.10591000318527222
1788107649630972000,5.586971923828125,7.461918830871582,6.35214900970459,0.09998200088739395
1788107649641053400,5.597053466796875,7.47357177734375,6.338486194610596,0.09645199775695801
1788107649651144700,5.607144775390625,7.489918231964111,6.319182872772217,0.09535299986600876
1788107649661237000,5.617237060546875,7.509949207305908,6.295347213745117,0.09585600346326828
1788107649671319800,5.62731982421875,7.530470848083496,6.2707672119140625,0.0973299965262413
1788107649681408800,5.63740869140625,7.548437118530273,6.249064922332764,0.10113199800252914
1788107649691500500,5.64750048828125,7.563631057739258,6.230546951293945,0.1084119975566864
1788107649701590000,5.657590087890625,7.574840068817139,6.2167439460754395,0.1178629994392395
1788107649711682000,5.66768212890625,7.58225679397583,6.207533836364746,0.12603899836540222
1788107649721770000,5.67777001953125,7.58537483215332,6.203577041625977,0.1331389993429184
1788107649731868200,5.6878681640625,7.584555149078369,6.204489231109619,0.13723500072956085
1788107649741965000,5.697965087890625,7.580016136169434,6.209996223449707,0.13889899849891663
1788107649752045600,5.708045654296875,7.570871829986572,6.221189022064209,0.13678300380706787
1788107649762140200,5.71814013671875,7.556807041168213,6.238361835479736,0.13229499757289886
1788107649772233700,5.728233642578125,7.538826942443848,6.260190963745117,0.1268099993467331
1788107649782319000,5.738319091796875,7.519539833068848,6.283473014831543,0.12035699933767319
1788107649792402200,5.748402099609375,7.500074863433838,6.306839942932129,0.11252299696207047
1788107649802492000,5.758491943359375,7.480780124664307,6.329868793487549,0.10315100103616714
1788107649812573700,5.76857373046875,7.462308883666992,6.351777076721191,0.09415599703788757
1788107649822665000,5.7786650390625,7.445519924163818,6.371535778045654,0.08802899718284607
1788107649832753000,5.7887529296875,7.430838108062744,6.388678073883057,0.08596599847078323
1788107649842846000,5.798845947265625,7.420008182525635,6.4012250900268555,0.08822900056838989
1788107649852929500,5.808929443359375,7.414535999298096,6.40748405456543,0.09350000321865082
1788107649863011000,5.819010986328125,7.415159225463867,6.406665802001953,0.1003509983420372
1788107649873101800,5.829101806640625,7.421477794647217,6.399225234985352,0.10771500319242477
1788107649883193600,5.839193603515625,7.432001113891602,6.3868727684021,0.11496999859809875
1788107649903372800,5.859372802734375,7.460287094116211,6.353340148925781,0.13847799599170685
1788107649913455400,5.869455322265625,7.474759101867676,6.3359808921813965,0.1527480036020279
1788107649923542800,5.879542724609375,7.48785400390625,6.3202338218688965,0.16339799761772156
1788107649933627600,5.889627685546875,7.4988908767700195,6.306949138641357,0.1704220026731491
1788107649943711200,5.899711181640625,7.506594181060791,6.297763824462891,0.17086200416088104
1788107649953795800,5.9097958984375,7.50807523727417,6.2961249351501465,0.16624900698661804
1788107649963878400,5.91987841796875,7.502222061157227,6.303308963775635,0.15811499953269958
1788107649973960000,5.9299599609375,7.488072872161865,6.320349216461182,0.1479090005159378
1788107649984048400,5.94004833984375,7.4685540199279785,6.343654155731201,0.13711099326610565
1788107650004220400,5.960220458984375,7.426403999328613,6.393335819244385,0.11753799766302109
1788107650014299400,5.97029931640625,7.408381938934326,6.414381980895996,0.10786499828100204
1788107650024386000,5.980385986328125,7.393832206726074,6.4313178062438965,0.09694000333547592
1788107650034469600,5.9904697265625,7.382394790649414,6.444604873657227,0.08569499850273132
1788107650044553700,6.0005537109375,7.373129844665527,6.455348968505859,0.07405400276184082
1788107650054638600,6.010638671875,7.3655500411987305,6.464076042175293,0.06580200046300888
1788107650064722200,6.02072216796875,7.358115196228027,6.472597122192383,0.06049099937081337
1788107650074803000,6.030802978515625,7.349792003631592,6.482068061828613,0.058171000331640244
1788107650084892400,6.040892333984375,7.341203212738037,6.4918060302734375,0.05710899829864502
1788107650094972000,6.050971923828125,7.334290027618408,6.499588966369629,0.05927300080657005
1788107650105053200,6.06105322265625,7.3295698165893555,6.504876136779785,0.06329800188541412
1788107650115133700,6.0711337890625,7.328314781188965,6.506231784820557,0.06890799850225449
1788107650125227000,6.08122705078125,7.330924034118652,6.503201007843018,0.07693199813365936
1788107650135309300,6.091309326171875,7.337038040161133,6.496194839477539,0.08551999926567078
1788107650145399800,6.10139990234375,7.346785068511963,6.485051155090332,0.0942550003528595
1788107650155479800,6.111479736328125,7.3591837882995605,6.470827102661133,0.10394199937582016
1788107650165571300,6.1215712890625,7.372735023498535,6.45525598526001,0.11147899925708771
1788107650175650600,6.131650634765625,7.38516902923584,6.440914154052734,0.11793100088834763
1788107650185742600,6.14174267578125,7.395747184753418,6.428678035736084,0.12268999963998795
1788107650195824000,6.15182421875,7.40397310256958,6.419153213500977,0.12504799664020538
1788107650205916000,6.161916015625,7.410046100616455,6.412158966064453,0.1243090033531189
1788107650216004000,6.172004150390625,7.41411018371582,6.407520771026611,0.12103699892759323
1788107650226090800,6.1820908203125,7.4169697761535645,6.404333114624023,0.11442100256681442
1788107650236170000,6.192169921875,7.418670177459717,6.402517795562744,0.10533600300550461
1788107650246256000,6.202256103515625,7.418178081512451,6.403258800506592,0.09437999874353409
1788107650256333300,6.212333251953125,7.415482997894287,6.4065117835998535,0.08488799631595612
1788107650266424600,6.222424560546875,7.409104824066162,6.414011001586914,0.07516200095415115
1788107650276509000,6.232509033203125,7.398585796356201,6.426272869110107,0.06284099817276001
1788107650286594300,6.24259423828125,7.38331413269043,6.443953037261963,0.0467349998652935
1788107650296674300,6.25267431640625,7.3635969161987305,6.466573238372803,0.029407000169157982
1788107650306769200,6.26276904296875,7.339899063110352,6.493514060974121,0.014322999864816666
1788107650316850700,6.2728505859375,7.313854217529297,6.522846221923828,0.0010479999473318458
1788107650337017300,6.293017333984375,7.259908199310303,6.5827717781066895,-0.02918500080704689
1788107650347106600,6.3031064453125,7.23269510269165,6.612537860870361,-0.04980200156569481
1788107650357194000,6.313194091796875,7.207376956939697,6.6399312019348145,-0.07131599634885788
1788107650367283200,6.323283203125,7.187207221984863,6.661546230316162,-0.08831799775362015
1788107650377360600,6.333360595703125,7.175848960876465,6.67366886138916,-0.09646700322628021
1788107650387444700,6.34344482421875,7.175656795501709,6.673876762390137,-0.09651099890470505
1788107650397529300,6.353529296875,7.18441104888916,6.664461135864258,-0.09596700221300125
1788107650407618600,6.36361865234375,7.19880485534668,6.6488518714904785,-0.10001900047063828
1788107650417704700,6.37370458984375,7.214306831359863,6.631921768188477,-0.10672800242900848
1788107650427793200,6.383793212890625,7.227175235748291,6.617812156677246,-0.11178500205278397
1788107650437873700,6.393873779296875,7.236695766448975,6.607452869415283,-0.10854899883270264
1788107650447961600,6.403961669921875,7.244792938232422,6.5987467765808105,-0.09748300164937973
1788107650458039300,6.414039306640625,7.253819942474365,6.589025974273682,-0.08279900252819061
1788107650468125400,6.42412548828125,7.265310764312744,6.576505184173584,-0.06955000013113022
1788107650478201300,6.434201416015625,7.279101848602295,6.561301231384277,-0.06346400082111359
1788107650488291000,6.444291015625,7.29216194152832,6.546755790710449,-0.0658779963850975
1788107650498379500,6.454379638671875,7.302011966705322,6.535725116729736,-0.07044000178575516
1788107650508469500,6.464469482421875,7.306481838226318,6.530696868896484,-0.07300999760627747
1788107650518554600,6.4745546875,7.30354118347168,6.533980846405029,-0.07350800186395645
1788107650538727400,6.4947275390625,7.277711868286133,6.562716960906982,-0.07473199814558029
1788107650548819700,6.50481982421875,7.262247085571289,6.579868793487549,-0.07092799991369247
1788107650558905300,6.5149052734375,7.250704765319824,6.5926737785339355,-0.06266599893569946
1788107650568998100,6.524998046875,7.246799945831299,6.597055912017822,-0.05219300091266632
1788107650579091000,6.535091064453125,7.250938892364502,6.592566967010498,-0.04367100074887276
1788107650589185000,6.54518505859375,7.263041019439697,6.579269886016846,-0.037262000143527985
1788107650599267300,6.555267333984375,7.281552791595459,6.55881404876709,-0.031065000221133232
1788107650609351700,6.5653515625,7.30446720123291,6.533329010009766,-0.019437000155448914
1788107650619438300,6.575438232421875,7.329145908355713,6.505661964416504,-0.00203699991106987
1788107650639603700,6.595603759765625,7.376108169555664,6.452263832092285,0.03617300093173981
1788107650649697300,6.605697265625,7.395289897918701,6.4301958084106445,0.04782800003886223
1788107650659783200,6.615783203125,7.406778812408447,6.416924953460693,0.051892999559640884
1788107650669873400,6.625873291015625,7.409508228302002,6.413763046264648,0.05304199829697609
1788107650679960600,6.635960693359375,7.405423164367676,6.418461799621582,0.05538199841976166
1788107650690048300,6.64604833984375,7.398169040679932,6.4267401695251465,0.06403200328350067
1788107650700141300,6.656141357421875,7.391750812530518,6.433976173400879,0.07722499966621399
1788107650710241300,6.6662412109375,7.38846492767334,6.437646865844727,0.08533100038766861
1788107650720328000,6.676327880859375,7.386621952056885,6.43980598449707,0.0820000022649765
1788107650730411800,6.686411865234375,7.382139205932617,6.445099830627441,0.0685420036315918
1788107650740496400,6.696496337890625,7.371358871459961,6.45758581161499,0.051513999700546265
1788107650750578200,6.706578125,7.352902889251709,6.478682041168213,0.037957001477479935
1788107650770759400,6.726759521484375,7.300749778747559,6.537458896636963,0.026417000219225883
1788107650780852500,6.7368525390625,7.275632858276367,6.565402984619141,0.024799000471830368
1788107650790937000,6.74693701171875,7.25612211227417,6.58696985244751,0.022850999608635902
1788107650801023500,6.7570234375,7.243466854095459,6.600894927978516,0.01910500042140484
1788107650811118300,6.767118408203125,7.235592842102051,6.6095452308654785,0.012888000346720219
1788107650821207800,6.777207763671875,7.230403900146484,6.615230083465576,0.003498000092804432
1788107650831301000,6.787301025390625,7.22528600692749,6.620812892913818,-0.006376999896019697
1788107650841384700,6.797384765625,7.218939781188965,6.627723217010498,-0.01394800003618002
1788107650851470000,6.807469970703125,7.212341785430908,6.634888172149658,-0.01824199967086315
1788107650861561300,6.817561279296875,7.207168102264404,6.640503883361816,-0.020711999386548996
1788107650871647500,6.8276474609375,7.204586029052734,6.643305778503418,-0.020302999764680862
1788107650881733600,6.837733642578125,7.2054290771484375,6.642398834228516,-0.01897200010716915
1788107650891815700,6.847815673828125,7.208176136016846,6.639409065246582,-0.02195899933576584
1788107650901909200,6.8579091796875,7.209268093109131,6.6381731033325195,-0.03346800059080124
1788107650911993900,6.867993896484375,7.205655097961426,6.6419758796691895,-0.051732998341321945
1788107650922085400,6.87808544921875,7.196718215942383,6.6515069007873535,-0.06846500188112259
1788107650932173300,6.88817333984375,7.184515953063965,6.664600849151611,-0.07655400037765503
1788107650942280400,6.898280517578125,7.173285961151123,6.676706790924072,-0.07466000318527222
1788107650952377600,6.908377685546875,7.167232036590576,6.683300971984863,-0.0656920000910759
1788107650972566300,6.928566162109375,7.178089141845703,6.671810150146484,-0.04467599838972092
1788107650982656800,6.93865673828125,7.193787097930908,6.654908180236816,-0.03995500132441521
1788107650992739800,6.94873974609375,7.2134480476379395,6.633603096008301,-0.03771299868822098
1788107651002831600,6.95883154296875,7.234014987945557,6.611195087432861,-0.03286600112915039
1788107651012918800,6.968918701171875,7.252474784851074,6.5909647941589355,-0.02834700047969818
1788107651022999600,6.97899951171875,7.267016887664795,6.574940204620361,-0.025262000039219856
1788107651033092400,6.98909228515625,7.276485919952393,6.564464092254639,-0.02325199916958809
1788107651043183900,6.999183837890625,7.280820846557617,6.559667110443115,-0.020214999094605446
1788107651053270500,7.0092705078125,7.281277179718018,6.559173107147217,-0.015690000727772713
1788107651063358000,7.01935791015625,7.279984951019287,6.560625076293945,-0.007236999925225973
1788107651073440300,7.029440185546875,7.279911041259766,6.560704231262207,0.002440999960526824
1788107651083527400,7.03952734375,7.283307075500488,6.556924819946289,0.012892000377178192
1788107651093611800,7.04961181640625,7.291044235229492,6.54829216003418,0.023044999688863754
1788107651103699700,7.05969970703125,7.303674221038818,6.534160137176514,0.033337999135255814
1788107651113781000,7.069781005859375,7.320826053619385,6.51487398147583,0.04358299821615219
1788107651123870700,7.07987060546875,7.340836048126221,6.492246150970459,0.0533749982714653
1788107651133956400,7.089956298828125,7.362135887145996,6.468010902404785,0.0613970011472702
1788107651144037600,7.10003759765625,7.381698131561279,6.4456257820129395,0.06658799946308136
1788107651154125300,7.110125244140625,7.397353172302246,6.427631855010986,0.06839500367641449
1788107651164212000,7.1202119140625,7.40951681137085,6.41359806060791,0.06948000192642212
1788107651174296600,7.130296630859375,7.419353008270264,6.40217399597168,0.07331900298595428
1788107651184379100,7.140379150390625,7.430389881134033,6.389263153076172,0.08137200027704239
1788107651194476300,7.150476318359375,7.445321083068848,6.371728897094727,0.09085600078105927
1788107651204553000,7.160552978515625,7.465243816375732,6.348264217376709,0.09837400168180466
1788107651214645200,7.170645263671875,7.488450050354004,6.320838928222656,0.10060399770736694
1788107651224722200,7.18072216796875,7.5122551918029785,6.292593002319336,0.09650100022554398
1788107651234813000,7.19081298828125,7.533880233764648,6.266791820526123,0.08913099765777588
1788107651244892000,7.200891845703125,7.549407005310059,6.2482099533081055,0.07956299930810928
1788107651254978600,7.210978515625,7.5563530921936035,6.239931106567383,0.06928099691867828
1788107651265056000,7.221055908203125,7.554574966430664,6.242177963256836,0.06018200144171715
1788107651275149000,7.231149169921875,7.5449748039245605,6.253838062286377,0.053568001836538315
1788107651285234400,7.241234375,7.5289998054504395,6.273108005523682,0.047593001276254654
1788107651295314200,7.251314208984375,7.509246826171875,6.2968058586120605,0.038081999868154526
1788107651305401600,7.261401611328125,7.488851070404053,6.321112155914307,0.02635600045323372
1788107651315493000,7.2714931640625,7.470083236694336,6.343308925628662,0.015988999977707863
1788107651325567000,7.28156689453125,7.454723834991455,6.361365795135498,0.008375000208616257
1788107651335656000,7.291656005859375,7.442739963531494,6.375389099121094,0.0020039998926222324
1788107651345730600,7.30173046875,7.435173034667969,6.384214878082275,-0.00253499997779727
1788107651355819000,7.311819091796875,7.431423187255859,6.388579845428467,-0.005840000230818987
1788107651365909200,7.3219091796875,7.4293999671936035,6.39092493057251,-0.009575000032782555
1788107651375998700,7.331998779296875,7.427581787109375,6.393030166625977,-0.013057000003755093
1788107651386087000,7.3420869140625,7.424503803253174,6.396597862243652,-0.01713399961590767
1788107651396179000,7.352178955078125,7.4189958572387695,6.402975082397461,-0.020905999466776848
1788107651406263000,7.362262939453125,7.411098003387451,6.412113189697266,-0.021541999652981758
1788107651416348200,7.37234814453125,7.402847766876221,6.4216508865356445,-0.01661599986255169
1788107651426438100,7.382438232421875,7.396233081817627,6.429285049438477,-0.00698099983856082
1788107651436527900,7.39252783203125,7.39279317855835,6.433237075805664,0.005795000120997429
1788107651446612500,7.402612548828125,7.393661975860596,6.432215213775635,0.018946999683976173
1788107651456700700,7.41270068359375,7.39952278137207,6.425434112548828,0.029124999418854713
1788107651466780200,7.4227802734375,7.408270835876465,6.4153242111206055,0.033661000430583954
1788107651476872400,7.43287255859375,7.417396068572998,6.404770851135254,0.03369000181555748
1788107651486960000,7.442960205078125,7.424129009246826,6.396973133087158,0.032166000455617905
1788107651497043000,7.45304296875,7.426277160644531,6.394482135772705,0.031679000705480576
1788107651507136300,7.46313623046875,7.423285007476807,6.397956848144531,0.03115200065076351
1788107651517226000,7.47322607421875,7.415588855743408,6.406898021697998,0.026169000193476677
1788107651527303700,7.4833037109375,7.405035972595215,6.419130802154541,0.015776999294757843
1788107651537383400,7.493383544921875,7.395326137542725,6.430325031280518,0.004222999792546034
1788107651547459300,7.503459228515625,7.390373229980469,6.436020851135254,-0.004404000006616116
1788107651557549800,7.5135498046875,7.393189907073975,6.432776927947998,-0.009196000173687935
1788107651567631000,7.523631103515625,7.403923988342285,6.420417785644531,-0.012442000210285187
1788107651577713700,7.533713623046875,7.4203691482543945,6.401395797729492,-0.016158999875187874
1788107651587792600,7.543792724609375,7.43756103515625,6.381396770477295,-0.0212629996240139
1788107651597881900,7.5538818359375,7.449682235717773,6.367204189300537,-0.03057200089097023
1788107651607966700,7.563966796875,7.453277111053467,6.3629279136657715,-0.04271399974822998
1788107651618047000,7.574046875,7.4465789794921875,6.370694160461426,-0.052246998995542526
1788107651628134700,7.584134765625,7.431826114654541,6.387877941131592,-0.05466099828481674
1788107651638217700,7.5942177734375,7.413330078125,6.409390926361084,-0.047363001853227615
1788107651648300000,7.604300048828125,7.397678852081299,6.427555084228516,-0.031000999733805656
1788107651658386000,7.614385986328125,7.390500068664551,6.435867786407471,-0.010192999616265297
1788107651668471800,7.624471923828125,7.39347505569458,6.432450771331787,0.009239999577403069
1788107651678563000,7.63456298828125,7.405076026916504,6.419060230255127,0.02122499980032444
1788107651688642000,7.64464208984375,7.42055082321167,6.401147842407227,0.02706800028681755
1788107651698732300,7.654732177734375,7.433409214019775,6.386203765869141,0.028735000640153885
1788107651708815600,7.664815673828125,7.439067840576172,6.379605770111084,0.030175000429153442
1788107651718903000,7.674903076171875,7.4343109130859375,6.38514518737793,0.030998999252915382
1788107651729000400,7.68500048828125,7.419661045074463,6.4021711349487305,0.028984999284148216
1788107651739095000,7.695094970703125,7.396427154541016,6.42901611328125,0.023711999878287315
1788107651749181000,7.705180908203125,7.367467880249023,6.46221399307251,0.015356999821960926
1788107651759266300,7.715266357421875,7.337220191955566,6.496545791625977,0.00871300045400858
1788107651769345000,7.725344970703125,7.3103861808776855,6.526724815368652,0.007641000207513571
1788107651779435000,7.73543505859375,7.292238235473633,6.5469889640808105,0.012609999626874924
1788107651789521400,7.745521484375,7.286445140838623,6.553422927856445,0.020356999710202217
1788107651799611400,7.755611328125,7.29299783706665,6.546119213104248,0.023638999089598656
1788107651809712000,7.765712158203125,7.307500839233398,6.5299391746521,0.017841000109910965
1788107651819800600,7.775800537109375,7.3223161697387695,6.513344764709473,0.001930000027641654
1788107651829886000,7.785885986328125,7.332770824432373,6.50155782699585,-0.014781000092625618
1788107651839978200,7.795978271484375,7.337225914001465,6.49649715423584,-0.02454099990427494
1788107651850066400,7.80606640625,7.3374528884887695,6.4962382316589355,-0.02555900067090988
1788107651860160800,7.816160888671875,7.339280128479004,6.494194984436035,-0.018651999533176422
1788107651870247700,7.82624755859375,7.348080158233643,6.484260082244873,-0.008673000149428844
1788107651880340000,7.836340087890625,7.365876197814941,6.46404504776001,0.0011480000102892518
1788107651890428200,7.84642822265625,7.393371105194092,6.432570934295654,0.008445000275969505
1788107651900521700,7.856521728515625,7.427768230438232,6.392806053161621,0.014736000448465347
1788107651910606000,7.866606201171875,7.465539932250977,6.34864616394043,0.020302999764680862
1788107651920697900,7.87669775390625,7.5014448165893555,6.306160926818848,0.024142999202013016
1788107651940877600,7.896877685546875,7.555727005004883,6.241002082824707,0.02979700081050396
1788107651950962200,7.906962158203125,7.5713958740234375,6.221963882446289,0.0332770012319088
1788107651961047000,7.917047119140625,7.579358100891113,6.212242126464844,0.036779001355171204
1788107651971137000,7.927136962890625,7.581145763397217,6.210020065307617,0.042663998901844025
1788107651981227500,7.9372275390625,7.58168888092041,6.209290981292725,0.052230000495910645
1788107651991304400,7.947304443359375,7.585938930511475,6.203955173492432,0.066880002617836
1788107652001396700,7.957396728515625,7.597075939178467,6.190067768096924,0.08666499704122543
1788107652011480300,7.967480224609375,7.617588996887207,6.164422988891602,0.11070399731397629
1788107652021571800,7.97757177734375,7.6456990242004395,6.129039764404297,0.13472199440002441
1788107652041748700,7.997748779296875,7.7114691734313965,6.045188903808594,0.17008699476718903
1788107652051832300,8.007832275390625,7.741093158721924,6.006910800933838,0.1802240014076233
1788107652061924400,8.01792431640625,7.763833999633789,5.977242946624756,0.1883690059185028
1788107652072008200,8.02800830078125,7.777001857757568,5.959833145141602,0.1965249925851822
1788107652082098000,8.038097900390625,7.781198978424072,5.954030990600586,0.20609000325202942
1788107652092188700,8.048188720703125,7.778469085693359,5.957143783569336,0.21874000132083893
1788107652102279700,8.05827978515625,7.772932052612305,5.963749885559082,0.234948992729187
1788107652112365800,8.06836572265625,7.767577171325684,5.970077991485596,0.2507930099964142
1788107652122509600,8.078509521484374,7.764145851135254,5.97406005859375,0.26197901368141174
1788107652142731000,8.09873095703125,7.760809898376465,5.978357791900635,0.2627739906311035
1788107652152816000,8.108816162109376,7.757900238037109,5.982515811920166,0.2539460062980652
1788107652162902000,8.118902099609375,7.751877784729004,5.990804195404053,0.24218100309371948
1788107652172998000,8.128997802734375,7.741610050201416,6.004586219787598,0.2290090024471283
1788107652183085000,8.1390849609375,7.727431774139404,6.023231029510498,0.2179040014743805
1788107652193174300,8.14917431640625,7.710753917694092,6.044791221618652,0.21156999468803406
1788107652203260200,8.15926025390625,7.6935272216796875,6.066742897033691,0.2104090005159378
1788107652213346600,8.1693466796875,7.6778669357299805,6.086418151855469,0.21416600048542023
1788107652223426600,8.179426513671874,7.666810989379883,6.100118160247803,0.22035099565982819
1788107652233549800,8.1895498046875,7.662899971008301,6.104719161987305,0.22876900434494019
1788107652243637500,8.199637451171874,7.667818069458008,6.0981950759887695,0.2378859966993332
1788107652253721900,8.209721923828125,7.6812567710876465,6.080925941467285,0.24630500376224518
1788107652263805000,8.219804931640626,7.700230121612549,6.056692123413086,0.25082701444625854
1788107652273891300,8.229891357421875,7.721049785614014,6.030068874359131,0.25227999687194824
1788107652283977000,8.23997705078125,7.740324020385742,6.005258083343506,0.25359800457954407
1788107652294059000,8.25005908203125,7.755404949188232,5.985651016235352,0.2562589943408966
1788107652304141300,8.260141357421874,7.766043186187744,5.971556186676025,0.2628139853477478
1788107652314226200,8.27022607421875,7.7732319831848145,5.961771011352539,0.2723329961299896
1788107652324304000,8.280303955078125,7.779106140136719,5.953580856323242,0.28350600600242615
1788107652334385200,8.29038525390625,7.785371780395508,5.944888114929199,0.2937310039997101
1788107652344476400,8.300476318359374,7.7922539710998535,5.935435771942139,0.30224400758743286
1788107652354564900,8.31056494140625,7.799037933349609,5.926076889038086,0.31081199645996094
1788107652364652800,8.32065283203125,7.8059282302856445,5.916505813598633,0.3200879991054535
1788107652374731500,8.3307314453125,7.813539981842041,5.90594482421875,0.32927200198173523
1788107652384829400,8.340829345703124,7.821751117706299,5.894629001617432,0.33698999881744385
1788107652394908000,8.350907958984376,7.8309550285339355,5.882118225097656,0.34182900190353394
1788107652404997400,8.360997314453124,7.840685844421387,5.869112968444824,0.3422490060329437
1788107652415076400,8.371076416015624,7.849485874176025,5.857693195343018,0.33616599440574646
1788107652425163800,8.381163818359376,7.856090068817139,5.8494720458984375,0.324847012758255
1788107652435252000,8.391251953125,7.859365940093994,5.845902919769287,0.30948498845100403
1788107652445340700,8.401340576171876,7.859392166137695,5.846695899963379,0.2934409976005554
1788107652455416800,8.411416748046875,7.857521057128906,5.84991979598999,0.2789349853992462
1788107652465511200,8.42151123046875,7.856337070465088,5.852142810821533,0.26532799005508423
1788107652475596800,8.4315966796875,7.858962059020996,5.84916877746582,0.25278499722480774
1788107652485688000,8.44168798828125,7.867427825927734,5.838397979736328,0.23809300363063812
1788107652495785000,8.451784912109375,7.880888938903809,5.821053981781006,0.2166520059108734
1788107652505874700,8.461874755859375,7.897363185882568,5.799674987792969,0.18819299340248108
1788107652515957000,8.47195703125,7.913948059082031,5.778049945831299,0.1534309983253479
1788107652526050300,8.48205029296875,7.92664909362793,5.761491775512695,0.11590699851512909
1788107652536137700,8.4921376953125,7.932988166809082,5.753387928009033,0.07889900356531143
1788107652546222000,8.50222216796875,7.933952808380127,5.752408981323242,0.046636998653411865
1788107652556305200,8.51230517578125,7.931551933288574,5.755875110626221,0.018012000247836113
1788107652566395100,8.52239501953125,7.929251194000244,5.7590742111206055,-0.007792999967932701
1788107652576476000,8.532475830078125,7.929943084716797,5.758030891418457,-0.032843999564647675
1788107652586566700,8.542566650390626,7.935219764709473,5.750527858734131,-0.06022899970412254
1788107652596649000,8.55264892578125,7.94494104385376,5.736642837524414,-0.0937889963388443
1788107652606739700,8.56273974609375,7.954938888549805,5.721996784210205,-0.13298000395298004
1788107652616825000,8.5728251953125,7.961388111114502,5.711888790130615,-0.17501699924468994
1788107652626915800,8.582915771484375,7.961455821990967,5.710423946380615,-0.21507500112056732
1788107652636994600,8.59299462890625,7.955185890197754,5.717782020568848,-0.24888600409030914
1788107652647072300,8.603072265625,7.944207191467285,5.731801986694336,-0.2756569981575012
1788107652657162500,8.61316259765625,7.931609153747559,5.7480950355529785,-0.29833099246025085
1788107652667251200,8.623251220703125,7.919906139373779,5.762942790985107,-0.32176899909973145
1788107652677343200,8.63334326171875,7.910130977630615,5.774835109710693,-0.34797000885009766
1788107652687431000,8.643430908203126,7.9024882316589355,5.783473968505859,-0.3769739866256714
1788107652697509600,8.653509521484375,7.895631790161133,5.790894985198975,-0.40564000606536865
1788107652707596500,8.663596435546875,7.888144016265869,5.799373149871826,-0.429502010345459
1788107652717679000,8.67367919921875,7.879745960235596,5.8094987869262695,-0.4464870095252991
1788107652727764200,8.68376416015625,7.870759963989258,5.820656776428223,-0.45939698815345764
1788107652737848000,8.69384814453125,7.862247943878174,5.8311991691589355,-0.47135499119758606
1788107652747939000,8.70393896484375,7.855045795440674,5.839894771575928,-0.4836040139198303
1788107652758023000,8.71402294921875,7.848750114440918,5.847346782684326,-0.4956429898738861
1788107652768107000,8.72410693359375,7.842949867248535,5.854211807250977,-0.5062699913978577
1788107652778192100,8.734192138671874,7.8376288414001465,5.860591888427734,-0.5148559808731079
1788107652788273000,8.74427294921875,7.83247184753418,5.866880893707275,-0.5216289758682251
1788107652798362400,8.7543623046875,7.827282905578613,5.8733110427856445,-0.5271369814872742
1788107652808452000,8.7644521484375,7.822343826293945,5.8795061111450195,-0.5313529968261719
1788107652818530800,8.77453076171875,7.818437099456787,5.884390830993652,-0.534762978553772
1788107652828616200,8.7846162109375,7.816234111785889,5.887040138244629,-0.5378509759902954
1788107652838696200,8.7946962890625,7.816271781921387,5.886721134185791,-0.5407909750938416
1788107652848788700,8.804788818359375,7.819846153259277,5.881759166717529,-0.543067991733551
1788107652858862800,8.81486279296875,7.826543807983398,5.87265682220459,-0.5450519919395447
1788107652868954600,8.82495458984375,7.837316036224365,5.8581061363220215,-0.5468479990959167
1788107652879033600,8.83503369140625,7.85103178024292,5.839655876159668,-0.5474939942359924
1788107652889126000,8.8451259765625,7.866974830627441,5.818212985992432,-0.5468980073928833
1788107652899214800,8.85521484375,7.884375095367432,5.794742107391357,-0.545524001121521
1788107652909308200,8.86530810546875,7.902921199798584,5.769748210906982,-0.542074978351593
1788107652919393000,8.87539306640625,7.922532081604004,5.743275165557861,-0.5368850231170654
1788107652929481000,8.88548095703125,7.943178176879883,5.715206146240234,-0.5312880277633667
1788107652939565000,8.89556494140625,7.964261054992676,5.686247825622559,-0.5264899730682373
1788107652949655800,8.90565576171875,7.98502779006958,5.6573710441589355,-0.5229570269584656
1788107652959745000,8.9157451171875,8.0040922164917,5.6304850578308105,-0.5216360092163086
1788107652969832700,8.925832763671876,8.019726753234863,5.6080732345581055,-0.5228840112686157
1788107652979921200,8.935921142578126,8.031275749206543,5.5914998054504395,-0.5231789946556091
1788107652990005200,8.946005126953125,8.03822135925293,5.581718921661377,-0.5209869742393494
1788107653000101600,8.9561015625,8.041032791137695,5.578179836273193,-0.5154520273208618
1788107653010193200,8.966193115234375,8.041705131530762,5.577942848205566,-0.5074939727783203
1788107653020284200,8.9762841796875,8.042430877685547,5.577951908111572,-0.49572598934173584
1788107653030365700,8.98636572265625,8.04545783996582,5.575069904327393,-0.4787600040435791
1788107653040457700,8.996457763671875,8.052300453186035,5.567079067230225,-0.45618900656700134
1788107653050546000,9.0065458984375,8.06304931640625,5.553741931915283,-0.42800700664520264
1788107653060637400,9.016637451171874,8.075897216796875,5.53716516494751,-0.3995630145072937
1788107653070717200,9.02671728515625,8.088643074035645,5.520504951477051,-0.37132400274276733
1788107653080809500,9.0368095703125,8.099223136901855,5.5068359375,-0.34259501099586487
1788107653090893600,9.0468935546875,8.106803894042969,5.497591018676758,-0.310249000787735
1788107653100985900,9.05698583984375,8.109955787658691,5.49484920501709,-0.2743090093135834
1788107653111065600,9.067065673828125,8.108908653259277,5.498290061950684,-0.23322799801826477
1788107653121157000,9.0771572265625,8.104921340942383,5.505946159362793,-0.1865060031414032
1788107653131245800,9.087245849609374,8.099638938903809,5.515192985534668,-0.136013001203537
1788107653141330700,9.09733056640625,8.096007347106934,5.52152681350708,-0.08585499972105026
1788107653151417300,9.107417236328125,8.09621524810791,5.521753787994385,-0.03965400159358978
1788107653161512400,9.117512451171875,8.101003646850586,5.514867782592773,0.001927000004798174
1788107653171601200,9.12760107421875,8.109938621520996,5.501571178436279,0.03931400179862976
1788107653181691100,9.137691162109375,8.121886253356934,5.483547210693359,0.07520599663257599
1788107653191778600,9.147778564453125,8.13467025756836,5.463997840881348,0.1090250015258789
1788107653201868000,9.157867919921875,8.144805908203125,5.4482421875,0.1372070014476776
1788107653211962000,9.167962158203125,8.150439262390137,5.4392409324646,0.158050999045372
1788107653222052400,9.17805224609375,8.15071964263916,5.438398838043213,0.17194700241088867
1788107653232141600,9.1881416015625,8.145448684692383,5.44601583480835,0.18045300245285034
1788107653242230500,9.19823046875,8.133954048156738,5.463088035583496,0.1829649955034256
1788107653252314600,9.208314697265624,8.117984771728516,5.486792087554932,0.18269799649715424
1788107653262403300,9.2184033203125,8.09974193572998,5.5138068199157715,0.17919500172138214
1788107653272483800,9.22848388671875,8.080462455749512,5.542252063751221,0.17202900350093842
1788107653282574300,9.23857421875,8.061859130859375,5.569558143615723,0.1625639945268631
1788107653292658400,9.248658447265624,8.043999671936035,5.595682144165039,0.14979499578475952
1788107653302748000,9.258747802734375,8.026372909545898,5.621319770812988,0.13467499613761902
1788107653312834000,9.268833984375,8.007927894592285,5.647934913635254,0.11768099665641785
1788107653322918400,9.27891845703125,7.987332820892334,5.677396774291992,0.09843800216913223
1788107653333000400,9.28900048828125,7.963967800140381,5.710453033447266,0.07739999890327454
1788107653343092200,9.29909228515625,7.937600135803223,5.747305870056152,0.0547420009970665
1788107653353179100,9.30917919921875,7.90955114364624,5.786006927490234,0.03341799974441528
1788107653363278600,9.319278564453125,7.8813371658325195,5.824460983276367,0.013224000111222267
1788107653373365000,9.329364990234374,7.854701995849609,5.860343933105469,-0.0055740000680089
1788107653383469300,9.33946923828125,7.830906867980957,5.8920578956604,-0.023838000372052193
1788107653393556500,9.349556396484376,7.810085773468018,5.919532775878906,-0.04173300042748451
1788107653403650800,9.35965087890625,7.790953159332275,5.944522857666016,-0.06039299815893173
1788107653413736400,9.369736328125,7.772695064544678,5.968167781829834,-0.07858700305223465
1788107653423828000,9.379827880859375,7.754931926727295,5.99100399017334,-0.094589002430439
1788107653433914600,9.38991455078125,7.739048957824707,6.0113091468811035,-0.10616499930620193
1788107653444000800,9.400000732421875,7.725872039794922,6.028194904327393,-0.10829900205135345
1788107653454082600,9.41008251953125,7.718719005584717,6.037505149841309,-0.09940899908542633
1788107653464175600,9.420175537109374,7.719854831695557,6.0363287925720215,-0.08097799867391586
1788107653474261000,9.430260986328125,7.732172012329102,6.020835876464844,-0.055348001420497894
1788107653484345300,9.440345458984375,7.756128787994385,5.990137100219727,-0.026409000158309937
1788107653494425300,9.45042529296875,7.790853977203369,5.9449639320373535,0.0007699999841861427
1788107653504509200,9.46050927734375,7.834559917449951,5.887200832366943,0.02300800010561943
1788107653514591700,9.470591796875,7.884923934936523,5.819484233856201,0.0399320013821125
1788107653524678000,9.480677978515626,7.9377360343933105,5.747148036956787,0.051277998834848404
1788107653544843500,9.500843505859375,8.033184051513672,5.612695217132568,0.07525300234556198
1788107653554921700,9.510921630859375,8.070433616638184,5.558793067932129,0.08893799781799316
1788107653565004500,9.521004638671876,8.10304069519043,5.510426044464111,0.12631799280643463
1788107653575079400,9.531079345703125,8.134662628173828,5.4621171951293945,0.1804639995098114
1788107653585168600,9.541168701171875,8.172087669372559,5.403217792510986,0.2494180053472519
1788107653595252000,9.551251953125,8.223638534545898,5.320219993591309,0.3270539939403534
1788107653605332000,9.56133203125,8.290751457214355,5.209572792053223,0.4046329855918884
1788107653615421000,9.5714208984375,8.369009971618652,5.07733678817749,0.4693549871444702
1788107653625514200,9.58151416015625,8.452427864074707,4.932361125946045,0.5180000066757202
1788107653635597300,9.591597412109374,8.534613609313965,4.784379005432129,0.5568770170211792
1788107653645682400,9.601682373046875,8.608448028564453,4.645686149597168,0.5935270190238953
1788107653655763000,9.611762939453126,8.668996810913086,4.526179790496826,0.6341990232467651
1788107653665847000,9.621846923828125,8.714104652404785,4.432168006896973,0.6784250140190125
1788107653675930600,9.6319306640625,8.744274139404297,4.363146781921387,0.7352809906005859
1788107653686023000,9.64202294921875,8.760851860046387,4.318525791168213,0.7985889911651611
1788107653696107500,9.652107421875,8.764941215515137,4.299136161804199,0.8562999963760376
1788107653706204000,9.662203857421876,8.759273529052734,4.300807952880859,0.9044910073280334
1788107653716278500,9.672278564453125,8.74891185760498,4.313857078552246,0.9419130086898804
1788107653726372600,9.68237255859375,8.73734188079834,4.331791877746582,0.9667050242424011
1788107653736452900,9.692452880859374,8.726911544799805,4.349236965179443,0.9824159741401672
1788107653746546000,9.7025458984375,8.716591835021973,4.368104934692383,0.9902759790420532
1788107653756631300,9.71263134765625,8.707097053527832,4.3853302001953125,0.9976469874382019
1788107653766711800,9.7227119140625,8.699339866638184,4.39895486831665,1.005295991897583
1788107653776790800,9.732790771484375,8.69308853149414,4.407985210418701,1.0197160243988037
1788107653786875100,9.742875244140626,8.688285827636719,4.414269924163818,1.0333609580993652
1788107653796960500,9.75296044921875,8.683727264404297,4.424647808074951,1.0273239612579346
1788107653807042800,9.763042724609376,8.67611026763916,4.444966793060303,1.0036540031433105
1788107653817131500,9.773131591796876,8.66542911529541,4.47133207321167,0.978551983833313
1788107653827230000,9.78322998046875,8.650769233703613,4.505276203155518,0.9521949887275696
1788107653837311200,9.793311279296875,8.6314697265625,4.547007083892822,0.9286900162696838
1788107653847394600,9.80339453125,8.610969543457031,4.589395999908447,0.9102849960327148
1788107653857480700,9.813480712890625,8.593390464782715,4.624781131744385,0.8972200155258179
1788107653867571500,9.823571533203125,8.580900192260742,4.649044990539551,0.8913559913635254
1788107653877658600,9.83365869140625,8.574243545532227,4.661561965942383,0.8900669813156128
1788107653887750000,9.84375,8.573948860168457,4.66297721862793,0.8854730129241943
1788107653897832000,9.85383203125,8.57768726348877,4.658339977264404,0.8735730051994324
1788107653907929300,9.863929443359375,8.583097457885742,4.6516499519348145,0.855925977230072
1788107653918021600,9.874021728515626,8.588288307189941,4.645771026611328,0.8355479836463928
1788107653928110800,9.88411083984375,8.591206550598145,4.643959045410156,0.8153520226478577
1788107653938195000,9.89419482421875,8.58898639678955,4.652040958404541,0.7923799753189087
1788107653948279000,9.904279052734376,8.578700065612793,4.674691200256348,0.770156979560852
1788107653958363600,9.91436376953125,8.55822467803955,4.715126037597656,0.7512170076370239
1788107653978542000,9.9345419921875,8.488177299499512,4.840819835662842,0.7465149760246277
1788107653988626700,9.944626708984375,8.447696685791016,4.908839225769043,0.7613750100135803
1788107653998706400,9.95470654296875,8.410598754882812,4.968778133392334,0.7829710245132446
1788107654008791800,9.964791748046874,8.381264686584473,5.014906883239746,0.8031719923019409
1788107654018889000,9.974888916015624,8.360228538513184,5.047776222229004,0.8164309859275818
1788107654028979200,9.984979248046875,8.346232414245605,5.070156097412109,0.8209080100059509
1788107654039068400,9.995068359375,8.339188575744629,5.082490921020508,0.8162220120429993
1788107654049167600,10.005167724609375,8.336318016052246,5.088095188140869,0.8105980157852173
1788107654059248400,10.015248291015626,8.33579158782959,5.089231014251709,0.8088859915733337
1788107654069335300,10.025335205078125,8.335152626037598,5.089777946472168,0.8120290040969849
1788107654079426800,10.0354267578125,8.332694053649902,5.092599868774414,0.8195449709892273
1788107654089511700,10.04551171875,8.328407287597656,5.097710132598877,0.83125901222229
1788107654099602000,10.055601806640626,8.322842597961426,5.104071140289307,0.8477929830551147
1788107654109693000,10.06569287109375,8.316908836364746,5.1099700927734375,0.8701969981193542
1788107654119790000,10.0757900390625,8.31100845336914,5.114698886871338,0.8982999920845032
1788107654129881300,10.08588134765625,8.306232452392578,5.11702823638916,0.9287620186805725
1788107654139965700,10.095965576171874,8.302377700805664,5.117541790008545,0.9598199725151062
1788107654150055200,10.10605517578125,8.298988342285156,5.117832183837891,0.987197995185852
1788107654160148700,10.116148681640626,8.29611873626709,5.117783069610596,1.0112700462341309
1788107654170235400,10.1262353515625,8.294864654541016,5.114963054656982,1.035559058189392
1788107654180327200,10.1363271484375,8.297268867492676,5.1062421798706055,1.0590490102767944
1788107654190411300,10.146411376953125,8.30482006072998,5.089806079864502,1.0788049697875977
1788107654200505900,10.156505859375,8.318113327026367,5.0651750564575195,1.0922399759292603
1788107654210589000,10.1665888671875,8.335659980773926,5.035676002502441,1.094871997833252
1788107654220680000,10.176679931640624,8.35407543182373,5.006502151489258,1.0882740020751953
1788107654230764000,10.186763916015625,8.369542121887207,4.983729839324951,1.0738869905471802
1788107654240854000,10.19685400390625,8.378791809082031,4.972109794616699,1.0554560422897339
1788107654250938400,10.2069384765625,8.381690979003906,4.970884799957275,1.038059949874878
1788107654261031400,10.217031494140626,8.3789701461792,4.978177070617676,1.024986982345581
1788107654271120400,10.227120361328126,8.372980117797852,4.99098014831543,1.0115959644317627
1788107654281205000,10.237205078125,8.365336418151855,5.0074639320373535,0.9931679964065552
1788107654291283700,10.24728369140625,8.356430053710938,5.028049945831299,0.9637640118598938
1788107654301376800,10.257376708984374,8.344878196716309,5.054707050323486,0.9235410094261169
1788107654311462000,10.2674619140625,8.329948425292969,5.086860179901123,0.880774974822998
1788107654321556700,10.277556640625,8.313277244567871,5.120159149169922,0.8446300029754639
1788107654331642400,10.287642333984374,8.298900604248047,5.147244930267334,0.821012020111084
1788107654341735200,10.297735107421875,8.290468215942383,5.163215160369873,0.8057889938354492
1788107654351825000,10.307824951171876,8.290671348571777,5.164535045623779,0.7951890230178833
1788107654361924400,10.31792431640625,8.301531791687012,5.148436069488525,0.7862300276756287
1788107654372005400,10.32800537109375,8.324560165405273,5.112356185913086,0.7781460285186768
1788107654382099500,10.338099365234376,8.359333038330078,5.057511806488037,0.7636560201644897
1788107654392182000,10.34818212890625,8.401142120361328,4.99198579788208,0.7354859709739685
1788107654402274800,10.35827490234375,8.444007873535156,4.925998210906982,0.6879690289497375
1788107654412357000,10.368357177734374,8.481955528259277,4.8686628341674805,0.6265000104904175
1788107654422505200,10.378505126953126,8.511503219604492,4.824553966522217,0.5638560056686401
1788107654432590800,10.3885908203125,8.530692100524902,4.796739101409912,0.508545994758606
1788107654442678500,10.398678466796875,8.541304588317871,4.782318115234375,0.46431300044059753
1788107654452755200,10.408755126953125,8.546578407287598,4.7763519287109375,0.42721399664878845
1788107654462844200,10.41884423828125,8.550233840942383,4.772708892822266,0.3933719992637634
1788107654472928500,10.428928466796876,8.555268287658691,4.766605854034424,0.3561890125274658
1788107654483007000,10.439007080078126,8.561315536499023,4.75899600982666,0.30955299735069275
1788107654493093600,10.44909375,8.567227363586426,4.751482963562012,0.25693899393081665
1788107654503183000,10.45918310546875,8.57266616821289,4.744227886199951,0.20417100191116333
1788107654513273300,10.4692734375,8.57593059539795,4.740187168121338,0.15483100712299347
1788107654523359500,10.479359375,8.574711799621582,4.743689060211182,0.10809800028800964
1788107654533487000,10.489487060546875,8.567758560180664,4.757022857666016,0.06528300046920776
1788107654543578400,10.499578369140625,8.55528736114502,4.779757022857666,0.03083699941635132
1788107654553660000,10.509659912109376,8.539684295654297,4.807671070098877,0.009448000229895115
1788107654563743500,10.519743408203125,8.524458885192871,4.834624767303467,0.0016570000443607569
1788107654573832000,10.52983203125,8.513811111450195,4.853359222412109,0.0005319999763742089
1788107654583923500,10.53992333984375,8.510310173034668,4.859486103057861,0.0005789999850094318
1788107654593996500,10.54999658203125,8.514172554016113,4.852715969085693,-0.0029360000044107437
1788107654604092700,10.5600927734375,8.523763656616211,4.83583402633667,-0.01291900034993887
1788107654614178600,10.570178466796875,8.53567123413086,4.81472110748291,-0.028217999264597893
1788107654624258000,10.580258056640625,8.544808387756348,4.79835319519043,-0.04562399908900261
1788107654634337000,10.5903369140625,8.548013687133789,4.79249906539917,-0.05846099928021431
1788107654644425000,10.600425048828125,8.542594909667969,4.802055835723877,-0.0657539963722229
1788107654654503200,10.610503173828125,8.528343200683594,4.827281951904297,-0.06831199675798416
1788107654664585000,10.6205849609375,8.507753372192383,4.863491058349609,-0.06831499934196472
1788107654674667500,10.63066748046875,8.484719276428223,4.903600215911865,-0.06505300104618073
1788107654684750600,10.64075048828125,8.462291717529297,4.942254066467285,-0.06096100062131882
1788107654694834400,10.65083447265625,8.440035820007324,4.980191230773926,-0.059303998947143555
1788107654704921000,10.660921142578125,8.415576934814453,5.021356105804443,-0.06342600286006927
1788107654715006500,10.67100634765625,8.38756275177002,5.067904949188232,-0.07190600037574768
1788107654725099800,10.681099853515626,8.355196952819824,5.120956897735596,-0.08067599684000015
1788107654735181300,10.691181396484374,8.318522453308105,5.180235862731934,-0.08563899993896484
1788107654745271000,10.70127099609375,8.27697467803955,5.246334075927734,-0.08737599849700928
1788107654755350800,10.711350830078125,8.230892181396484,5.318364143371582,-0.08620599657297134
1788107654765442300,10.7214423828125,8.180205345153809,5.396052837371826,-0.08269999921321869
1788107654775533800,10.731533935546874,8.126069068908691,5.477400779724121,-0.07118800282478333
1788107654785624800,10.741624755859375,8.072174072265625,5.556783199310303,-0.04656499996781349
1788107654795712000,10.7517119140625,8.024210929870605,5.626009941101074,-0.005249999929219484
1788107654805799200,10.761799072265624,7.986213207244873,5.679597854614258,0.050776999443769455
1788107654815884000,10.771884033203126,7.960259914398193,5.714889049530029,0.11969900131225586
1788107654825965600,10.781965576171874,7.942895889282227,5.736721992492676,0.20108599960803986
1788107654836051200,10.79205126953125,7.922408103942871,5.760858058929443,0.2965700030326843
1788107654846140700,10.802140625,7.924740791320801,5.75471305847168,0.34889400005340576
1788107654856234800,10.81223486328125,7.927177906036377,5.7496418952941895,0.37615200877189636
1788107654866320600,10.822320556640625,7.921914100646973,5.753859043121338,0.41992300748825073
1788107654876400000,10.832400146484375,7.919156074523926,5.753955841064453,0.46794599294662476
1788107654886490600,10.84249072265625,7.916938781738281,5.752283096313477,0.5228400230407715
1788107654896573000,10.852572998046876,7.919311046600342,5.742425918579102,0.5908240079879761
1788107654906666500,10.86266650390625,7.936707019805908,5.711520195007324,0.6536059975624084
1788107654916752600,10.872752685546875,7.970370769500732,5.659296035766602,0.6968520283699036
1788107654926844400,10.882844482421875,8.019078254699707,5.587670803070068,0.7157729864120483
1788107654936927000,10.892927001953124,8.077462196350098,5.504162788391113,0.7062659859657288
1788107654947011800,10.90301171875,8.14087200164795,5.413837909698486,0.6756700277328491
1788107654957102600,10.9131025390625,8.210684776306152,5.311234951019287,0.6445320248603821
1788107654967187700,10.923187744140625,8.291062355041504,5.186502933502197,0.6312029957771301
1788107654977275400,10.933275390625,8.384710311889648,5.032051086425781,0.6442530155181885
1788107654987368200,10.9433681640625,8.492742538452148,4.8435211181640625,0.6734989881515503
1788107654997451300,10.953451171875,8.612781524658203,4.621760845184326,0.7065979838371277
1788107655007545300,10.96354541015625,8.738256454467773,4.376002788543701,0.7304120063781738
1788107655017625600,10.97362548828125,8.857465744018555,4.12892484664917,0.7329919934272766
1788107655027713500,10.983713623046874,8.960071563720703,3.90584397315979,0.7081649899482727
1788107655037798400,10.99379833984375,9.039441108703613,3.7270350456237793,0.6616100072860718
1788107655047887400,11.003887451171876,9.091801643371582,3.608275890350342,0.5995399951934814
1788107655057971500,11.013971435546875,9.11502456665039,3.559536933898926,0.5348780155181885
1788107655068056800,11.024056884765624,9.109891891479492,3.580591917037964,0.4787310063838959
1788107655078147000,11.03414697265625,9.079779624938965,3.6609079837799072,0.44197800755500793
1788107655088236300,11.044236328125,9.030570030212402,3.7823429107666016,0.4275059998035431
1788107655098319000,11.054319091796875,8.96989631652832,3.923516035079956,0.432345986366272
1788107655108403500,11.064403564453125,8.906072616577148,4.064724922180176,0.44706499576568604
1788107655118489900,11.07448974609375,8.847999572753906,4.188347816467285,0.45896100997924805
1788107655128577300,11.084577392578124,8.802471160888672,4.2831830978393555,0.459212988615036
1788107655138665700,11.094665771484374,8.771977424621582,4.346747875213623,0.4452030062675476
1788107655148755200,11.104755126953124,8.75689697265625,4.379629135131836,0.41898900270462036
1788107655158838800,11.1148388671875,8.753947257995605,4.388603210449219,0.38537099957466125
1788107655168923100,11.124923095703124,8.757200241088867,4.385116100311279,0.3495349884033203
1788107655178998000,11.134998046875,8.762057304382324,4.378332138061523,0.31074801087379456
1788107655189094400,11.145094482421875,8.763622283935547,4.377740859985352,0.2724989950656891
1788107655199184600,11.1551845703125,8.758819580078125,4.3891072273254395,0.24250300228595734
1788107655209272600,11.1652724609375,8.74631118774414,4.4149651527404785,0.22381800413131714
1788107655219357700,11.175357666015625,8.724926948547363,4.457389831542969,0.217630997300148
1788107655229444400,11.1854443359375,8.695838928222656,4.513360977172852,0.22783100605010986
1788107655239524600,11.195524658203125,8.661932945251465,4.5768141746521,0.25224900245666504
1788107655249615000,11.205614990234375,8.628469467163086,4.63753604888916,0.287678986787796
1788107655259706000,11.2157060546875,8.600706100463867,4.685932159423828,0.3315789997577667
1788107655279876600,11.235876708984375,8.574557304382324,4.726545810699463,0.4203909933567047
1788107655289962800,11.245962646484376,8.578853607177734,4.715470790863037,0.4555709958076477
1788107655300054000,11.256053955078125,8.593013763427734,4.687197208404541,0.4798940122127533
1788107655310143200,11.266143310546875,8.614686965942383,4.645598888397217,0.49549400806427
1788107655320238600,11.276238525390625,8.638680458068848,4.600298881530762,0.5004720091819763
1788107655330322400,11.286322509765625,8.659551620483398,4.5614848136901855,0.4949739873409271
1788107655340412700,11.29641259765625,8.673203468322754,4.5368499755859375,0.4821909964084625
1788107655350499600,11.30649951171875,8.678722381591797,4.527978897094727,0.46605101227760315
1788107655360593000,11.316593017578125,8.676532745361328,4.533191204071045,0.456043004989624
1788107655370675500,11.326675537109375,8.669130325317383,4.547311782836914,0.45624300837516785
1788107655380764200,11.33676416015625,8.659273147583008,4.565130233764648,0.46530500054359436
1788107655390850800,11.346850830078125,8.650092124938965,4.581164836883545,0.478318989276886
1788107655400936700,11.356936767578125,8.644271850585938,4.590814113616943,0.4909439980983734
1788107655411021600,11.367021484375,8.644460678100586,4.589199066162109,0.5025699734687805
1788107655421105400,11.37710546875,8.652849197387695,4.5721821784973145,0.5131639838218689
1788107655431187000,11.38718701171875,8.670440673828125,4.5371809005737305,0.5267459750175476
1788107655441272000,11.39727197265625,8.696850776672363,4.484457969665527,0.5425800085067749
1788107655451370500,11.40737060546875,8.730113983154297,4.417398929595947,0.5583279728889465
1788107655461463800,11.4174638671875,8.767743110656738,4.340264797210693,0.5733940005302429
1788107655471551200,11.42755126953125,8.808061599731445,4.255936145782471,0.5874119997024536
1788107655481645000,11.43764501953125,8.850192070007324,4.165999889373779,0.5987849831581116
1788107655491731000,11.44773095703125,8.893415451049805,4.071688175201416,0.6070910096168518
1788107655501819100,11.457819091796875,8.935718536376953,3.9782230854034424,0.6055269837379456
1788107655511912000,11.467911865234376,8.973586082458496,3.894563913345337,0.5891900062561035
1788107655521995800,11.477995849609375,9.003292083740234,3.8297860622406006,0.5599110126495361
1788107655532075000,11.488074951171875,9.02288818359375,3.788278102874756,0.5258179903030396
1788107655542163500,11.49816357421875,9.032014846801758,3.7707369327545166,0.4942980110645294
1788107655552254700,11.508254638671875,9.032346725463867,3.7733891010284424,0.4671489894390106
1788107655562347000,11.518346923828124,9.02568531036377,3.7925829887390137,0.4396759867668152
1788107655572429600,11.5284296875,9.0134859085083,3.8250861167907715,0.4072520136833191
1788107655582521300,11.538521240234376,8.9961519241333,3.86960506439209,0.36799100041389465
1788107655592608300,11.548608154296875,8.973502159118652,3.92563796043396,0.3249259889125824
1788107655602698800,11.55869873046875,8.945576667785645,3.992302894592285,0.27945101261138916
1788107655612780000,11.568780029296875,8.91123104095459,4.071515083312988,0.2295989990234375
1788107655622873900,11.578873779296876,8.869709968566895,4.163724899291992,0.1777929961681366
1788107655632956700,11.588956787109375,8.820446968078613,4.268907070159912,0.12730999290943146
1788107655643046100,11.599046142578125,8.764062881469727,4.3845930099487305,0.08075699955224991
1788107655653125400,11.60912548828125,8.70265007019043,4.505825996398926,0.03776799887418747
1788107655663216600,11.619216552734375,8.639684677124023,4.6255669593811035,-0.0008019999950192869
1788107655673298400,11.62929833984375,8.578951835632324,4.737112045288086,-0.03599800169467926
1788107655683388700,11.639388671875,8.524068832397461,4.834815979003906,-0.06912200152873993
1788107655693471200,11.64947119140625,8.477998733520508,4.914608001708984,-0.10096699744462967
1788107655703555300,11.659555419921874,8.442317962646484,4.974861145019531,-0.13433200120925903
1788107655713639200,11.66963916015625,8.416145324707031,5.01798677444458,-0.16805399954319
1788107655723724000,11.67972412109375,8.39879322052002,5.045897960662842,-0.19797299802303314
1788107655733816300,11.68981640625,8.388223648071289,5.062514781951904,-0.22063200175762177
1788107655743905500,11.699905517578125,8.380448341369629,5.074792861938477,-0.2336769998073578
1788107655753991400,11.709991455078125,8.373820304870605,5.085691928863525,-0.23438000679016113
1788107655764075500,11.720075439453124,8.369511604309082,5.093362808227539,-0.2211579978466034
1788107655774163700,11.730163818359374,8.37031078338623,5.093132972717285,-0.1947930008172989
1788107655784246800,11.740246826171875,8.379504203796387,5.079308986663818,-0.15667299926280975
1788107655794325200,11.7503251953125,8.397307395935059,5.0510149002075195,-0.11140000075101852
1788107655804409300,11.760409423828126,8.421714782714844,5.011073112487793,-0.062008000910282135
1788107655814487800,11.77048779296875,8.45258903503418,4.959194183349609,-0.00889500044286251
1788107655824575200,11.7805751953125,8.490792274475098,4.893280982971191,0.04769999906420708
1788107655834654200,11.790654296875,8.53671646118164,4.811832904815674,0.10334199666976929
1788107655844743400,11.800743408203125,8.588226318359375,4.717992782592773,0.15136800706386566
1788107655854828800,11.810828857421875,8.640497207641602,4.6203508377075195,0.18477599322795868
1788107655864912600,11.82091259765625,8.688376426696777,4.529001235961914,0.2006469964981079
1788107655874990000,11.830989990234375,8.726475715637207,4.455050945281982,0.2027669996023178
1788107655885079800,11.841079833984375,8.75179386138916,4.405282020568848,0.19899700582027435
1788107655895159600,11.85115966796875,8.764060974121094,4.380853176116943,0.1983949989080429
1788107655905255000,11.8612548828125,8.765460968017578,4.377790927886963,0.20407000184059143
1788107655915337500,11.87133740234375,8.760156631469727,4.3880438804626465,0.21147799491882324
1788107655925425400,11.88142529296875,8.751827239990234,4.404428958892822,0.21572500467300415
1788107655935508700,11.8915087890625,8.744264602661133,4.4195637702941895,0.21288999915122986
1788107655945598500,11.901598388671875,8.738604545593262,4.4311981201171875,0.20314699411392212
1788107655955678200,11.91167822265625,8.73491382598877,4.439151763916016,0.18776099383831024
1788107655965762600,11.921762451171874,8.732739448547363,4.4441728591918945,0.16928599774837494
1788107655975844400,11.93184423828125,8.731217384338379,4.447857856750488,0.14964400231838226
1788107655985931300,11.94193115234375,8.729621887207031,4.45156192779541,0.13162599503993988
1788107655996017400,11.952017333984376,8.727677345275879,4.45579719543457,0.11654599756002426
1788107656006106600,11.962106689453124,8.726314544677734,4.458730220794678,0.10537900030612946
1788107656016183300,11.972183349609375,8.725958824157715,4.459682941436768,0.09388799965381622
1788107656026276900,11.98227685546875,8.725738525390625,4.4604291915893555,0.077565997838974
1788107656036356000,11.992356201171875,8.725220680236816,4.461728096008301,0.05893599987030029
1788107656046450700,12.00245068359375,8.723870277404785,4.464561939239502,0.04214699938893318
1788107656056527400,12.01252734375,8.72209644317627,4.468130111694336,0.03000899963080883
1788107656066621000,12.022620849609375,8.720685958862305,4.470922946929932,0.022746000438928604
1788107656076697300,12.032697265625,8.7210693359375,4.470193862915039,0.01752699911594391
1788107656086788400,12.042788330078125,8.723954200744629,4.4645771980285645,0.013790999539196491
1788107656096867300,12.052867431640625,8.729877471923828,4.452998161315918,0.011921999976038933
1788107656106961700,12.062961669921876,8.738208770751953,4.436620235443115,0.010734000243246555
1788107656117029600,12.073029541015625,8.746282577514648,4.420687198638916,0.006730000022798777
1788107656127123000,12.083123046875,8.750591278076172,4.412160873413086,-0.0031850000377744436
1788107656137205500,12.09320556640625,8.748604774475098,4.4160637855529785,-0.017138000577688217
1788107656147294200,12.103294189453125,8.74052906036377,4.431960105895996,-0.029552999883890152
1788107656157375200,12.113375244140625,8.72705078125,4.458387851715088,-0.03764199838042259
1788107656167463000,12.123462890625,8.709317207336426,4.492846965789795,-0.04577400162816048
1788107656177548800,12.133548828125,8.689868927001953,4.5302348136901855,-0.0566370002925396
1788107656187639000,12.14363916015625,8.671445846557617,4.56520414352417,-0.07045900076627731
1788107656197721900,12.153721923828124,8.657218933105469,4.591862201690674,-0.08565299957990646
1788107656207806700,12.163806640625,8.647814750671387,4.60919713973999,-0.1031389981508255
1788107656217878000,12.1738779296875,8.642465591430664,4.618747234344482,-0.12254200130701065
1788107656227966200,12.18396630859375,8.640364646911621,4.622103214263916,-0.1424729973077774
1788107656238049500,12.194049560546874,8.641905784606934,4.618564128875732,-0.16234299540519714
1788107656248138500,12.204138427734375,8.647018432617188,4.608302116394043,-0.18043699860572815
1788107656258222300,12.214222412109375,8.654831886291504,4.592861175537109,-0.19882099330425262
1788107656268313300,12.224313232421874,8.665152549743652,4.572505950927734,-0.21750600636005402
1788107656278387200,12.23438720703125,8.677661895751953,4.547891139984131,-0.23414500057697296
1788107656288481500,12.2444814453125,8.692998886108398,4.517549991607666,-0.2519319951534271
1788107656298565000,12.254565185546875,8.708976745605469,4.485310077667236,-0.27517199516296387
1788107656308692200,12.264692138671874,8.72249984741211,4.457040786743164,-0.30452799797058105
1788107656318779400,12.274779296875,8.731074333190918,4.437957763671875,-0.3359220027923584
1788107656328871000,12.284870849609375,8.734121322631836,4.4298200607299805,-0.363085001707077
1788107656338959400,12.29495947265625,8.732321739196777,4.43179178237915,-0.38183799386024475
1788107656349051000,12.30505078125,8.728018760681152,4.439197063446045,-0.3939180076122284
1788107656359134200,12.31513427734375,8.722801208496094,4.448792934417725,-0.4012430012226105
1788107656369235200,12.325235107421875,8.718194007873535,4.45725679397583,-0.4073390066623688
1788107656379318500,12.335318603515624,8.715530395507812,4.462127208709717,-0.41109898686408997
1788107656389404700,12.34540478515625,8.716129302978516,4.460832118988037,-0.41244399547576904
1788107656399495400,12.355495361328124,8.720420837402344,4.452338218688965,-0.4134939908981323
1788107656409594600,12.3655947265625,8.726964950561523,4.439248085021973,-0.41611599922180176
1788107656419695900,12.37569580078125,8.733545303344727,4.425613880157471,-0.42315199971199036
1788107656429790200,12.385790283203125,8.737702369689941,4.416444778442383,-0.43314799666404724
1788107656439877000,12.395877197265625,8.737848281860352,4.414875030517578,-0.445935994386673
1788107656449965300,12.40596533203125,8.732791900634766,4.423244953155518,-0.4617820084095001
1788107656460057000,12.41605712890625,8.72269058227539,4.4415178298950195,-0.477088987827301
1788107656470148400,12.4261484375,8.709329605102539,4.466350078582764,-0.4891340136528015
1788107656480232700,12.436232666015625,8.695788383483887,4.4920549392700195,-0.49474599957466125
1788107656490327300,12.446327392578125,8.685235023498535,4.512335777282715,-0.4955039918422699
1788107656500415500,12.45641552734375,8.679713249206543,4.5230889320373535,-0.49417200684547424
1788107656510539300,12.466539306640625,8.680022239685059,4.522425174713135,-0.4948279857635498
1788107656520624600,12.476624755859374,8.685615539550781,4.511027812957764,-0.5006830096244812
1788107656530715400,12.48671533203125,8.694360733032227,4.492632865905762,-0.5141950249671936
1788107656540795400,12.49679541015625,8.704463005065918,4.470427989959717,-0.536329984664917
1788107656550886400,12.506886474609376,8.713813781738281,4.448783874511719,-0.5637149810791016
1788107656560971800,12.5169716796875,8.71950912475586,4.433657169342041,-0.5939919948577881
1788107656571066000,12.527066162109374,8.721209526062012,4.4264631271362305,-0.6220380067825317
1788107656581156400,12.53715625,8.720039367675781,4.4255452156066895,-0.6445389986038208
1788107656591254500,12.547254638671875,8.717147827148438,4.428736209869385,-0.6615430116653442
1788107656601342200,12.55734228515625,8.713146209716797,4.43413782119751,-0.6778789758682251
1788107656611428000,12.567427978515624,8.707521438598633,4.441864967346191,-0.6992130279541016
1788107656621519000,12.57751904296875,8.70144271850586,4.449480056762695,-0.7259340286254883
1788107656631609000,12.587609130859375,8.696698188781738,4.45405387878418,-0.7542570233345032
1788107656641697000,12.597697021484375,8.693787574768066,4.454660892486572,-0.7835860252380371
1788107656651790800,12.607790771484375,8.692632675170898,4.451869010925293,-0.8117939829826355
1788107656661881300,12.61788134765625,8.693024635314941,4.44569206237793,-0.8409010171890259
1788107656671969500,12.627969482421875,8.69452953338623,4.4372639656066895,-0.8694279789924622
1788107656682061000,12.63806103515625,8.696894645690918,4.427404880523682,-0.8956050276756287
1788107656692160300,12.64816015625,8.699810981750488,4.416598796844482,-0.9202799797058105
1788107656702254000,12.658254150390626,8.702774047851562,4.405363082885742,-0.9457740187644958
1788107656712348400,12.668348388671875,8.705470085144043,4.394111156463623,-0.9729030132293701
1788107656722428700,12.6784287109375,8.70822525024414,4.382334232330322,-1.0009709596633911
1788107656732517400,12.688517333984375,8.710393905639648,4.371300220489502,-1.0299309492111206
1788107656742603000,12.69860302734375,8.712035179138184,4.361362934112549,-1.0578140020370483
1788107656752696000,12.708696044921876,8.713003158569336,4.352613925933838,-1.0855159759521484
1788107656762781400,12.718781494140625,8.712974548339844,4.3460259437561035,-1.1118110418319702
1788107656772868000,12.7288681640625,8.712702751159668,4.340766906738281,-1.1342660188674927
1788107656782949600,12.73894970703125,8.712796211242676,4.335658073425293,-1.1529209613800049
1788107656793035300,12.74903515625,8.713699340820312,4.329164981842041,-1.1703649759292603
1788107656803121700,12.75912158203125,8.716141700744629,4.319431781768799,-1.1880249977111816
1788107656813211100,12.769211181640625,8.720430374145508,4.305903911590576,-1.2055100202560425
1788107656823291000,12.779290771484375,8.726774215698242,4.288033962249756,-1.223196029663086
1788107656833375000,12.789375,8.734197616577148,4.267176151275635,-1.242959976196289
1788107656843456500,12.79945654296875,8.741988182067871,4.244441986083984,-1.2658419609069824
1788107656853548000,12.809548095703125,8.749931335449219,4.22096586227417,-1.2892279624938965
1788107656863630600,12.819630615234376,8.758060455322266,4.197784900665283,-1.3095649480819702
1788107656873717000,12.829717041015625,8.766627311706543,4.174678802490234,-1.3259960412979126
1788107656883799000,12.839799072265626,8.77577018737793,4.151025772094727,-1.3397259712219238
1788107656893887200,12.84988720703125,8.785554885864258,4.126215934753418,-1.3521699905395508
1788107656903973000,12.85997314453125,8.79614543914795,4.099233150482178,-1.3653260469436646
1788107656914055200,12.87005517578125,8.807722091674805,4.070007801055908,-1.3780529499053955
1788107656924136400,12.880136474609374,8.820951461791992,4.037318229675293,-1.3895349502563477
1788107656934226400,12.890226318359375,8.834929466247559,4.001550197601318,-1.4041550159454346
1788107656944314000,12.900314208984375,8.848516464233398,3.9646849632263184,-1.423037052154541
1788107656954398500,12.9103984375,8.861599922180176,3.928049087524414,-1.4430689811706543
1788107656964482600,12.920482666015625,8.87449836730957,3.8919599056243896,-1.4614670276641846
1788107656974567400,12.9305673828125,8.886897087097168,3.8572919368743896,-1.4779670238494873
1788107656984644400,12.940644287109375,8.898545265197754,3.8249928951263428,-1.491758942604065
1788107656994734600,12.950734619140626,8.911043167114258,3.7924740314483643,-1.500167965888977
1788107657004816600,12.960816650390624,8.925132751464844,3.7583398818969727,-1.5023030042648315
1788107657014901200,12.9709013671875,8.94032096862793,3.7224299907684326,-1.501376986503601
1788107657024980200,12.980980224609375,8.955217361450195,3.685781955718994,-1.5030239820480347
1788107657035061200,12.991061279296876,8.968982696533203,3.650279998779297,-1.5075769424438477
1788107657045139200,13.00113916015625,8.98189640045166,3.6167550086975098,-1.5115089416503906
1788107657055229700,13.011229736328126,8.994098663330078,3.58528208732605,-1.5139100551605225
1788107657065312300,13.021312255859375,9.005990982055664,3.5544190406799316,-1.5160130262374878
1788107657075396900,13.03139697265625,9.017992973327637,3.522900104522705,-1.5182050466537476
1788107657085477000,13.04147705078125,9.030285835266113,3.4910600185394287,-1.5186829566955566
1788107657095564000,13.05156396484375,9.042704582214355,3.4592089653015137,-1.517680048942566
1788107657105652000,13.06165185546875,9.05470085144043,3.428597927093506,-1.5156309604644775
1788107657115741400,13.071741455078126,9.065657615661621,3.4007699489593506,-1.5128270387649536
1788107657125815800,13.08181591796875,9.075380325317383,3.3765459060668945,-1.5087939500808716
1788107657135907800,13.091907958984375,9.082378387451172,3.3586161136627197,-1.506680965423584
1788107657145986300,13.101986328125,9.08503246307373,3.3506739139556885,-1.508362054824829
1788107657156071700,13.11207177734375,9.083640098571777,3.352536916732788,-1.5126019716262817
1788107657166159400,13.122159423828125,9.079529762268066,3.363262891769409,-1.5134860277175903
1788107657176243700,13.13224365234375,9.073957443237305,3.3816640377044678,-1.5058640241622925
1788107657186322700,13.14232275390625,9.067896842956543,3.4043779373168945,-1.4911259412765503
1788107657196413700,13.15241357421875,9.063209533691406,3.4265120029449463,-1.4687600135803223
1788107657206494200,13.162494140625,9.060888290405273,3.4449470043182373,-1.439661979675293
1788107657216576500,13.172576416015625,9.060555458068848,3.4590249061584473,-1.407641053199768
1788107657226662400,13.182662353515624,9.06238842010498,3.4663119316101074,-1.3776079416275024
1788107657236747800,13.192747802734376,9.066418647766113,3.4652678966522217,-1.3535100221633911
1788107657246828500,13.20282861328125,9.072820663452148,3.456613063812256,-1.3325819969177246
1788107657256920000,13.212920166015625,9.081469535827637,3.442425012588501,-1.3102200031280518
1788107657267001300,13.22300146484375,9.09241771697998,3.4237539768218994,-1.2828949689865112
1788107657277086000,13.2330859375,9.104827880859375,3.4021880626678467,-1.2518670558929443
1788107657287165200,13.243165283203124,9.117695808410645,3.3784871101379395,-1.2220779657363892
1788107657297258200,13.25325830078125,9.128244400024414,3.358431100845337,-1.1983510255813599
1788107657307342600,13.263342529296875,9.133830070495605,3.3476710319519043,-1.1858689785003662
1788107657317428700,13.2734287109375,9.133167266845703,3.3497281074523926,-1.1851420402526855
1788107657327512000,13.283511962890625,9.125190734863281,3.3670010566711426,-1.1975699663162231
1788107657337595600,13.293595703125,9.11119270324707,3.399271011352539,-1.21288001537323
1788107657347680800,13.3036806640625,9.092886924743652,3.44425892829895,-1.2233079671859741
1788107657357773000,13.31377294921875,9.071099281311035,3.4995639324188232,-1.2280819416046143
1788107657367857700,13.323857666015625,9.045587539672852,3.5635340213775635,-1.2322770357131958
1788107657388024000,13.344024169921875,8.983964920043945,3.7097818851470947,-1.2513619661331177
1788107657398111200,13.354111328125,8.950499534606934,3.78603196144104,-1.2627619504928589
1788107657408195300,13.3641953125,8.918197631835938,3.8585450649261475,-1.2717759609222412
1788107657418284000,13.374283935546876,8.88829517364502,3.925178050994873,-1.2771680355072021
1788107657428372700,13.384372802734376,8.861968040466309,3.9840989112854004,-1.2776789665222168
1788107657438462000,13.3944619140625,8.839673042297363,4.0342488288879395,-1.2747550010681152
1788107657448543200,13.404543212890625,8.820392608642578,4.076845169067383,-1.272807002067566
1788107657458635500,13.414635498046875,8.803840637207031,4.112525939941406,-1.2726099491119385
1788107657468720000,13.42472021484375,8.789531707763672,4.14251184463501,-1.2742700576782227
1788107657478810400,13.434810302734375,8.777502059936523,4.167389869689941,-1.2760549783706665
1788107657488889000,13.44488916015625,8.768401145935059,4.186628818511963,-1.2756539583206177
1788107657498976500,13.4549765625,8.762893676757812,4.199721813201904,-1.2704509496688843
