time,seconds_elapsed,z,y,x
1788107644151741000,0.107740966796875,-0.4386250078678131,-0.28737500309944153,-0.1307625025510788
1788107644161843000,0.117843017578125,-0.467912495136261,-0.28008750081062317,-0.10381250083446503
1788107644171927300,0.12792724609375,-0.46915000677108765,-0.3068999946117401,-0.08181250095367432
1788107644182011100,0.13801123046875,-0.45333749055862427,-0.3521375060081482,-0.05871250107884407
1788107644192096300,0.14809619140625,-0.4545750021934509,-0.3863750100135803,-0.02199999988079071
1788107644242585900,0.1985859375,-0.44481250643730164,-0.42294999957084656,0.08304999768733978
1788107644262763800,0.218763671875,-0.45691248774528503,-0.47671249508857727,0.032999999821186066
1788107644272834000,0.228833984375,-0.4801499843597412,-0.46818751096725464,-0.006049999967217445
1788107644292996400,0.248996337890625,-0.5193374752998352,-0.2751374840736389,-0.13557499647140503
1788107644303091500,0.259091552734375,-0.5339124798774719,-0.18603749573230743,-0.20281249284744263
1788107644313183000,0.269182861328125,-0.5511000156402588,-0.1578499972820282,-0.24928750097751617
1788107644323275500,0.279275634765625,-0.571862518787384,-0.15908749401569366,-0.24928750097751617
1788107644333361700,0.289361572265625,-0.6194375157356262,-0.18232500553131104,-0.23828749358654022
1788107644343455500,0.29945556640625,-0.6804875135421753,-0.21285000443458557,-0.18081249296665192
1788107644353541000,0.309541015625,-0.7880125045776367,-0.3081375062465668,-0.10752499848604202
1788107644363630600,0.319630615234375,-0.8405374884605408,-0.3656125068664551,-0.002474999986588955
1788107644373711400,0.32971142578125,-0.8381999731063843,-0.4059000015258789,0.054999999701976776
1788107644383805200,0.33980517578125,-0.7954375147819519,-0.5574250221252441,0.03904999792575836
1788107644393883000,0.3498828125,-0.7159624695777893,-0.7614749670028687,-0.03423750028014183
1788107644403974100,0.35997412109375,-0.6561499834060669,-0.9531499743461609,-0.14176249504089355
1788107644414060000,0.37006005859375,-0.5876749753952026,-0.8908625245094299,-0.25657498836517334
1788107644424142000,0.38014208984375,-0.4838624894618988,-0.6880499720573425,-0.37757501006126404
1788107644434224600,0.390224609375,-0.3885749876499176,-0.455949991941452,-0.45938751101493835
1788107644444307700,0.4003076171875,-0.35557499527931213,-0.3801875114440918,-0.4923875033855438
1788107644454393600,0.4103935546875,-0.3946250081062317,-0.4852375090122223,-0.4666749835014343
1788107644464485600,0.420485595703125,-0.4288625121116638,-0.5744749903678894,-0.3713875114917755
1788107644474570000,0.430570068359375,-0.44481250643730164,-0.6660500168800354,-0.20886249840259552
1788107644484651500,0.440651611328125,-0.5083374977111816,-0.916575014591217,-0.02447500079870224
1788107644494735000,0.450735107421875,-0.607200026512146,-1.5580124855041504,0.05623750016093254
1788107644504824800,0.460824951171875,-0.7844374775886536,-1.8891124725341797,0.02681249938905239
1788107644514907100,0.4709072265625,-0.9554874897003174,-1.9501625299453735,-0.06476250290870667
1788107644524995300,0.480995361328125,-1.1570625305175781,-1.8438749313354492,-0.1551000028848648
1788107644535082200,0.491082275390625,-1.3879250288009644,-1.6776374578475952,-0.21752500534057617
1788107644545165300,0.501165283203125,-1.5932124853134155,-1.5457749366760254,-0.2516250014305115
1788107644555256300,0.51125634765625,-1.7385499477386475,-1.4101999998092651,-0.2578125
1788107644565342500,0.521342529296875,-1.8448375463485718,-1.109624981880188,-0.2320999950170517
1788107644575421400,0.53142138671875,-1.55649995803833,-0.4571875035762787,-0.1625249981880188
1788107644585506800,0.5415068359375,-0.4716250002384186,-0.3264249861240387,-0.07328750193119049
1788107644595584500,0.55158447265625,-0.16499999165534973,-1.1999624967575073,-0.22605000436306
1788107644605674000,0.561674072265625,-0.28476250171661377,-1.2952499389648438,-0.1868624985218048
1788107644615756800,0.5717568359375,-0.4008125066757202,-0.8920999765396118,-0.18328750133514404
1788107644625848300,0.581848388671875,-0.45938751101493835,-0.6539499759674072,-0.32133749127388
1788107644635926800,0.5919267578125,-0.5876749753952026,-0.5867124795913696,-0.4324375092983246
1788107644646023200,0.602023193359375,-0.64267498254776,-0.5439500212669373,-0.5033875107765198
1788107644656105500,0.61210546875,-0.6059625148773193,-0.6539499759674072,-0.5631999969482422
1788107644666199000,0.622198974609375,-0.5449125170707703,-0.7577624917030334,-0.5729625225067139
1788107644676273700,0.632273681640625,-0.5400999784469604,-0.785812497138977,-0.5131499767303467
1788107644686364000,0.642364013671875,-0.5559124946594238,-0.7442874908447266,-0.4068624973297119
1788107644696441900,0.65244189453125,-0.571862518787384,-0.6380000114440918,-0.2895750105381012
1788107644706530600,0.662530517578125,-0.5779125094413757,-0.6159999966621399,-0.21986250579357147
1788107644716616700,0.67261669921875,-0.5706250071525574,-0.6637125015258789,-0.17476250231266022
1788107644726698500,0.682698486328125,-0.5400999784469604,-0.6930000185966492,-0.10999999940395355
1788107644736782800,0.692782958984375,-0.5314375162124634,-0.6452875137329102,-0.03671250119805336
1788107644746870500,0.70287060546875,-0.5583875179290771,-0.6159999966621399,-0.0037124999798834324
1788107644756955600,0.71295556640625,-0.5559124946594238,-0.5904250144958496,-0.02447500079870224
1788107644767045600,0.723045654296875,-0.5278624892234802,-0.5561875104904175,-0.07204999774694443
1788107644777130800,0.733130859375,-0.5083374977111816,-0.5512375235557556,-0.12457499653100967
1788107644787213300,0.74321337890625,-0.5131499767303467,-0.5439500212669373,-0.16733749210834503
1788107644797298700,0.753298583984375,-0.5106750130653381,-0.4877125024795532,-0.16499999165534973
1788107644807389400,0.763389404296875,-0.5181000232696533,-0.42666250467300415,-0.10628750175237656
1788107644817469000,0.773468994140625,-0.5193374752998352,-0.39118748903274536,-0.02447500079870224
1788107644827555800,0.783555908203125,-0.49857500195503235,-0.3973749876022339,0.05623750016093254
1788107644837637400,0.793637451171875,-0.5119125247001648,-0.4193750023841858,0.12581250071525574
1788107644847734500,0.803734619140625,-0.47286251187324524,-0.44013750553131104,0.1648624986410141
1788107644857820400,0.8138203125,-0.49857500195503235,-0.45842498540878296,0.17476250231266022
1788107644867911000,0.823910888671875,-0.5413374900817871,-0.431612491607666,0.17586250603199005
1788107644877992400,0.833992431640625,-0.5583875179290771,-0.3679499924182892,0.17586250603199005
1788107644888082000,0.84408203125,-0.5388625264167786,-0.3386625051498413,0.1685750037431717
1788107644898166000,0.854166015625,-0.5314375162124634,-0.3460874855518341,0.15386250615119934
1788107644908261600,0.86426171875,-0.45210000872612,-0.39489999413490295,0.12099999934434891
1788107644918346200,0.87434619140625,-0.4398624897003174,-0.40837499499320984,0.10628750175237656
1788107644928436000,0.88443603515625,-0.4936249852180481,-0.43037500977516174,0.07328750193119049
1788107644938518800,0.894518798828125,-0.5106750130653381,-0.4388999938964844,0.04028749838471413
1788107644948609800,0.90460986328125,-0.5046250224113464,-0.4278999865055084,0.010999999940395355
1788107644958692900,0.91469287109375,-0.4961000084877014,-0.38142499327659607,0.002474999986588955
1788107644968780500,0.924780517578125,-0.45333749055862427,-0.34718748927116394,-0.006049999967217445
1788107644978867200,0.9348671875,-0.46681249141693115,-0.3460874855518341,-0.0037124999798834324
1788107644988967400,0.944967529296875,-0.4423374831676483,-0.3068999946117401,0.002474999986588955
1788107644999060000,0.95506005859375,-0.4288625121116638,-0.2825624942779541,0.01952499896287918
1788107645009152300,0.96515234375,-0.4240500032901764,-0.24584999680519104,0.03671250119805336
1788107645019236000,0.975236083984375,-0.38609999418258667,-0.24584999680519104,0.059812501072883606
1788107645029319200,0.985319091796875,-0.4288625121116638,-0.25189998745918274,0.11123749613761902
1788107645039408400,0.995408447265625,-0.4288625121116638,-0.256850004196167,0.15386250615119934
1788107645049500000,1.0055,-0.39586248993873596,-0.25066250562667847,0.18081249296665192
1788107645059586600,1.015586669921875,-0.404387503862381,-0.2923249900341034,0.20762500166893005
1788107645069675800,1.02567578125,-0.40562498569488525,-0.28366249799728394,0.21133749186992645
1788107645079760000,1.035759765625,-0.4251500070095062,-0.2616625130176544,0.2125750035047531
1788107645089852400,1.045852294921875,-0.432574987411499,-0.23608750104904175,0.21133749186992645
1788107645099948000,1.055947998046875,-0.38733750581741333,-0.22013749182224274,0.19181250035762787
1788107645110038800,1.066038818359375,-0.43505001068115234,-0.21779999136924744,0.18081249296665192
1788107645120134100,1.076134033203125,-0.44714999198913574,-0.17737500369548798,0.16609999537467957
1788107645130222800,1.086222900390625,-0.4483875036239624,-0.1798499971628189,0.1588124930858612
1788107645140310800,1.096310791015625,-0.44481250643730164,-0.17861250042915344,0.1722874939441681
1788107645150393300,1.106393310546875,-0.4801499843597412,-0.2531374990940094,0.20281249284744263
1788107645160505000,1.116505126953125,-0.4643374979496002,-0.28132501244544983,0.24062499403953552
1788107645170587600,1.126587646484375,-0.5143874883651733,-0.33742499351501465,0.29438748955726624
1788107645180676400,1.13667626953125,-0.5229125022888184,-0.3436124920845032,0.2956250011920929
1788107645190755000,1.146755126953125,-0.4961000084877014,-0.35337498784065247,0.27486249804496765
1788107645200839200,1.156839111328125,-0.5143874883651733,-0.3326124846935272,0.24557499587535858
1788107645210921200,1.166921142578125,-0.5181000232696533,-0.32766249775886536,0.20762500166893005
1788107645221005300,1.17700537109375,-0.5021499991416931,-0.3264249861240387,0.19304999709129333
1788107645231092700,1.1870927734375,-0.4923875033855438,-0.34485000371932983,0.20281249284744263
1788107645241181700,1.197181640625,-0.47533750534057617,-0.39118748903274536,0.19552500545978546
1788107645251265500,1.207265625,-0.4558124840259552,-0.41071251034736633,0.1648624986410141
1788107645261354000,1.21735400390625,-0.44110000133514404,-0.4241875112056732,0.12333749979734421
1788107645271430100,1.22743017578125,-0.4263874888420105,-0.41318750381469727,0.09157499670982361
1788107645289581300,1.245581298828125,-0.3763374984264374,-0.4449499845504761,0.047575000673532486
1788107645299665000,1.255664794921875,-0.3568125069141388,-0.466949999332428,0.05128749832510948
1788107645309753000,1.265753173828125,-0.329862505197525,-0.4633750021457672,0.08676250278949738
1788107645319837400,1.27583740234375,-0.305525004863739,-0.4511374831199646,0.1331000030040741
1788107645329922600,1.285922607421875,-0.2639999985694885,-0.3997125029563904,0.15152500569820404
1788107645339997200,1.2959970703125,-0.2578125,-0.43037500977516174,0.15386250615119934
1788107645350087000,1.3060869140625,-0.2199999988079071,-0.4339500069618225,0.1405249983072281
1788107645360173600,1.316173583984375,-0.2102375030517578,-0.4499000012874603,0.13199999928474426
1788107645370254800,1.3262548828125,-0.20776249468326569,-0.4474250078201294,0.12952500581741333
1788107645380343600,1.336343505859375,-0.19923749566078186,-0.4499000012874603,0.1368124932050705
1788107645390426000,1.346426025390625,-0.16981250047683716,-0.42666250467300415,0.1588124930858612
1788107645400505300,1.35650537109375,-0.0929500013589859,-0.41318750381469727,0.19786250591278076
1788107645410590000,1.36658984375,-0.11247500032186508,-0.392425000667572,0.2480500042438507
1788107645420685600,1.376685546875,-0.08676250278949738,-0.36918750405311584,0.29686251282691956
1788107645430770400,1.3867705078125,-0.07947500050067902,-0.35942500829696655,0.3469125032424927
1788107645440858000,1.396858154296875,-0.062424998730421066,-0.3643749952316284,0.38733750581741333
1788107645450943700,1.40694384765625,-0.03918749839067459,-0.3936625123023987,0.41167500615119934
1788107645461032000,1.417031982421875,-0.015949999913573265,-0.41318750381469727,0.3983374834060669
1788107645471117600,1.42711767578125,0.00976249948143959,-0.38266250491142273,0.34814998507499695
1788107645481214500,1.43721435546875,0.02199999988079071,-0.3081375062465668,0.28338751196861267
1788107645491299800,1.4472998046875,0.028049999848008156,-0.2287999987602234,0.2186249941587448
1788107645501384400,1.457384521484375,0.02681249938905239,-0.17379999160766602,0.17352500557899475
1788107645511456000,1.4674560546875,0.028049999848008156,-0.12251249700784683,0.1625249981880188
1788107645521548000,1.477548095703125,0.02928750030696392,-0.0943249985575676,0.19910000264644623
1788107645531625700,1.487625732421875,0.04028749838471413,-0.06984999775886536,0.25286251306533813
1788107645541717500,1.497717529296875,0.030524998903274536,-0.010037500411272049,0.2858625054359436
1788107645551799000,1.507799072265625,0.03657500073313713,0.014437500387430191,0.282150000333786
1788107645561883000,1.5178828125,0.0658624991774559,0.0424874983727932,0.26138749718666077
1788107645571966500,1.527966552734375,0.07809999585151672,0.05953750014305115,0.24557499587535858
1788107645582057500,1.538057373046875,0.08552499860525131,0.06929999589920044,0.23086249828338623
1788107645592133000,1.548133056640625,0.07081250101327896,0.0742499977350235,0.2223374992609024
1788107645602223000,1.55822314453125,0.0635249987244606,0.07796250283718109,0.19786250591278076
1788107645612299300,1.56829931640625,0.05857500061392784,0.0681999996304512,0.15633749961853027
1788107645622393600,1.5783935546875,0.05376249924302101,0.07548750191926956,0.10876250267028809
1788107645632476000,1.588475830078125,0.05252499878406525,0.10848750174045563,0.0635249987244606
1788107645642562600,1.5985625,0.04028749838471413,0.15729999542236328,0.04028749838471413
1788107645652647700,1.608647705078125,0.0658624991774559,0.22082500159740448,0.047575000673532486
1788107645662740500,1.618740478515625,0.028049999848008156,0.23182499408721924,0.09157499670982361
1788107645672837000,1.628837158203125,0.020762499421834946,0.21834999322891235,0.14904999732971191
1788107645682925600,1.638925537109375,0.030524998903274536,0.20624999701976776,0.19552500545978546
1788107645693004300,1.64900439453125,-0.007424999959766865,0.18424999713897705,0.2283875048160553
1788107645703096000,1.659095947265625,-0.0037124999798834324,0.17682500183582306,0.20886249840259552
1788107645713184000,1.66918408203125,-0.00494999997317791,0.1597750037908554,0.1527625024318695
1788107645723288000,1.6792880859375,0.002337499987334013,0.1438249945640564,0.08676250278949738
1788107645733368800,1.689368896484375,0.04152499884366989,0.1438249945640564,0.02928750030696392
1788107645743441400,1.69944140625,0.06462500244379044,0.15482500195503235,-0.007287499960511923
1788107645753525200,1.709525146484375,0.06228749826550484,0.15001249313354492,-0.01347499992698431
1788107645763611000,1.71961083984375,0.08428750187158585,0.15125000476837158,-0.0170499999076128
1788107645773694200,1.729694091796875,0.10862500220537186,0.1120624989271164,-0.025712499395012856
1788107645783786500,1.739786376953125,0.0658624991774559,0.1317249983549118,-0.01952499896287918
1788107645793868500,1.74986865234375,0.07933750003576279,0.10724999755620956,-0.0170499999076128
1788107645803955700,1.759955810546875,0.11233749985694885,0.14024999737739563,-0.023237500339746475
1788107645814027500,1.770027587890625,0.05362499877810478,0.14272500574588776,-0.01952499896287918
1788107645824118800,1.780118896484375,0.08786249905824661,0.1097249984741211,-0.037812501192092896
1788107645834201000,1.790201171875,0.09404999762773514,0.05472499877214432,-0.07204999774694443
1788107645844278500,1.800278564453125,0.09033749997615814,0.05596249923110008,-0.12457499653100967
1788107645854357000,1.81035693359375,0.057337500154972076,0.05953750014305115,-0.16128750145435333
1788107645864443000,1.82044287109375,0.047575000673532486,0.09377499669790268,-0.18328750133514404
1788107645874524400,1.8305244140625,0.04028749838471413,0.11082500219345093,-0.20157499611377716
1788107645884614000,1.84061376953125,0.04881250113248825,0.14506250619888306,-0.20281249284744263
1788107645894688000,1.85068798828125,0.05486249923706055,0.16706250607967377,-0.18576249480247498
1788107645904777700,1.86077783203125,0.08057499676942825,0.18906250596046448,-0.1588124930858612
1788107645914864600,1.87086474609375,0.0695749968290329,0.21230000257492065,-0.12828749418258667
1788107645924949000,1.880948974609375,0.11357499659061432,0.19401249289512634,-0.10752499848604202
1788107645935024000,1.891024169921875,0.08552499860525131,0.24777500331401825,-0.07699999958276749
1788107645945116400,1.901116455078125,0.10257499665021896,0.24529999494552612,-0.07699999958276749
1788107645955204000,1.9112041015625,0.11110000312328339,0.2391124963760376,-0.10381250083446503
1788107645965288200,1.9212880859375,0.11728750169277191,0.258774995803833,-0.13199999928474426
1788107645975376600,1.931376708984375,0.2063875049352646,0.20858749747276306,-0.18081249296665192
1788107645985460200,1.941460205078125,0.21738749742507935,0.2391124963760376,-0.22852499783039093
1788107645995541500,1.95154150390625,0.202674999833107,0.25382500886917114,-0.24928750097751617
1788107646005634300,1.96163427734375,0.2638624906539917,0.2110625058412552,-0.26028749346733093
1788107646015723300,1.97172314453125,0.3041499853134155,0.195250004529953,-0.24062499403953552
1788107646025817600,1.981817626953125,0.3469125032424927,0.12072499841451645,-0.2162874937057495
1788107646035905800,1.99190576171875,0.4251500070095062,0.05596249923110008,-0.22357499599456787
1788107646045998600,2.00199853515625,0.4141499996185303,0.0034374999813735485,-0.24681249260902405
1788107646056088300,2.01208837890625,0.39214998483657837,-0.02722499892115593,-0.3053874969482422
1788107646066186000,2.02218603515625,0.39943748712539673,-0.060087498277425766,-0.3885749876499176
1788107646076274000,2.03227392578125,0.3786749839782715,-0.035750001668930054,-0.45938751101493835
1788107646086366000,2.042365966796875,0.3713875114917755,-0.025987500324845314,-0.5081999897956848
1788107646096455700,2.05245556640625,0.3811500072479248,-0.005224999971687794,-0.5277249813079834
1788107646106546200,2.062546142578125,0.32615000009536743,0.01677500084042549,-0.4923875033855438
1788107646126721000,2.082720947265625,0.2881999909877777,0.06201250106096268,-0.3493874967098236
1788107646136806000,2.092805908203125,0.22962500154972076,0.0742499977350235,-0.22481249272823334
1788107646146899000,2.10289892578125,0.20762500166893005,0.06696250289678574,-0.11481250077486038
1788107646156989400,2.112989501953125,0.2003374993801117,0.009487500414252281,-0.04152499884366989
1788107646167076000,2.123076171875,0.22714999318122864,-0.08579999953508377,-0.01347499992698431
1788107646177156900,2.133156982421875,0.17586250603199005,-0.030799999833106995,0.01952499896287918
1788107646187248400,2.143248291015625,0.07204999774694443,0.04853750020265579,0.037812501192092896
1788107646197333200,2.153333251953125,0.04633750021457672,0.07906249910593033,0.03904999792575836
1788107646207428400,2.163428466796875,-0.0037124999798834324,0.11701250076293945,0.05252499878406525
1788107646217509400,2.17350927734375,-0.040424998849630356,0.13529999554157257,0.06104999780654907
1788107646227602400,2.1836025390625,-0.062424998730421066,0.14630000293254852,0.059812501072883606
1788107646237685800,2.193685791015625,-0.07823749631643295,0.1658249944448471,0.05128749832510948
1788107646247775700,2.203775634765625,-0.08552499860525131,0.1732500046491623,0.045237500220537186
1788107646257855500,2.21385546875,-0.07576250284910202,0.1732500046491623,0.042762499302625656
1788107646267943200,2.223943115234375,-0.023237500339746475,0.11453749984502792,0.04647500067949295
1788107646278028500,2.234028564453125,-0.07218749821186066,0.1658249944448471,0.08181250095367432
1788107646288125000,2.244125,-0.09047500044107437,0.09006249904632568,0.05857500061392784
1788107646298216000,2.2542158203125,-0.06599999964237213,0.0364375002682209,0.004812499973922968
1788107646308318500,2.264318359375,-0.0611874982714653,0.0644875019788742,-0.05128749832510948
1788107646318419500,2.27441943359375,-0.05376249924302101,0.09872499853372574,-0.11976250261068344
1788107646328506600,2.284506591796875,-0.05142499879002571,0.14506250619888306,-0.18081249296665192
1788107646338594300,2.29459423828125,-0.03918749839067459,0.1695374995470047,-0.21504999697208405
1788107646348678100,2.30467822265625,-0.030662499368190765,0.1634874939918518,-0.2003374993801117
1788107646358764300,2.314764404296875,-0.015949999913573265,0.15125000476837158,-0.16499999165534973
1788107646368849700,2.324849609375,-0.03918749839067459,0.1120624989271164,-0.11604999750852585
1788107646378936300,2.334936279296875,-0.040424998849630356,0.13901250064373016,-0.07204999774694443
1788107646389019000,2.345018798828125,-0.05252499878406525,0.15482500195503235,-0.04399999976158142
1788107646399112200,2.3551123046875,-0.057475000619888306,0.20982499420642853,-0.010999999940395355
1788107646409194800,2.36519482421875,-0.062424998730421066,0.2330625057220459,0.02199999988079071
1788107646419279600,2.375279541015625,-0.06599999964237213,0.2293500006198883,0.06104999780654907
1788107646429364200,2.3853642578125,-0.07218749821186066,0.20858749747276306,0.07452499866485596
1788107646439443500,2.395443359375,-0.08195000141859055,0.1695374995470047,0.08057499676942825
1788107646449530600,2.405530517578125,0.01209999993443489,0.05101250112056732,0.04028749838471413
1788107646459616800,2.41561669921875,0.02928750030696392,0.06572499871253967,0.023237500339746475
1788107646469704700,2.42570458984375,-0.04647500067949295,0.12677499651908875,0.004812499973922968
1788107646479788300,2.435788330078125,-0.08552499860525131,0.07177499681711197,-0.037812501192092896
1788107646489876000,2.4458759765625,-0.054999999701976776,0.010724999941885471,-0.07452499866485596
1788107646499963000,2.455962890625,-0.03918749839067459,-0.013749999925494194,-0.09157499670982361
1788107646510050800,2.46605078125,0.07809999585151672,-0.11756250262260437,-0.1368124932050705
1788107646520137700,2.4761376953125,0.07809999585151672,-0.0943249985575676,-0.14300000667572021
1788107646530221000,2.486220947265625,0.0035749999806284904,-0.023512499406933784,-0.17352500557899475
1788107646540311300,2.496311279296875,0.01209999993443489,-0.06503749638795853,-0.25286251306533813
1788107646550388200,2.50638818359375,0.023099999874830246,-0.06875000149011612,-0.32381248474121094
1788107646560472000,2.51647216796875,0.02681249938905239,-0.07479999959468842,-0.404387503862381
1788107646570557000,2.526556884765625,0.035337500274181366,-0.08084999769926071,-0.467912495136261
1788107646580632000,2.536632080078125,0.05128749832510948,-0.06503749638795853,-0.4984374940395355
1788107646590717400,2.546717529296875,0.07686249911785126,-0.057750001549720764,-0.5094375014305115
1788107646600800300,2.55680029296875,0.08552499860525131,-0.0845625028014183,-0.4801499843597412
1788107646610885000,2.566885009765625,0.1013374999165535,-0.09679999947547913,-0.4361499845981598
1788107646620969500,2.576969482421875,0.12333749979734421,-0.14932499825954437,-0.3983374834060669
1788107646631056000,2.587055908203125,0.10257499665021896,-0.1933249980211258,-0.3823874890804291
1788107646641148200,2.597148193359375,0.09404999762773514,-0.20913749933242798,-0.3750999867916107
1788107646651232300,2.607232177734375,0.0976250022649765,-0.1615625023841858,-0.3665750026702881
1788107646661318100,2.617318115234375,0.0976250022649765,-0.06984999775886536,-0.3396250009536743
1788107646671398700,2.627398681640625,0.10009999573230743,0.03148749843239784,-0.26881250739097595
1788107646681491500,2.637491455078125,0.07686249911785126,0.05348749831318855,-0.14409999549388885
1788107646691571700,2.64757177734375,0.07081250101327896,0.03148749843239784,-0.006049999967217445
1788107646701664000,2.6576640625,0.057337500154972076,-0.04179999977350235,0.10999999940395355
1788107646711734300,2.667734375,0.057337500154972076,-0.11151249706745148,0.16128750145435333
1788107646721849300,2.677849365234375,0.11233749985694885,-0.2250874936580658,0.11481250077486038
1788107646731937000,2.68793701171875,0.0952875018119812,-0.15908749401569366,0.04028749838471413
1788107646742028800,2.69802880859375,0.08662500232458115,-0.1260875016450882,-0.0672374963760376
1788107646752105200,2.708105224609375,0.1013374999165535,-0.11261250078678131,-0.18328750133514404
1788107646762196700,2.71819677734375,0.08786249905824661,-0.035750001668930054,-0.2638624906539917
1788107646772285000,2.728284912109375,0.07686249911785126,0.015537500381469727,-0.29438748955726624
1788107646782375700,2.738375732421875,0.06104999780654907,0.06077500060200691,-0.25657498836517334
1788107646792459300,2.748459228515625,0.04152499884366989,0.09129999577999115,-0.15757499635219574
1788107646802551800,2.7585517578125,0.013337500393390656,0.09624999761581421,-0.030524998903274536
1788107646812640500,2.768640625,-0.010999999940395355,0.09129999577999115,0.09652499854564667
1788107646822720300,2.77872021484375,-0.028187500312924385,0.05101250112056732,0.19304999709129333
1788107646832810800,2.788810791015625,-0.037950001657009125,0.01924999989569187,0.2283875048160553
1788107646842894800,2.798894775390625,-0.04166249930858612,-0.006324999965727329,0.20157499611377716
1788107646852989000,2.808989013671875,-0.05376249924302101,-0.01251249946653843,0.1527625024318695
1788107646863070700,2.81907080078125,-0.0672374963760376,0.01924999989569187,0.1270499974489212
1788107646873164000,2.8291640625,-0.07823749631643295,0.07796250283718109,0.11123749613761902
1788107646883249400,2.83924951171875,-0.08442500233650208,0.1120624989271164,0.1013374999165535
1788107646893334800,2.849334716796875,-0.10395000129938126,0.09748750180006027,0.10023749619722366
1788107646903411700,2.85941162109375,-0.12828749418258667,0.05829999968409538,0.10023749619722366
1788107646913506300,2.86950634765625,-0.1467124968767166,0.027775000780820847,0.10023749619722366
1788107646923593200,2.87959326171875,-0.16005000472068787,0.011962499469518661,0.06476250290870667
1788107646933683200,2.88968310546875,-0.16376249492168427,0.01677500084042549,0.02447500079870224
1788107646943763200,2.89976318359375,-0.1527625024318695,0.04853750020265579,-0.0085249999538064
1788107646953847800,2.909847900390625,-0.13928750157356262,0.09748750180006027,-0.020762499421834946
1788107646963939800,2.91993994140625,-0.11371249705553055,0.15606249868869781,-0.020762499421834946
1788107646974028500,2.930028564453125,-0.09047500044107437,0.20253749191761017,-0.007287499960511923
1788107646984110300,2.9401103515625,-0.06599999964237213,0.22082500159740448,0.01223750039935112
1788107646994199600,2.950199462890625,-0.050187498331069946,0.20982499420642853,0.03671250119805336
1788107647004276000,2.96027587890625,-0.04399999976158142,0.18053749203681946,0.05857500061392784
1788107647014369000,2.970369140625,-0.032999999821186066,0.14877499639987946,0.07328750193119049
1788107647024449300,2.98044921875,-0.02199999988079071,0.09872499853372574,0.08304999768733978
1788107647034539800,2.990539794921875,-0.01966249942779541,0.05224999785423279,0.09033749997615814
1788107647044626400,3.00062646484375,-0.02199999988079071,0.04001250118017197,0.09404999762773514
1788107647054711600,3.010711669921875,-0.02199999988079071,0.007012499962002039,0.06476250290870667
1788107647064803600,3.020803466796875,-0.02199999988079071,-0.02956249937415123,0.028049999848008156
1788107647074909200,3.0309091796875,-0.020762499421834946,-0.07851249724626541,-0.02694999985396862
1788107647084996000,3.04099609375,-0.01966249942779541,-0.14685000479221344,-0.1050499975681305
1788107647095073000,3.051072998046875,-0.008662499487400055,-0.20913749933242798,-0.20652499794960022
1788107647105162000,3.061161865234375,0.007287499960511923,-0.2653749883174896,-0.3128125071525574
1788107647115248400,3.071248291015625,0.023099999874830246,-0.29589998722076416,-0.40562498569488525
1788107647125327600,3.08132763671875,0.042762499302625656,-0.2825624942779541,-0.4923875033855438
1788107647135418400,3.09141845703125,0.05362499877810478,-0.24213749170303345,-0.5607249736785889
1788107647145504300,3.101504150390625,0.05252499878406525,-0.2153249979019165,-0.6242499947547913
1788107647155592700,3.1115927734375,0.05486249923706055,-0.19085000455379486,-0.678012490272522
1788107647165683200,3.12168310546875,0.04633750021457672,-0.18108749389648438,-0.7062000036239624
1788107647175772000,3.13177197265625,0.03657500073313713,-0.1297999918460846,-0.6670125126838684
1788107647185863000,3.14186279296875,0,-0.013749999925494194,-0.5094375014305115
1788107647195954700,3.15195458984375,-0.050187498331069946,0.08401250094175339,-0.25905001163482666
1788107647206050800,3.16205078125,-0.10395000129938126,0.08277499675750732,0.02447500079870224
1788107647216134000,3.1721337890625,-0.15028749406337738,-0.02956249937415123,0.25533750653266907
1788107647226233900,3.18223388671875,-0.1845249980688095,-0.18479999899864197,0.39214998483657837
1788107647236319700,3.19231982421875,-0.21147499978542328,-0.31542500853538513,0.40191251039505005
1788107647246411300,3.202411376953125,-0.22605000436306,-0.3326124846935272,0.329862505197525
1788107647256495400,3.212495361328125,-0.23952500522136688,-0.22756250202655792,0.2162874937057495
1788107647266588200,3.222588134765625,-0.23223750293254852,-0.06875000149011612,0.08923749625682831
1788107647276675800,3.23267578125,-0.22852499783039093,0.05101250112056732,-0.01223750039935112
1788107647286767900,3.242767822265625,-0.22728750109672546,0.09253749996423721,-0.057475000619888306
1788107647296862000,3.252862060546875,-0.23952500522136688,0.06929999589920044,-0.028049999848008156
1788107647306951700,3.26295166015625,-0.2639999985694885,0.022962499409914017,0.04399999976158142
1788107647317036000,3.2730361328125,-0.28600001335144043,-0.02227500081062317,0.1331000030040741
1788107647327127000,3.283126953125,-0.2993375062942505,-0.04427500069141388,0.2283875048160553
1788107647337212400,3.29321240234375,-0.30799999833106995,-0.08951249718666077,0.2895750105381012
1788107647347311000,3.30331103515625,-0.27623748779296875,-0.15056249499320984,0.3041499853134155
1788107647357400000,3.313400146484375,-0.23223750293254852,-0.22990000247955322,0.2601499855518341
1788107647367494100,3.323494140625,-0.17352500557899475,-0.3143250048160553,0.16376249492168427
1788107647377580300,3.333580322265625,-0.12952500581741333,-0.33742499351501465,0.04647500067949295
1788107647387676400,3.343676513671875,-0.09776250272989273,-0.33137500286102295,-0.09281250089406967
1788107647397758000,3.353758056640625,-0.06847500056028366,-0.32284998893737793,-0.2162874937057495
1788107647407855400,3.36385546875,-0.045237500220537186,-0.3143250048160553,-0.30057498812675476
1788107647417942500,3.373942626953125,-0.0317624993622303,-0.3143250048160553,-0.3445749878883362
1788107647428027400,3.38402734375,-0.020899999886751175,-0.31308749318122864,-0.3531000018119812
1788107647438116000,3.3941162109375,-0.01718750037252903,-0.328900009393692,-0.3348124921321869
1788107647448210400,3.40421044921875,-0.01718750037252903,-0.3423750102519989,-0.3078624904155731
1788107647458297900,3.4142978515625,-0.018424998968839645,-0.32284998893737793,-0.2858625054359436
1788107647468394500,3.42439453125,-0.01347499992698431,-0.2250874936580658,-0.24310000240802765
1788107647478478600,3.434478515625,0.007287499960511923,-0.11151249706745148,-0.16128750145435333
1788107647488572700,3.44457275390625,0.059812501072883606,-0.030799999833106995,-0.059812501072883606
1788107647498664200,3.454664306640625,0.05609999969601631,-0.03451250120997429,0.04152499884366989
1788107647508745700,3.464745849609375,0.06710000336170197,-0.11027500033378601,0.12581250071525574
1788107647518831400,3.474831298828125,0.057337500154972076,-0.18837499618530273,0.17710000276565552
1788107647528921600,3.484921630859375,0.04152499884366989,-0.22990000247955322,0.19304999709129333
1788107647539001000,3.4950009765625,0.0317624993622303,-0.2213750034570694,0.17104999721050262
1788107647549090300,3.50509033203125,0.0317624993622303,-0.17256249487400055,0.1331000030040741
1788107647559175400,3.515175537109375,0.037812501192092896,-0.14561249315738678,0.09776250272989273
1788107647569260300,3.52526025390625,0.03904999792575836,-0.1578499972820282,0.0672374963760376
1788107647579343600,3.535343505859375,0.025575000792741776,-0.20432500541210175,0.05376249924302101
1788107647589435400,3.545435302734375,-0.0037124999798834324,-0.25437501072883606,0.04152499884366989
1788107647599517000,3.555516845703125,-0.03423750028014183,-0.30332499742507935,0.02681249938905239
1788107647609599700,3.565599853515625,-0.040424998849630356,-0.3679499924182892,-0.0085249999538064
1788107647619681800,3.575681884765625,-0.02199999988079071,-0.4278999865055084,-0.07328750193119049
1788107647629768200,3.585768310546875,0.0035749999806284904,-0.4609000086784363,-0.15757499635219574
1788107647639847400,3.595847412109375,0.0170499999076128,-0.44247499108314514,-0.23952500522136688
1788107647649935000,3.60593505859375,0.0170499999076128,-0.3558500111103058,-0.2810499966144562
1788107647660015400,3.616015380859375,0.00976249948143959,-0.2470874935388565,-0.26881250739097595
1788107647670098700,3.6260986328125,-0.006187499966472387,-0.19208750128746033,-0.2186249941587448
1788107647680184300,3.636184326171875,-0.01966249942779541,-0.1652749925851822,-0.1307625025510788
1788107647690265900,3.646265869140625,-0.029424998909235,-0.1933249980211258,-0.020762499421834946
1788107647700353800,3.656353759765625,-0.029424998909235,-0.2508000135421753,0.047575000673532486
1788107647710443000,3.666443115234375,-0.02447500079870224,-0.2825624942779541,0.057475000619888306
1788107647720541700,3.676541748046875,-0.01347499992698431,-0.2605625092983246,0.018287500366568565
1788107647730624000,3.6866240234375,-0.0147124994546175,-0.2055625021457672,-0.05252499878406525
1788107647740706600,3.69670654296875,-0.015949999913573265,-0.14685000479221344,-0.13805000483989716
1788107647750786600,3.70678662109375,-0.01966249942779541,-0.09075000137090683,-0.19181250035762787
1788107647760873700,3.716873779296875,-0.028187500312924385,-0.02722499892115593,-0.20157499611377716
1788107647770951200,3.726951171875,-0.04895000159740448,0.01924999989569187,-0.15757499635219574
1788107647781032000,3.737031982421875,-0.07218749821186066,0.05596249923110008,-0.06847500056028366
1788107647791119000,3.747119140625,-0.08318749815225601,0.05829999968409538,0.0317624993622303
1788107647801203700,3.75720361328125,-0.08442500233650208,0.04124999791383743,0.12209999561309814
1788107647811282000,3.767281982421875,-0.07218749821186066,0.03753750026226044,0.1942874938249588
1788107647821374700,3.777374755859375,-0.050187498331069946,0.0034374999813735485,0.2162874937057495
1788107647831452200,3.7874521484375,-0.03918749839067459,-0.06132499873638153,0.20886249840259552
1788107647841544200,3.797544189453125,-0.0317624993622303,-0.14079999923706055,0.17104999721050262
1788107647851630600,3.807630615234375,-0.018424998968839645,-0.18837499618530273,0.1013374999165535
1788107647861720600,3.817720458984375,-0.010999999940395355,-0.2055625021457672,0.0085249999538064
1788107647871805700,3.8278056640625,-0.0037124999798834324,-0.20184999704360962,-0.12581250071525574
1788107647881895400,3.8378955078125,0.002337499987334013,-0.17008750140666962,-0.2712875008583069
1788107647891981600,3.847981689453125,0.013337500393390656,-0.10656250268220901,-0.39338749647140503
1788107647902075000,3.858074951171875,0.02186249941587448,-0.023512499406933784,-0.4641999900341034
1788107647912152800,3.86815283203125,0.025575000792741776,0.05829999968409538,-0.46915000677108765
1788107647922245600,3.87824560546875,0.02681249938905239,0.147537499666214,-0.38362500071525574
1788107647932328700,3.88832861328125,0.037812501192092896,0.2073500007390976,-0.20886249840259552
1788107647942423600,3.898423583984375,0.05252499878406525,0.21834999322891235,0.006049999967217445
1788107647952509000,3.908509033203125,0.05362499877810478,0.15606249868869781,0.23086249828338623
1788107647962599700,3.918599609375,0.05128749832510948,0.04372499883174896,0.3946250081062317
1788107647972683500,3.92868359375,0.05252499878406525,-0.06998749822378159,0.4703874886035919
1788107647982769000,3.938768798828125,0.042762499302625656,-0.11879999935626984,0.44591251015663147
1788107647992850000,3.948849853515625,0.0340999998152256,-0.09679999947547913,0.3335750102996826
1788107648002942500,3.9589423828125,0.018287500366568565,-0.047987498342990875,0.17586250603199005
1788107648013024800,3.969024658203125,0.002337499987334013,0.022962499409914017,0.0317624993622303
1788107648023116000,3.979115966796875,-0.01347499992698431,0.07548750191926956,-0.07328750193119049
1788107648033211100,3.989211181640625,-0.032999999821186066,0.09253749996423721,-0.1270499974489212
1788107648043292000,3.9992919921875,-0.05623750016093254,0.030249999836087227,-0.1307625025510788
1788107648053385500,4.009385498046875,-0.08071249723434448,-0.06132499873638153,-0.11604999750852585
1788107648063470800,4.019470947265625,-0.07823749631643295,-0.13832500576972961,-0.11357499659061432
1788107648073556200,4.02955615234375,-0.07342500239610672,-0.1835625022649765,-0.1307625025510788
1788107648083641900,4.039641845703125,-0.0635249987244606,-0.18713749945163727,-0.17352500557899475
1788107648093734000,4.04973388671875,-0.05623750016093254,-0.12127500027418137,-0.21986250579357147
1788107648103820000,4.059820068359375,-0.059950001537799835,-0.021037500351667404,-0.24681249260902405
1788107648113907700,4.06990771484375,-0.05623750016093254,0.08524999767541885,-0.24062499403953552
1788107648123992300,4.079992431640625,-0.05376249924302101,0.15248750150203705,-0.17833749949932098
1788107648134081300,4.090081298828125,-0.04895000159740448,0.1658249944448471,-0.08181250095367432
1788107648144160300,4.10016015625,-0.045237500220537186,0.14024999737739563,0.015812499448657036
1788107648154248000,4.110248046875,-0.05376249924302101,0.11453749984502792,0.10257499665021896
1788107648164332500,4.12033251953125,-0.06847500056028366,0.1340624988079071,0.16981250047683716
1788107648174433300,4.130433349609375,-0.06971249729394913,0.16830000281333923,0.20528750121593475
1788107648184514800,4.140514892578125,-0.0672374963760376,0.22577500343322754,0.22357499599456787
1788107648194599200,4.15059912109375,-0.05376249924302101,0.2513499855995178,0.2320999950170517
1788107648204683800,4.160683837890625,-0.04647500067949295,0.2391124963760376,0.24310000240802765
1788107648214774300,4.170774169921875,-0.04895000159740448,0.18906250596046448,0.24928750097751617
1788107648224873700,4.180873779296875,-0.06366249918937683,0.11329999566078186,0.22605000436306
1788107648234964200,4.190964111328125,-0.07947500050067902,0.029012499377131462,0.16733749210834503
1788107648245052700,4.201052734375,-0.09652499854564667,-0.030799999833106995,0.08676250278949738
1788107648255131600,4.211131591796875,-0.11976250261068344,-0.04427500069141388,-0.002474999986588955
1788107648265217500,4.221217529296875,-0.13928750157356262,0.004537499975413084,-0.08181250095367432
1788107648275300600,4.231300537109375,-0.1527625024318695,0.09129999577999115,-0.1368124932050705
1788107648285383400,4.241383544921875,-0.15152500569820404,0.2171124964952469,-0.14423750340938568
1788107648295469600,4.251469482421875,-0.15152500569820404,0.3320625126361847,-0.11233749985694885
1788107648305556200,4.26155615234375,-0.14794999361038208,0.40287500619888306,-0.01223750039935112
1788107648315645700,4.271645751953125,-0.14547500014305115,0.40287500619888306,0.12457499653100967
1788107648325728300,4.281728271484375,-0.15152500569820404,0.3540624976158142,0.2626250088214874
1788107648335820800,4.29182080078125,-0.15028749406337738,0.28187498450279236,0.3786749839782715
1788107648345906400,4.301906494140625,-0.1381874978542328,0.2232999950647354,0.4324375092983246
1788107648355996400,4.311996337890625,-0.11728750169277191,0.21353749930858612,0.4251500070095062
1788107648366077200,4.3220771484375,-0.09652499854564667,0.24158750474452972,0.3786749839782715
1788107648376163300,4.332163330078125,-0.09171249717473984,0.29411250352859497,0.3139125108718872
1788107648386249700,4.342249755859375,-0.10271249711513519,0.34540000557899475,0.2601499855518341
1788107648396342000,4.352342041015625,-0.11247500032186508,0.357637494802475,0.23457500338554382
1788107648406418200,4.362418212890625,-0.11618749797344208,0.33082500100135803,0.22605000436306
1788107648416504300,4.37250439453125,-0.11371249705553055,0.26977500319480896,0.22962500154972076
1788107648426590200,4.382590087890625,-0.11123749613761902,0.179299995303154,0.2186249941587448
1788107648436683800,4.392683837890625,-0.09542500227689743,0.08648750185966492,0.17586250603199005
1788107648446762000,4.402761962890625,-0.07218749821186066,0.029012499377131462,0.10876250267028809
1788107648466935800,4.422935791015625,-0.01223750039935112,0.04977500066161156,-0.028049999848008156
1788107648477022500,4.4330224609375,0.010862499475479126,0.09748750180006027,-0.07947500050067902
1788107648487119400,4.443119384765625,0.030524998903274536,0.11577499657869339,-0.11976250261068344
1788107648497206300,4.453206298828125,0.0317624993622303,0.10353749990463257,-0.14781250059604645
1788107648507295700,4.463295654296875,0.032862499356269836,0.07301250100135803,-0.14423750340938568
1788107648517378000,4.4733779296875,0.028049999848008156,0.0387750007212162,-0.12099999934434891
1788107648527466200,4.48346630859375,0.023099999874830246,0.022962499409914017,-0.08428750187158585
1788107648537550300,4.49355029296875,0.01952499896287918,0.0387750007212162,-0.03423750028014183
1788107648547643000,4.503642822265625,0.013337500393390656,0.07906249910593033,0.00976249948143959
1788107648557735700,4.513735595703125,0.004812499973922968,0.10724999755620956,0.03904999792575836
1788107648567821300,4.5238212890625,-0.0037124999798834324,0.13282500207424164,0.05623750016093254
1788107648577906000,4.533906005859375,-0.007424999959766865,0.12925000488758087,0.05252499878406525
1788107648587994600,4.54399462890625,-0.0147124994546175,0.13901250064373016,0.047575000673532486
1788107648598082800,4.554082763671875,-0.01223750039935112,0.1597750037908554,0.05376249924302101
1788107648608171000,4.5641708984375,-0.01347499992698431,0.1915374994277954,0.08181250095367432
1788107648618265900,4.574265869140625,-0.02694999985396862,0.22577500343322754,0.12457499653100967
1788107648628341500,4.584341552734375,-0.037950001657009125,0.25011250376701355,0.16981250047683716
1788107648638434600,4.5944345703125,-0.035475000739097595,0.2525874972343445,0.20886249840259552
1788107648648519700,4.604519775390625,-0.029424998909235,0.2147749960422516,0.2162874937057495
1788107648658605300,4.614605224609375,-0.01347499992698431,0.16101250052452087,0.210099995136261
1788107648668688100,4.624688232421875,-0.007424999959766865,0.09129999577999115,0.18328750133514404
1788107648678779000,4.63477880859375,-0.00989999994635582,0.030249999836087227,0.13928750157356262
1788107648688855000,4.64485498046875,-0.015949999913573265,0.03753750026226044,0.10381250083446503
1788107648698944300,4.6549443359375,-0.010999999940395355,0.08401250094175339,0.07081250101327896
1788107648709039400,4.665039306640625,0.004812499973922968,0.15729999542236328,0.054999999701976776
1788107648719127800,4.6751279296875,0.02928750030696392,0.20982499420642853,0.037812501192092896
1788107648729225700,4.685225830078125,0.04881250113248825,0.2012999951839447,0.05128749832510948
1788107648739312400,4.6953125,0.06228749826550484,0.15729999542236328,0.08304999768733978
1788107648749397800,4.705397705078125,0.0658624991774559,0.10848750174045563,0.13805000483989716
1788107648759478000,4.71547802734375,0.05857500061392784,0.0999625027179718,0.20886249840259552
1788107648769564400,4.725564453125,0.06710000336170197,0.10848750174045563,0.29686251282691956
1788107648779648800,4.735648681640625,0.09281250089406967,0.1097249984741211,0.36162498593330383
1788107648789724200,4.74572412109375,0.13186250627040863,0.07796250283718109,0.4031499922275543
1788107648799812600,4.7558125,0.16981250047683716,0.01677500084042549,0.4226749837398529
1788107648809894700,4.765894775390625,0.21133749186992645,-0.04675000160932541,0.4288625121116638
1788107648819976000,4.775975830078125,0.2516250014305115,-0.1200374960899353,0.3946250081062317
1788107648830060500,4.786060546875,0.282150000333786,-0.17861250042915344,0.3151499927043915
1788107648840146200,4.796146240234375,0.29438748955726624,-0.18108749389648438,0.22962500154972076
1788107648850234600,4.806234619140625,0.28462499380111694,-0.13956250250339508,0.14409999549388885
1788107648860318500,4.816318359375,0.27486249804496765,-0.08084999769926071,0.05857500061392784
1788107648870395400,4.8263955078125,0.273624986410141,0.009487500414252281,-0.00976249948143959
1788107648880480800,4.836480712890625,0.2662000060081482,0.08772499859333038,-0.059812501072883606
1788107648890569200,4.8465693359375,0.2540999948978424,0.15248750150203705,-0.07081250101327896
1788107648900652800,4.85665283203125,0.2283875048160553,0.1658249944448471,-0.03904999792575836
1788107648910735600,4.866735595703125,0.19167499244213104,0.14258749783039093,0.004812499973922968
1788107648920822500,4.876822509765625,0.1551000028848648,0.08648750185966492,0.03904999792575836
1788107648930900500,4.886900390625,0.11110000312328339,0.03753750026226044,0.0635249987244606
1788107648940989400,4.896989501953125,0.0695749968290329,0.009487500414252281,0.07328750193119049
1788107648951072000,4.907072021484375,0.045099999755620956,0.015537500381469727,0.06476250290870667
1788107648961162200,4.917162353515625,0.0085249999538064,0.05348749831318855,0.04152499884366989
1788107648971265300,4.927265380859375,-0.032999999821186066,0.0705375000834465,0.01952499896287918
1788107648981354500,4.9373544921875,-0.042762499302625656,0.09253749996423721,-0.01223750039935112
1788107648991436500,4.9474365234375,-0.059950001537799835,0.07548750191926956,-0.04881250113248825
1788107649001528600,4.957528564453125,-0.06476250290870667,0.03396249935030937,-0.10023749619722366
1788107649011605200,4.967605224609375,-0.06599999964237213,0.004537499975413084,-0.16609999537467957
1788107649021688800,4.977688720703125,-0.08923749625682831,-0.02956249937415123,-0.24186250567436218
1788107649031769000,4.98776904296875,-0.07576250284910202,-0.013749999925494194,-0.29438748955726624
1788107649041861600,4.997861572265625,-0.06971249729394913,0.002199999988079071,-0.3176249861717224
1788107649051941400,5.00794140625,-0.032999999821186066,0.01677500084042549,-0.3128125071525574
1788107649062030800,5.01803076171875,-0.05142499879002571,0.009487500414252281,-0.28338751196861267
1788107649072111900,5.02811181640625,-0.042762499302625656,0.008249999955296516,-0.23704999685287476
1788107649082197200,5.038197265625,-0.03918749839067459,-0.0015124999918043613,-0.18081249296665192
1788107649092285200,5.04828515625,-0.032999999821186066,-0.03698749840259552,-0.12828749418258667
1788107649102377000,5.058376953125,-0.028187500312924385,-0.05156249925494194,-0.08057499676942825
1788107649112467700,5.0684677734375,-0.025712499395012856,-0.06379999965429306,-0.042762499302625656
1788107649122553300,5.07855322265625,-0.02447500079870224,-0.04675000160932541,-0.007287499960511923
1788107649132646100,5.088646240234375,-0.032999999821186066,-0.025987500324845314,0.023237500339746475
1788107649142733300,5.0987333984375,-0.04166249930858612,-0.003987499978393316,0.057475000619888306
1788107649152823300,5.1088232421875,-0.03918749839067459,0.0034374999813735485,0.10257499665021896
1788107649162907400,5.118907470703125,-0.010999999940395355,-0.013749999925494194,0.1405249983072281
1788107649172994600,5.12899462890625,-0.0012374999932944775,-0.043037500232458115,0.16733749210834503
1788107649183078100,5.139078125,0.01952499896287918,-0.057750001549720764,0.18205000460147858
1788107649193172200,5.149172119140625,0.04152499884366989,-0.03451250120997429,0.20762500166893005
1788107649203257300,5.15925732421875,0.059812501072883606,-0.002749999985098839,0.2358125001192093
1788107649213349600,5.169349609375,0.07933750003576279,0.03272499889135361,0.25905001163482666
1788107649223424800,5.1794248046875,0.09638749808073044,0.05472499877214432,0.27857500314712524
1788107649233517300,5.189517333984375,0.1368124932050705,0.05596249923110008,0.3018124997615814
1788107649243604200,5.199604248046875,0.1293874979019165,0.07301250100135803,0.3335750102996826
1788107649253692000,5.20969189453125,0.15991249680519104,0.12430000305175781,0.3823874890804291
1788107649263773000,5.21977294921875,0.16981250047683716,0.15125000476837158,0.4361499845981598
1788107649273865000,5.229864990234375,0.14657500386238098,0.15358750522136688,0.5057250261306763
1788107649283946500,5.239946533203125,0.12086249887943268,0.15482500195503235,0.5779125094413757
1788107649294030300,5.2500302734375,0.09404999762773514,0.11701250076293945,0.6414374709129333
1788107649304109000,5.260109130859375,0.06710000336170197,0.07906249910593033,0.6877750158309937
1788107649314194200,5.270194091796875,0.045099999755620956,0.10848750174045563,0.7122499942779541
1788107649324273400,5.2802734375,0.02928750030696392,0.1732500046491623,0.7073000073432922
1788107649334365000,5.290364990234375,0.01952499896287918,0.20982499420642853,0.6767749786376953
1788107649344448800,5.30044873046875,0.014574999921023846,0.21353749930858612,0.6340125203132629
1788107649354539800,5.310539794921875,0.013337500393390656,0.1975875049829483,0.5827249884605408
1788107649364620300,5.320620361328125,0.002337499987334013,0.1755875051021576,0.5253875255584717
1788107649374715600,5.330715576171875,-0.01966249942779541,0.179299995303154,0.48262500762939453
1788107649384798500,5.340798583984375,-0.059950001537799835,0.1340624988079071,0.45086249709129333
1788107649394893000,5.35089306640625,-0.14300000667572021,-0.025987500324845314,0.4581499993801117
1788107649404989000,5.360989013671875,-0.07699999958276749,0.3051125109195709,0.28338751196861267
1788107649415079700,5.37107958984375,-0.03189999982714653,0.23058749735355377,0.26138749718666077
1788107649425162200,5.381162353515625,-0.05623750016093254,0.2110625058412552,0.2358125001192093
1788107649435253200,5.391253173828125,-0.045237500220537186,0.21230000257492065,0.21504999697208405
1788107649445333000,5.4013330078125,-0.057475000619888306,0.18301250040531158,0.15757499635219574
1788107649455423700,5.411423828125,-0.06366249918937683,0.18535000085830688,0.09776250272989273
1788107649465507800,5.4215078125,-0.059950001537799835,0.18301250040531158,0.010999999940395355
1788107649475597600,5.43159765625,-0.06366249918937683,0.19277499616146088,-0.07699999958276749
1788107649485681000,5.441680908203125,-0.06971249729394913,0.2171124964952469,-0.15152500569820404
1788107649495764700,5.4517646484375,-0.06971249729394913,0.2367749959230423,-0.20776249468326569
1788107649505849300,5.461849365234375,-0.08071249723434448,0.2648249864578247,-0.24310000240802765
1788107649515941000,5.471941162109375,-0.08676250278949738,0.26977500319480896,-0.25052499771118164
1788107649526026000,5.48202587890625,-0.10752499848604202,0.2685374915599823,-0.23828749358654022
1788107649536115000,5.492114990234375,-0.1307625025510788,0.2611125111579895,-0.210099995136261
1788107649546206500,5.50220654296875,-0.14176249504089355,0.25382500886917114,-0.17352500557899475
1788107649556306200,5.51230615234375,-0.14176249504089355,0.24529999494552612,-0.13199999928474426
1788107649566392800,5.522392822265625,-0.13323749601840973,0.23058749735355377,-0.09047500044107437
1788107649576484400,5.532484375,-0.11123749613761902,0.22577500343322754,-0.047712501138448715
1788107649586576000,5.542575927734375,-0.09418749809265137,0.219587504863739,-0.0037124999798834324
1788107649596673300,5.55267333984375,-0.08552499860525131,0.18424999713897705,0.0170499999076128
1788107649606762000,5.562761962890625,-0.07947500050067902,0.13282500207424164,0.010999999940395355
1788107649616851000,5.572850830078125,-0.0672374963760376,0.06929999589920044,-0.028049999848008156
1788107649626936600,5.5829365234375,-0.057475000619888306,0.03519999980926514,-0.08428750187158585
1788107649637020000,5.59302001953125,-0.028187500312924385,0.026537500321865082,-0.1588124930858612
1788107649647107600,5.603107666015625,0.010862499475479126,0.025437500327825546,-0.2320999950170517
1788107649657198800,5.61319873046875,0.030524998903274536,0.014437500387430191,-0.29686251282691956
1788107649667288600,5.62328857421875,0.05362499877810478,0.018012499436736107,-0.32010000944137573
1788107649677376300,5.633376220703125,0.06104999780654907,0.01924999989569187,-0.2956250011920929
1788107649687468000,5.643468017578125,0.07204999774694443,-0.016224998980760574,-0.25286251306533813
1788107649697557000,5.653556884765625,0.08910000324249268,-0.043037500232458115,-0.19676250219345093
1788107649707643100,5.66364306640625,0.09281250089406967,-0.02956249937415123,-0.13557499647140503
1788107649717736700,5.67373681640625,0.07933750003576279,-0.03203750029206276,-0.06971249729394913
1788107649727825400,5.683825439453125,0.07809999585151672,-0.0015124999918043613,-0.0037124999798834324
1788107649737922300,5.69392236328125,0.08181250095367432,0.03519999980926514,0.054999999701976776
1788107649748017700,5.704017578125,0.08057499676942825,0.08030000329017639,0.12209999561309814
1788107649758099000,5.714098876953125,0.07933750003576279,0.12677499651908875,0.20281249284744263
1788107649768195800,5.72419580078125,0.07081250101327896,0.1340624988079071,0.26510000228881836
1788107649778282200,5.7342822265625,0.05004999786615372,0.12925000488758087,0.29438748955726624
1788107649788374000,5.7443740234375,0.032862499356269836,0.12306249886751175,0.3018124997615814
1788107649798454800,5.754454833984375,0.01209999993443489,0.1280124932527542,0.2993375062942505
1788107649808543700,5.764543701171875,0.007287499960511923,0.12430000305175781,0.2895750105381012
1788107649818628000,5.774628173828125,-0.0012374999932944775,0.09006249904632568,0.26881250739097595
1788107649828719600,5.7847197265625,-0.015949999913573265,0.03272499889135361,0.23704999685287476
1788107649838808300,5.794808349609375,-0.02694999985396862,-0.040562499314546585,0.18933749198913574
1788107649848898800,5.80489892578125,-0.037950001657009125,-0.0943249985575676,0.11481250077486038
1788107649858975000,5.81497509765625,-0.02447500079870224,-0.1163249984383583,0.02681249938905239
1788107649869064700,5.825064697265625,0.0035749999806284904,-0.11275000125169754,-0.06971249729394913
1788107649879157000,5.835156982421875,0.0317624993622303,-0.07479999959468842,-0.14300000667572021
1788107649889242600,5.84524267578125,0.057337500154972076,-0.07479999959468842,-0.1942874938249588
1788107649899334000,5.855333984375,0.06228749826550484,-0.1163249984383583,-0.21986250579357147
1788107649909422000,5.865422119140625,0.059812501072883606,-0.14932499825954437,-0.22481249272823334
1788107649919506200,5.875506103515625,0.06462500244379044,-0.11756250262260437,-0.210099995136261
1788107649929591600,5.885591552734375,0.05857500061392784,-0.0625625029206276,-0.18081249296665192
1788107649939675100,5.895675048828125,0.07328750193119049,0.021724998950958252,-0.13928750157356262
1788107649949758000,5.905758056640625,0.09886249899864197,0.12677499651908875,-0.05376249924302101
1788107649959844400,5.91584423828125,0.12209999561309814,0.18658749759197235,0.05857500061392784
1788107649969925400,5.92592529296875,0.09033749997615814,0.2012999951839447,0.18328750133514404
1788107649980004000,5.936004150390625,0.07809999585151672,0.20858749747276306,0.2810499966144562
1788107649990099000,5.946098876953125,0.06710000336170197,0.19634999334812164,0.3310999870300293
1788107650000185000,5.95618505859375,0.05486249923706055,0.17448750138282776,0.33467498421669006
1788107650010262300,5.96626220703125,0.04386249929666519,0.15853749215602875,0.29438748955726624
1788107650020345600,5.976345703125,0.023099999874830246,0.1634874939918518,0.23938749730587006
1788107650030428400,5.986428466796875,0.0010999999940395355,0.14877499639987946,0.18562500178813934
1788107650040513000,5.996512939453125,-0.03189999982714653,0.1317249983549118,0.14904999732971191
1788107650050601000,6.00660107421875,-0.04647500067949295,0.09006249904632568,0.11604999750852585
1788107650060684800,6.016684814453125,-0.05623750016093254,0.03396249935030937,0.10381250083446503
1788107650070765000,6.02676513671875,-0.057475000619888306,-0.01251249946653843,0.11233749985694885
1788107650080852000,6.03685205078125,-0.0611874982714653,-0.04179999977350235,0.12581250071525574
1788107650090936000,6.04693603515625,-0.07342500239610672,-0.07975000143051147,0.10999999940395355
1788107650101014500,6.0570146484375,-0.06971249729394913,-0.11756250262260437,0.07933750003576279
1788107650111096000,6.067095947265625,-0.05142499879002571,-0.12127500027418137,0.035475000739097595
1788107650121186000,6.07718603515625,-0.03423750028014183,-0.1358499974012375,-0.02199999988079071
1788107650131268000,6.08726806640625,-0.01347499992698431,-0.1358499974012375,-0.07699999958276749
1788107650141364700,6.09736474609375,0.010862499475479126,-0.1200374960899353,-0.13199999928474426
1788107650151439400,6.107439453125,0.028049999848008156,-0.09556250274181366,-0.1722874939441681
1788107650161531400,6.117531494140625,0.04028749838471413,-0.07232499867677689,-0.20157499611377716
1788107650171611000,6.12761083984375,0.035337500274181366,-0.06875000149011612,-0.19304999709129333
1788107650181703200,6.137703125,0.04881250113248825,-0.03698749840259552,-0.16981250047683716
1788107650191783200,6.147783203125,0.057337500154972076,-0.0002749999985098839,-0.13557499647140503
1788107650201876700,6.157876708984375,0.06338749825954437,0.04729999974370003,-0.09404999762773514
1788107650211963400,6.16796337890625,0.07328750193119049,0.08896250277757645,-0.06476250290870667
1788107650222055700,6.1780556640625,0.07933750003576279,0.13529999554157257,-0.03904999792575836
1788107650232129500,6.188129638671875,0.08428750187158585,0.18053749203681946,-0.02199999988079071
1788107650242216200,6.19821630859375,0.06462500244379044,0.2012999951839447,0.0037124999798834324
1788107650252296200,6.208296142578125,0.06462500244379044,0.18782499432563782,0.037812501192092896
1788107650262383000,6.218383056640625,0.06228749826550484,0.18906250596046448,0.08181250095367432
1788107650272470300,6.22847021484375,0.04262499883770943,0.20006249845027924,0.1368124932050705
1788107650282559500,6.2385595703125,0.015812499448657036,0.22206249833106995,0.20528750121593475
1788107650292634600,6.248634521484375,-0.01966249942779541,0.219587504863739,0.27486249804496765
1788107650302728400,6.258728515625,-0.047712501138448715,0.179299995303154,0.3445749878883362
1788107650312809500,6.2688095703125,-0.07095000147819519,0.11701250076293945,0.3848625123500824
1788107650322895400,6.278895263671875,-0.10518749803304672,0.08772499859333038,0.404387503862381
1788107650332975600,6.2889755859375,-0.13695000112056732,0.08772499859333038,0.4104374945163727
1788107650343065900,6.29906591796875,-0.15895000100135803,0.11329999566078186,0.4092000126838684
1788107650353154600,6.309154541015625,-0.16499999165534973,0.14877499639987946,0.39214998483657837
1788107650363243500,6.319243408203125,-0.15771250426769257,0.12553749978542328,0.3396250009536743
1788107650373320700,6.32932080078125,-0.12594999372959137,0.04001250118017197,0.2223374992609024
1788107650383405800,6.33940576171875,-0.09652499854564667,-0.0625625029206276,0.0635249987244606
1788107650393489400,6.349489501953125,-0.08195000141859055,-0.10408750176429749,-0.08923749625682831
1788107650403578400,6.359578369140625,-0.06476250290870667,-0.043037500232458115,-0.18933749198913574
1788107650413664000,6.3696640625,-0.047712501138448715,0.030249999836087227,-0.22962500154972076
1788107650423753000,6.3797529296875,-0.02447500079870224,0.06077500060200691,-0.2040500044822693
1788107650433833500,6.38983349609375,0.007287499960511923,0.0009624999947845936,-0.15399999916553497
1788107650443920600,6.399920654296875,0.032862499356269836,-0.08332499861717224,-0.11604999750852585
1788107650454004500,6.41000439453125,0.05609999969601631,-0.14327499270439148,-0.11604999750852585
1788107650464085500,6.42008544921875,0.08057499676942825,-0.12484999746084213,-0.14904999732971191
1788107650474161400,6.430161376953125,0.11110000312328339,-0.028324998915195465,-0.18933749198913574
1788107650484251400,6.44025146484375,0.13433749973773956,0.1120624989271164,-0.20528750121593475
1788107650494339600,6.450339599609375,0.16733749210834503,0.2110625058412552,-0.17599999904632568
1788107650504435500,6.460435546875,0.17710000276565552,0.20624999701976776,-0.10023749619722366
1788107650514515200,6.47051513671875,0.16609999537467957,0.17434999346733093,0.0037124999798834324
1788107650524609500,6.480609619140625,0.13557499647140503,0.13901250064373016,0.11357499659061432
1788107650534687500,6.4906875,0.1073874980211258,0.10724999755620956,0.1966249942779541
1788107650544779800,6.50077978515625,0.08786249905824661,0.05596249923110008,0.2320999950170517
1788107650554864600,6.51086474609375,0.07328750193119049,-0.033275000751018524,0.1966249942779541
1788107650564960500,6.52096044921875,0.0658624991774559,-0.07975000143051147,0.1013374999165535
1788107650575051300,6.53105126953125,0.06462500244379044,-0.07603749632835388,-0.02199999988079071
1788107650585143800,6.541143798828125,0.07562500238418579,-0.035750001668930054,-0.14533749222755432
1788107650605315300,6.5613154296875,0.11715000122785568,-0.02227500081062317,-0.3273875117301941
1788107650615401200,6.571401123046875,0.1331000030040741,-0.08579999953508377,-0.36781248450279236
1788107650625487600,6.581487548828125,0.14038750529289246,-0.13956250250339508,-0.37757501006126404
1788107650635573200,6.5915732421875,0.14162500202655792,-0.13708749413490295,-0.35791251063346863
1788107650645661200,6.6016611328125,0.13791249692440033,-0.07232499867677689,-0.3151499927043915
1788107650655745000,6.6117451171875,0.14162500202655792,0.03629999980330467,-0.2223374992609024
1788107650665838300,6.62183837890625,0.14038750529289246,0.10106249898672104,-0.08428750187158585
1788107650675924000,6.631924072265625,0.1368124932050705,0.09377499669790268,0.03423750028014183
1788107650686013200,6.64201318359375,0.13557499647140503,0.026537500321865082,0.1013374999165535
1788107650696104400,6.6521044921875,0.13433749973773956,-0.04908749833703041,0.10628750175237656
1788107650706199000,6.662198974609375,0.1270499974489212,-0.025987500324845314,0.0672374963760376
1788107650716291000,6.672291015625,0.11838749796152115,0.09253749996423721,0.032999999821186066
1788107650726379300,6.682379150390625,0.11233749985694885,0.24034999310970306,0.05252499878406525
1788107650736467200,6.69246728515625,0.09886249899864197,0.3125374913215637,0.12828749418258667
1788107650746546400,6.70254638671875,0.08057499676942825,0.27582499384880066,0.2358125001192093
1788107650756634400,6.71263427734375,0.045099999755620956,0.18535000085830688,0.3445749878883362
1788107650766725400,6.722725341796875,0.002337499987334013,0.06929999589920044,0.40562498569488525
1788107650776811800,6.732811767578125,-0.030662499368190765,-0.006462499964982271,0.39214998483657837
1788107650786905600,6.742905517578125,-0.04166249930858612,-0.01251249946653843,0.3273875117301941
1788107650796991700,6.75299169921875,-0.035475000739097595,0.004537499975413084,0.22357499599456787
1788107650807079200,6.7630791015625,-0.02199999988079071,0.04619999974966049,0.13433749973773956
1788107650817172000,6.773171875,-0.02199999988079071,0.09748750180006027,0.08181250095367432
1788107650827264500,6.783264404296875,-0.042899999767541885,0.10106249898672104,0.0672374963760376
1788107650837353700,6.793353759765625,-0.07342500239610672,0.05829999968409538,0.08181250095367432
1788107650847436500,6.8034365234375,-0.09652499854564667,-0.013749999925494194,0.09033749997615814
1788107650857526500,6.813526611328125,-0.10752499848604202,-0.060087498277425766,0.08428750187158585
1788107650867616300,6.8236162109375,-0.0929500013589859,-0.08098749816417694,0.047575000673532486
1788107650877697500,6.833697509765625,-0.07699999958276749,-0.08332499861717224,0.006049999967217445
1788107650887784400,6.843784423828125,-0.07218749821186066,-0.04675000160932541,-0.032999999821186066
1788107650897868500,6.85386865234375,-0.08799999952316284,0.04124999791383743,-0.030524998903274536
1788107650907961600,6.863961669921875,-0.10752499848604202,0.13048750162124634,0.0317624993622303
1788107650918049300,6.87404931640625,-0.10752499848604202,0.14877499639987946,0.10999999940395355
1788107650928141600,6.8841416015625,-0.0989999994635582,0.05953750014305115,0.16733749210834503
1788107650938235600,6.894235595703125,-0.09047500044107437,-0.06751249730587006,0.17710000276565552
1788107650948332300,6.904332275390625,-0.08442500233650208,-0.17627499997615814,0.12209999561309814
1788107650958438400,6.9144384765625,-0.07466249912977219,-0.23237499594688416,0.015812499448657036
1788107650968534800,6.92453466796875,-0.059950001537799835,-0.20679999887943268,-0.09652499854564667
1788107650978618600,6.93461865234375,-0.032999999821186066,-0.12484999746084213,-0.20528750121593475
1788107650988711200,6.944711181640625,-0.00494999997317791,-0.04908749833703041,-0.27857500314712524
1788107650998793500,6.95479345703125,0.010862499475479126,-0.040562499314546585,-0.3030500113964081
1788107651008885800,6.9648857421875,0.004812499973922968,-0.052799999713897705,-0.28338751196861267
1788107651018966500,6.974966552734375,-0.018424998968839645,-0.060087498277425766,-0.23704999685287476
1788107651029055500,6.985055419921875,-0.02694999985396862,-0.05156249925494194,-0.16499999165534973
1788107651039147500,6.9951474609375,-0.02447500079870224,-0.056512501090765,-0.08799999952316284
1788107651049235500,7.0052353515625,-0.006187499966472387,-0.06503749638795853,-0.02199999988079071
1788107651059316700,7.015316650390625,0.0085249999538064,-0.09927500039339066,0.00976249948143959
1788107651069406200,7.02540625,0.007287499960511923,-0.12251249700784683,0.007287499960511923
1788107651079489800,7.03548974609375,0.00976249948143959,-0.13461250066757202,-0.03671250119805336
1788107651089576200,7.045576171875,0.015812499448657036,-0.1358499974012375,-0.0989999994635582
1788107651099663000,7.0556630859375,0.02433750033378601,-0.1260875016450882,-0.17104999721050262
1788107651109744600,7.06574462890625,0.025575000792741776,-0.1200374960899353,-0.24186250567436218
1788107651119833900,7.075833740234375,0.020762499421834946,-0.1297999918460846,-0.30057498812675476
1788107651129920300,7.085920166015625,0.004812499973922968,-0.11275000125169754,-0.32133749127388
1788107651140000000,7.096,-0.00989999994635582,-0.0882750004529953,-0.3078624904155731
1788107651150085400,7.10608544921875,-0.02694999985396862,-0.06379999965429306,-0.25905001163482666
1788107651160175400,7.11617529296875,-0.040424998849630356,-0.045512501150369644,-0.20157499611377716
1788107651170256100,7.126256103515625,-0.04399999976158142,-0.07727500051259995,-0.1551000028848648
1788107651180339500,7.13633935546875,-0.04399999976158142,-0.13708749413490295,-0.1527625024318695
1788107651190436000,7.14643603515625,-0.040424998849630356,-0.17256249487400055,-0.20157499611377716
1788107651200519700,7.156519775390625,-0.032999999821186066,-0.15427500009536743,-0.27857500314712524
1788107651210604300,7.166604248046875,-0.01223750039935112,-0.07603749632835388,-0.340862512588501
1788107651220686800,7.176686767578125,0.007287499960511923,0.022962499409914017,-0.3665750026702881
1788107651230776300,7.1867763671875,0.02681249938905239,0.10353749990463257,-0.35062500834465027
1788107651240855600,7.19685546875,0.03657500073313713,0.14630000293254852,-0.27857500314712524
1788107651250937300,7.206937255859375,0.020762499421834946,0.15248750150203705,-0.1551000028848648
1788107651261018000,7.21701806640625,0.007287499960511923,0.1377750039100647,-0.015949999913573265
1788107651271108900,7.22710888671875,-0.002474999986588955,0.09872499853372574,0.11481250077486038
1788107651281193000,7.23719287109375,-0.00989999994635582,0.0742499977350235,0.22605000436306
1788107651291275300,7.247275146484375,-0.025712499395012856,0.08277499675750732,0.2919124960899353
1788107651301359900,7.25735986328125,-0.030662499368190765,0.12072499841451645,0.3128125071525574
1788107651311453700,7.26745361328125,-0.01966249942779541,0.12553749978542328,0.3041499853134155
1788107651321525200,7.277525146484375,-0.0037124999798834324,0.10106249898672104,0.25657498836517334
1788107651331618800,7.287618896484375,0.0035749999806284904,0.08772499859333038,0.20281249284744263
1788107651341696000,7.297696044921875,0.004812499973922968,0.06572499871253967,0.13805000483989716
1788107651351779300,7.307779296875,0.018287500366568565,0.05719999969005585,0.07204999774694443
1788107651361869600,7.31786962890625,0.04386249929666519,0.07672499865293503,0.037812501192092896
1788107651371959000,7.327958984375,0.0695749968290329,0.09501250088214874,0.025712499395012856
1788107651382046200,7.338046142578125,0.08057499676942825,0.1120624989271164,0.04399999976158142
1788107651392138800,7.348138671875,0.06833750009536743,0.10477499663829803,0.07204999774694443
1788107651402223600,7.3582236328125,0.05857500061392784,0.06572499871253967,0.11233749985694885
1788107651412308200,7.36830810546875,0.06104999780654907,0.0057749999687075615,0.13199999928474426
1788107651422396400,7.378396484375,0.07081250101327896,-0.056512501090765,0.11357499659061432
1788107651432488700,7.38848876953125,0.09404999762773514,-0.09075000137090683,0.07452499866485596
1788107651442573600,7.398573486328125,0.1270499974489212,-0.08208750188350677,0.015812499448657036
1788107651452660500,7.408660400390625,0.15386250615119934,-0.025987500324845314,-0.05871250107884407
1788107651462745300,7.418745361328125,0.16238750517368317,0.05953750014305115,-0.11247500032186508
1788107651472832000,7.42883203125,0.16981250047683716,0.1340624988079071,-0.13805000483989716
1788107651482920700,7.438920654296875,0.1648624986410141,0.16706250607967377,-0.11852499842643738
1788107651493006800,7.4490068359375,0.14781250059604645,0.15358750522136688,-0.059812501072883606
1788107651503096600,7.4590966796875,0.11357499659061432,0.1060125008225441,0.018287500366568565
1788107651513185000,7.46918505859375,0.05857500061392784,0.10477499663829803,0.09404999762773514
1788107651523263200,7.47926318359375,0.0085249999538064,0.1317249983549118,0.14533749222755432
1788107651533344000,7.489343994140625,-0.023237500339746475,0.13529999554157257,0.1551000028848648
1788107651543418600,7.499418701171875,-0.03918749839067459,0.09624999761581421,0.1050499975681305
1788107651553510000,7.509510009765625,-0.042899999767541885,0.03753750026226044,0
1788107651573680400,7.529680419921875,-0.032999999821186066,0.004537499975413084,-0.22481249272823334
1788107651583752400,7.53975244140625,-0.00013749999925494194,0.04729999974370003,-0.2675749957561493
1788107651593846300,7.54984619140625,0.02928750030696392,0.12182500213384628,-0.21986250579357147
1788107651603926300,7.55992626953125,0.05128749832510948,0.19401249289512634,-0.10628750175237656
1788107651614007300,7.57000732421875,0.05486249923706055,0.19401249289512634,0.04881250113248825
1788107651624095500,7.580095458984375,0.04633750021457672,0.10848750174045563,0.19304999709129333
1788107651634177800,7.590177734375,0.03904999792575836,-0.023512499406933784,0.27857500314712524
1788107651644259000,7.600259033203125,0.047575000673532486,-0.14451250433921814,0.2700499892234802
1788107651654352000,7.610351806640625,0.06710000336170197,-0.2153249979019165,0.1648624986410141
1788107651664432600,7.6204326171875,0.10381250083446503,-0.19813749194145203,0.007287499960511923
1788107651674523400,7.6305234375,0.13062499463558197,-0.10175000131130219,-0.13557499647140503
1788107651684601600,7.6406015625,0.1551000028848648,0.020487500354647636,-0.2223374992609024
1788107651694692900,7.65069287109375,0.1648624986410141,0.10106249898672104,-0.21752500534057617
1788107651704775200,7.660775146484375,0.16609999537467957,0.12677499651908875,-0.12952500581741333
1788107651714864600,7.67086474609375,0.14533749222755432,0.1097249984741211,0.01223750039935112
1788107651724964600,7.680964599609375,0.1073874980211258,0.1097249984741211,0.17586250603199005
1788107651735055600,7.6910556640625,0.0695749968290329,0.11453749984502792,0.3139125108718872
1788107651745141200,7.701141357421875,0.032862499356269836,0.12553749978542328,0.4166249930858612
1788107651755232000,7.71123193359375,0.002337499987334013,0.11329999566078186,0.4641999900341034
1788107651765309000,7.721308837890625,-0.00494999997317791,0.03753750026226044,0.4361499845981598
1788107651775399200,7.731399169921875,0.004812499973922968,-0.03932499885559082,0.32862499356269836
1788107651785485300,7.7414853515625,0.02433750033378601,-0.08098749816417694,0.1588124930858612
1788107651795573000,7.751572998046875,0.037812501192092896,-0.05156249925494194,-0.03904999792575836
1788107651805670100,7.761670166015625,0.05004999786615372,0.08030000329017639,-0.18576249480247498
1788107651815764200,7.77176416015625,0.05252499878406525,0.2232999950647354,-0.23457500338554382
1788107651825849300,7.781849365234375,0.05252499878406525,0.2806375026702881,-0.1845249980688095
1788107651835939000,7.79193896484375,0.04028749838471413,0.20982499420642853,-0.09652499854564667
1788107651846029000,7.802029052734375,0.023099999874830246,0.06929999589920044,-0.0170499999076128
1788107651856119600,7.81211962890625,0.01209999993443489,-0.05898749828338623,-0.0085249999538064
1788107651866215700,7.822215576171875,0.018287500366568565,-0.11275000125169754,-0.09157499670982361
1788107651876302300,7.83230224609375,0.03162499889731407,-0.11384999752044678,-0.22481249272823334
1788107651886395400,7.8423955078125,0.06228749826550484,-0.057750001549720764,-0.36781248450279236
1788107651896485000,7.852485107421875,0.10257499665021896,0.0009624999947845936,-0.49486249685287476
1788107651906574300,7.86257421875,0.14781250059604645,0.05101250112056732,-0.5754374861717224
1788107651916660200,7.87266015625,0.18562500178813934,0.09501250088214874,-0.5803874731063843
1788107651926757400,7.88275732421875,0.1966249942779541,0.11948750168085098,-0.5229125022888184
1788107651936838100,7.892838134765625,0.18438750505447388,0.11948750168085098,-0.42143750190734863
1788107651946931200,7.90293115234375,0.15991249680519104,0.09748750180006027,-0.29438748955726624
1788107651957010400,7.913010498046875,0.13557499647140503,0.07796250283718109,-0.16733749210834503
1788107651967103200,7.923103271484375,0.11962500214576721,0.04496249929070473,-0.06228749826550484
1788107651977190100,7.933190185546875,0.11838749796152115,-0.006462499964982271,-0.0147124994546175
1788107651987278000,7.943278076171875,0.12333749979734421,-0.06503749638795853,-0.04647500067949295
1788107651997357800,7.95335791015625,0.13791249692440033,-0.12361250072717667,-0.1405249983072281
1788107652007449300,7.963449462890625,0.14657500386238098,-0.16637499630451202,-0.27486249804496765
1788107652017534500,7.973534423828125,0.15757499635219574,-0.20061250030994415,-0.4129124879837036
1788107652027625000,7.983625,0.1588124930858612,-0.1578499972820282,-0.5046250224113464
1788107652037712600,7.993712646484375,0.15138749778270721,-0.10532499849796295,-0.5486249923706055
1788107652047799800,8.0037998046875,0.13062499463558197,-0.052799999713897705,-0.5216749906539917
1788107652057885000,8.013885009765625,0.09281250089406967,-0.03203750029206276,-0.42391249537467957
1788107652067977200,8.023977294921876,0.05362499877810478,-0.04908749833703041,-0.27857500314712524
1788107652078061300,8.034061279296875,0.018287500366568565,-0.09556250274181366,-0.12099999934434891
1788107652088151600,8.044151611328125,0.007287499960511923,-0.13103750348091125,0.01347499992698431
1788107652098241000,8.054240966796876,0.0170499999076128,-0.17256249487400055,0.08057499676942825
1788107652108332300,8.064332275390624,0.02928750030696392,-0.17737500369548798,0.09404999762773514
1788107652118419200,8.074419189453126,0.03657500073313713,-0.1335124969482422,0.0695749968290329
1788107652128566300,8.084566162109375,0.03657500073313713,-0.052799999713897705,0.04152499884366989
1788107652138688300,8.094688232421875,0.025575000792741776,0.03519999980926514,0.030524998903274536
1788107652148777500,8.104777587890625,0.01952499896287918,0.11453749984502792,0.047575000673532486
1788107652158869000,8.114868896484374,0.004812499973922968,0.15125000476837158,0.08676250278949738
1788107652168959200,8.124959228515625,-0.018424998968839645,0.15853749215602875,0.1527625024318695
1788107652179053300,8.13505322265625,-0.042899999767541885,0.13282500207424164,0.2223374992609024
1788107652189137400,8.145137451171875,-0.052662499248981476,0.0742499977350235,0.2700499892234802
1788107652199229400,8.1552294921875,-0.04647500067949295,0.014437500387430191,0.29315000772476196
1788107652209311000,8.16531103515625,-0.01718750037252903,-0.033275000751018524,0.2773374915122986
1788107652219394800,8.175394775390625,0.013337500393390656,-0.04675000160932541,0.2186249941587448
1788107652229512000,8.185511962890626,0.04028749838471413,-0.05898749828338623,0.11481250077486038
1788107652239598000,8.19559814453125,0.07081250101327896,-0.04675000160932541,-0.020762499421834946
1788107652249685500,8.205685546875,0.10615000128746033,-0.01979999989271164,-0.16499999165534973
1788107652259769000,8.21576904296875,0.13433749973773956,0.03272499889135361,-0.27857500314712524
1788107652269854500,8.2258544921875,0.15262499451637268,0.08896250277757645,-0.33233749866485596
1788107652279939000,8.23593896484375,0.1648624986410141,0.1120624989271164,-0.3310999870300293
1788107652290018800,8.246018798828125,0.16609999537467957,0.10724999755620956,-0.2773374915122986
1788107652300106500,8.2561064453125,0.1611499935388565,0.06324999779462814,-0.19910000264644623
1788107652310189800,8.26618994140625,0.15991249680519104,0.026537500321865082,-0.13433749973773956
1788107652320269000,8.27626904296875,0.1648624986410141,-0.002749999985098839,-0.09776250272989273
1788107652330347500,8.286347412109375,0.16238750517368317,-0.0002749999985098839,-0.09652499854564667
1788107652340435500,8.296435546875,0.1611499935388565,0.01924999989569187,-0.10628750175237656
1788107652350527000,8.30652685546875,0.15633749961853027,0.025437500327825546,-0.11481250077486038
1788107652360612900,8.31661279296875,0.14657500386238098,0.011962499469518661,-0.11481250077486038
1788107652370693600,8.326693603515626,0.12333749979734421,-0.011274999938905239,-0.12333749979734421
1788107652380788500,8.33678857421875,0.08910000324249268,-0.02474999986588955,-0.13323749601840973
1788107652390870800,8.346870849609376,0.05362499877810478,-0.025987500324845314,-0.14657500386238098
1788107652400958000,8.3569580078125,0.014574999921023846,-0.006462499964982271,-0.16128750145435333
1788107652411035600,8.36703564453125,-0.025712499395012856,0.03753750026226044,-0.15152500569820404
1788107652421127000,8.377126953125,-0.05376249924302101,0.08401250094175339,-0.11976250261068344
1788107652431210500,8.38721044921875,-0.07947500050067902,0.1280124932527542,-0.0635249987244606
1788107652441300000,8.397300048828125,-0.0929500013589859,0.14024999737739563,-0.006187499966472387
1788107652451379200,8.407379150390625,-0.10271249711513519,0.12072499841451645,0.03423750028014183
1788107652461469700,8.4174697265625,-0.10752499848604202,0.10848750174045563,0.04399999976158142
1788107652471555800,8.427555908203125,-0.11123749613761902,0.08524999767541885,-0.00494999997317791
1788107652481648400,8.4376484375,-0.11247500032186508,0.09624999761581421,-0.09652499854564667
1788107652491743700,8.44774365234375,-0.10642500221729279,0.15729999542236328,-0.1905750036239624
1788107652501834800,8.457834716796874,-0.10395000129938126,0.24406249821186066,-0.25657498836517334
1788107652511915500,8.46791552734375,-0.10642500221729279,0.3320625126361847,-0.28228750824928284
1788107652522010400,8.47801025390625,-0.10642500221729279,0.3821125030517578,-0.24186250567436218
1788107652532097500,8.48809765625,-0.10642500221729279,0.3918749988079071,-0.14533749222755432
1788107652542189800,8.49818994140625,-0.11495000123977661,0.3503499925136566,-0.042762499302625656
1788107652552264400,8.508264404296876,-0.1307625025510788,0.2905375063419342,0.030524998903274536
1788107652562358000,8.51835791015625,-0.14423750340938568,0.24406249821186066,0.045237500220537186
1788107652572434000,8.528433837890624,-0.14794999361038208,0.21601249277591705,0.007287499960511923
1788107652582527000,8.53852685546875,-0.14176249504089355,0.2293500006198883,-0.06228749826550484
1788107652592608300,8.548608154296875,-0.12718750536441803,0.30153748393058777,-0.14533749222755432
1788107652602700000,8.558699951171874,-0.12223749607801437,0.3735874891281128,-0.18809999525547028
1788107652612785000,8.568784912109376,-0.12718750536441803,0.4248749911785126,-0.1527625024318695
1788107652622882000,8.578882080078126,-0.1405249983072281,0.4188250005245209,-0.06104999780654907
1788107652632956200,8.5889560546875,-0.1564749926328659,0.34306249022483826,0.05376249924302101
1788107652643031600,8.599031494140625,-0.1722874939441681,0.24777500331401825,0.15028749406337738
1788107652653122600,8.60912255859375,-0.18205000460147858,0.1658249944448471,0.20652499794960022
1788107652663212500,8.619212646484375,-0.18947499990463257,0.14630000293254852,0.20157499611377716
1788107652673302300,8.62930224609375,-0.18205000460147858,0.18301250040531158,0.16981250047683716
1788107652683387100,8.63938720703125,-0.17352500557899475,0.22811250388622284,0.13433749973773956
1788107652693473800,8.649473876953126,-0.1625249981880188,0.24406249821186066,0.1013374999165535
1788107652703555000,8.65955517578125,-0.16747500002384186,0.21230000257492065,0.10999999940395355
1788107652713640000,8.669639892578125,-0.17599999904632568,0.13048750162124634,0.1270499974489212
1788107652723729700,8.679729736328126,-0.18700000643730164,0.05224999785423279,0.14904999732971191
1788107652733808400,8.689808349609375,-0.201712504029274,0.01677500084042549,0.15152500569820404
1788107652743900400,8.699900390625,-0.2040500044822693,0.014437500387430191,0.13557499647140503
1788107652753983000,8.70998291015625,-0.19552500545978546,0.021724998950958252,0.11357499659061432
1788107652764067800,8.72006787109375,-0.18328750133514404,0.013199999928474426,0.10381250083446503
1788107652774152200,8.730152099609375,-0.17847499251365662,-0.0002749999985098839,0.10023749619722366
1788107652784233000,8.74023291015625,-0.17599999904632568,-0.025987500324845314,0.09404999762773514
1788107652794322000,8.750322021484376,-0.17599999904632568,-0.040562499314546585,0.09652499854564667
1788107652804413200,8.7604130859375,-0.17476250231266022,-0.06132499873638153,0.09652499854564667
1788107652814496500,8.77049658203125,-0.18328750133514404,-0.07851249724626541,0.08428750187158585
1788107652824575500,8.780575439453125,-0.19552500545978546,-0.09556250274181366,0.06104999780654907
1788107652844747300,8.800747314453124,-0.21876250207424164,-0.11756250262260437,-0.025712499395012856
1788107652854827300,8.8108271484375,-0.23100000619888306,-0.1297999918460846,-0.08304999768733978
1788107652864918000,8.82091796875,-0.23704999685287476,-0.14932499825954437,-0.13928750157356262
1788107652874998500,8.83099853515625,-0.24323749542236328,-0.17008750140666962,-0.19786250591278076
1788107652885085200,8.841085205078125,-0.2480500042438507,-0.18479999899864197,-0.24062499403953552
1788107652895173600,8.851173583984375,-0.25905001163482666,-0.20061250030994415,-0.26881250739097595
1788107652905268000,8.86126806640625,-0.2615250051021576,-0.22261250019073486,-0.2870999872684479
1788107652915355000,8.87135498046875,-0.26028749346733093,-0.24956250190734863,-0.3053874969482422
1788107652925446100,8.881446044921875,-0.25905001163482666,-0.256850004196167,-0.32615000009536743
1788107652935527400,8.89152734375,-0.25052499771118164,-0.24584999680519104,-0.3396250009536743
1788107652945620000,8.901619873046876,-0.24199999868869781,-0.22013749182224274,-0.3469125032424927
1788107652955708700,8.911708740234374,-0.22481249272823334,-0.19456249475479126,-0.3335750102996826
1788107652965797600,8.921797607421874,-0.21381250023841858,-0.14327499270439148,-0.2895750105381012
1788107652975884800,8.931884765625,-0.19552500545978546,-0.12127500027418137,-0.22357499599456787
1788107652985975000,8.94197509765625,-0.17723749577999115,-0.1260875016450882,-0.13557499647140503
1788107652996059600,8.9520595703125,-0.1662375032901764,-0.15537500381469727,-0.06228749826550484
1788107653006158300,8.962158447265624,-0.16128750145435333,-0.19085000455379486,-0.0147124994546175
1788107653016247800,8.972247802734374,-0.15771250426769257,-0.23237499594688416,0.004812499973922968
1788107653026332400,8.98233251953125,-0.14794999361038208,-0.2886124849319458,-0.015949999913573265
1788107653036419600,8.992419677734375,-0.12718750536441803,-0.33742499351501465,-0.07081250101327896
1788107653046513400,9.002513427734375,-0.09047500044107437,-0.3876124918460846,-0.13557499647140503
1788107653056600000,9.01260009765625,-0.05142499879002571,-0.38885000348091125,-0.18933749198913574
1788107653066685200,9.022685302734375,-0.020899999886751175,-0.3606624901294708,-0.20886249840259552
1788107653076772000,9.032772216796875,-0.00013749999925494194,-0.34966251254081726,-0.18328750133514404
1788107653086861800,9.04286181640625,0.004812499973922968,-0.368087500333786,-0.13433749973773956
1788107653096949200,9.05294921875,0.0085249999538064,-0.4096125066280365,-0.06104999780654907
1788107653107038700,9.063038818359376,0.0170499999076128,-0.4633750021457672,0.018287500366568565
1788107653117119700,9.07311962890625,0.02433750033378601,-0.5292375087738037,0.07204999774694443
1788107653127209700,9.083209716796874,0.032862499356269836,-0.5806624889373779,0.10752499848604202
1788107653137299000,9.093298828125,0.04262499883770943,-0.593999981880188,0.0952875018119812
1788107653147385300,9.10338525390625,0.045099999755620956,-0.558662474155426,0.03423750028014183
1788107653157474800,9.113474853515624,0.04028749838471413,-0.5036625266075134,-0.04647500067949295
1788107653167568600,9.123568603515626,0.035337500274181366,-0.4511374831199646,-0.13433749973773956
1788107653177654300,9.133654296875,0.03162499889731407,-0.42294999957084656,-0.2003374993801117
1788107653187746000,9.14374609375,0.02186249941587448,-0.41071251034736633,-0.23952500522136688
1788107653197829600,9.15382958984375,0.00976249948143959,-0.3704249858856201,-0.2162874937057495
1788107653207926000,9.163926025390625,-0.018424998968839645,-0.29356250166893005,-0.14300000667572021
1788107653218015500,9.174015380859375,-0.062424998730421066,-0.22384999692440033,-0.047712501138448715
1788107653228104200,9.184104248046875,-0.10876250267028809,-0.19085000455379486,0.05252499878406525
1788107653238193700,9.194193603515625,-0.15895000100135803,-0.16032500565052032,0.16005000472068787
1788107653248284000,9.204283935546876,-0.19552500545978546,-0.13832500576972961,0.25905001163482666
1788107653258366500,9.214366455078125,-0.2237125039100647,-0.12484999746084213,0.3139125108718872
1788107653268457000,9.22445703125,-0.24681249260902405,-0.09679999947547913,0.33838748931884766
1788107653278535700,9.23453564453125,-0.25905001163482666,-0.07356250286102295,0.3359124958515167
1788107653288626000,9.2446259765625,-0.26881250739097595,-0.045512501150369644,0.32010000944137573
1788107653298712800,9.254712890625,-0.2712875008583069,-0.014987500384449959,0.3115749955177307
1788107653308801800,9.2648017578125,-0.26633748412132263,0.014437500387430191,0.31638750433921814
1788107653318881000,9.274881103515625,-0.2700499892234802,0.03629999980330467,0.345674991607666
1788107653328967200,9.28496728515625,-0.2737624943256378,0.05953750014305115,0.3909125030040741
1788107653339055000,9.29505517578125,-0.2835249900817871,0.0742499977350235,0.43738749623298645
1788107653349144800,9.305144775390625,-0.2932874858379364,0.06201250106096268,0.4727250039577484
1788107653359235000,9.315235107421875,-0.305525004863739,0.03396249935030937,0.48743748664855957
1788107653369328000,9.325328125,-0.31652501225471497,0.010724999941885471,0.4666749835014343
1788107653379437600,9.3354375,-0.3030500113964081,0.004537499975413084,0.42143750190734863
1788107653389518800,9.345518798828126,-0.2773374915122986,0.01924999989569187,0.36643749475479126
1788107653399611000,9.35561083984375,-0.23952500522136688,0.05101250112056732,0.329862505197525
1788107653409698800,9.36569873046875,-0.20281249284744263,0.08153750002384186,0.3078624904155731
1788107653419784200,9.3757841796875,-0.17476250231266022,0.08896250277757645,0.2956250011920929
1788107653429877500,9.38587744140625,-0.13571250438690186,0.05953750014305115,0.2773374915122986
1788107653439964200,9.395964111328125,-0.10518749803304672,-0.003987499978393316,0.23938749730587006
1788107653450047000,9.406046875,-0.06599999964237213,-0.1200374960899353,0.15757499635219574
1788107653460134100,9.416134033203125,-0.02447500079870224,-0.21037499606609344,0.035475000739097595
1788107653470224100,9.42622412109375,0.0170499999076128,-0.28366249799728394,-0.12581250071525574
1788107653480304600,9.4363046875,0.05362499877810478,-0.31542500853538513,-0.3176249861717224
1788107653490390300,9.446390380859375,0.07809999585151672,-0.3044250011444092,-0.5058624744415283
1788107653500471800,9.456471923828126,0.09404999762773514,-0.23980000615119934,-0.669487476348877
1788107653510553600,9.4665537109375,0.12209999561309814,-0.14451250433921814,-0.8148249983787537
1788107653520637700,9.4766376953125,0.18933749198913574,-0.028324998915195465,-0.8955374956130981
1788107653530722800,9.486722900390625,0.26743748784065247,0.014437500387430191,-0.9065374732017517
1788107653540807000,9.496806884765626,0.30291250348091125,0.06572499871253967,-0.8295375108718872
1788107653550887000,9.506886962890626,0.22343750298023224,0.04977500066161156,-0.7062000036239624
1788107653560963000,9.516963134765625,0.210099995136261,-0.1896124929189682,-0.6096749901771545
1788107653571041300,9.527041259765625,0.22962500154972076,-0.42294999957084656,-0.5729625225067139
1788107653581127200,9.537127197265624,0.21738749742507935,-0.6269999742507935,-0.6389625072479248
1788107653591210800,9.547210693359375,0.27719998359680176,-0.7284749746322632,-0.8637750148773193
1788107653601290200,9.557290283203125,0.3431999981403351,-0.7297124862670898,-1.1961125135421753
1788107653611380200,9.567380126953125,0.40424999594688416,-0.6111875176429749,-1.4672625064849854
1788107653621473800,9.577473876953125,0.4226749837398529,-0.3778499960899353,-1.6420249938964844
1788107653631558400,9.587558349609376,0.4690124988555908,-0.23237499594688416,-1.714074969291687
1788107653641642800,9.597642822265625,0.5191999673843384,-0.142037495970726,-1.6420249938964844
1788107653651726300,9.607726318359376,0.5374875068664551,-0.142037495970726,-1.4330250024795532
1788107653661807400,9.617807373046874,0.5167250037193298,-0.22013749182224274,-1.1556874513626099
1788107653671890400,9.627890380859375,0.4862000048160553,-0.3240875005722046,-0.8540124893188477
1788107653681982200,9.637982177734376,0.48977500200271606,-0.46213749051094055,-0.5766749978065491
1788107653692068400,9.648068359375,0.42625001072883606,-0.49018749594688416,-0.29315000772476196
1788107653702163500,9.65816357421875,0.3371500074863434,-0.4096125066280365,-0.025712499395012856
1788107653712243000,9.668242919921875,0.28943750262260437,-0.3386625051498413,0.13805000483989716
1788107653722332400,9.67833251953125,0.282150000333786,-0.18713749945163727,0.2186249941587448
1788107653732413000,9.688412841796875,0.2686749994754791,-0.0882750004529953,0.23086249828338623
1788107653742505700,9.698505615234374,0.23567499220371246,0.0034374999813735485,0.22962500154972076
1788107653752591000,9.708591064453126,0.210099995136261,0.01677500084042549,0.21986250579357147
1788107653762675500,9.718675537109375,0.21986250579357147,0.010724999941885471,0.18205000460147858
1788107653772751000,9.728751220703124,0.23333749175071716,0.018012499436736107,0.14904999732971191
1788107653782840000,9.738840087890624,0.2638624906539917,-0.038224998861551285,0.10628750175237656
1788107653792920600,9.748920654296874,0.22591249644756317,0.04124999791383743,0.1050499975681305
1788107653813091600,9.769091552734375,-0.04647500067949295,0.2428250014781952,0.2626250088214874
1788107653823188200,9.779188232421875,-0.05623750016093254,0.2745875120162964,0.3445749878883362
1788107653833271000,9.78927099609375,-0.07342500239610672,0.24777500331401825,0.4398624897003174
1788107653843361000,9.799361083984374,-0.08552499860525131,0.18658749759197235,0.48743748664855957
1788107653853440000,9.80943994140625,-0.059950001537799835,0.14630000293254852,0.44591251015663147
1788107653863531500,9.819531494140625,0.007287499960511923,0.09872499853372574,0.33467498421669006
1788107653873617700,9.82961767578125,0.07438749819993973,0.05596249923110008,0.20652499794960022
1788107653883710200,9.839710205078125,0.13062499463558197,0.08896250277757645,0.08552499860525131
1788107653893793300,9.849793212890624,0.1428624987602234,0.20006249845027924,-0.0085249999538064
1788107653903890200,9.85989013671875,0.1648624986410141,0.2513499855995178,-0.054999999701976776
1788107653913987000,9.869987060546874,0.1368124932050705,0.30882498621940613,-0.054999999701976776
1788107653924070100,9.880070068359375,0.14162500202655792,0.31130000948905945,-0.023237500339746475
1788107653934154500,9.890154541015624,0.1293874979019165,0.33934998512268066,0.05623750016093254
1788107653944242400,9.900242431640624,0.12815000116825104,0.3320625126361847,0.2003374993801117
1788107653954324000,9.910323974609375,0.14891250431537628,0.31130000948905945,0.39214998483657837
1788107653964416800,9.920416748046875,0.11357499659061432,0.2147749960422516,0.607200026512146
1788107653974501000,9.930501220703125,0.1013374999165535,0.0705375000834465,0.7660124897956848
1788107653984586200,9.940586181640626,0.07933750003576279,-0.07975000143051147,0.8148249983787537
1788107653994666800,9.950666748046874,0.05362499877810478,-0.19813749194145203,0.7587249875068665
1788107654004751600,9.960751708984375,0.035337500274181366,-0.23361249268054962,0.6157249808311462
1788107654014849800,9.970849853515626,0.014574999921023846,-0.18837499618530273,0.4496249854564667
1788107654024942800,9.98094287109375,0.00976249948143959,-0.0845625028014183,0.30662500858306885
1788107654035029000,9.991029052734374,0.013337500393390656,0.021724998950958252,0.19304999709129333
1788107654045127400,10.00112744140625,0.037812501192092896,0.09006249904632568,0.11110000312328339
1788107654055217000,10.011216796875,0.05486249923706055,0.07301250100135803,0.04028749838471413
1788107654065296600,10.021296630859375,0.07686249911785126,0.03396249935030937,0.018287500366568565
1788107654075391200,10.03139111328125,0.11481250077486038,-0.003987499978393316,0.04152499884366989
1788107654085476000,10.04147607421875,0.1551000028848648,-0.023512499406933784,0.07699999958276749
1788107654095565600,10.051565673828126,0.2063875049352646,-0.047987498342990875,0.1013374999165535
1788107654105657900,10.061657958984375,0.2626250088214874,-0.07727500051259995,0.11233749985694885
1788107654115748900,10.071748779296875,0.3236750066280365,-0.11261250078678131,0.0989999994635582
1788107654125844700,10.0818447265625,0.37991249561309814,-0.12251249700784683,0.07933750003576279
1788107654135928000,10.091927978515624,0.4349125027656555,-0.10284999758005142,0.06228749826550484
1788107654146020000,10.10202001953125,0.4666749835014343,-0.06132499873638153,0.05623750016093254
1788107654156107500,10.112107421875,0.4727250039577484,-0.010037500411272049,0.06104999780654907
1788107654166203600,10.12220361328125,0.46543750166893005,0.007012499962002039,0.045237500220537186
1788107654176289300,10.132289306640626,0.4384874999523163,-0.01251249946653843,-0.01347499992698431
1788107654186381800,10.1423818359375,0.4092000126838684,-0.003987499978393316,-0.10147500038146973
1788107654196467700,10.1524677734375,0.3774375021457672,0.03272499889135361,-0.20776249468326569
1788107654206558200,10.16255810546875,0.3529624938964844,0.13282500207424164,-0.2858625054359436
1788107654216644400,10.172644287109375,0.33838748931884766,0.2428250014781952,-0.31404998898506165
1788107654226732500,10.182732666015625,0.31638750433921814,0.33082500100135803,-0.2675749957561493
1788107654236817000,10.19281689453125,0.27486249804496765,0.3698749840259552,-0.15633749961853027
1788107654246907600,10.20290771484375,0.2186249941587448,0.346637487411499,-0.035475000739097595
1788107654256989000,10.212989013671875,0.15991249680519104,0.2733500003814697,0.07081250101327896
1788107654267084300,10.223084228515624,0.1013374999165535,0.22206249833106995,0.13805000483989716
1788107654277168000,10.233168212890625,0.057337500154972076,0.22811250388622284,0.18205000460147858
1788107654287256300,10.24325634765625,0.013337500393390656,0.30387499928474426,0.2223374992609024
1788107654297339400,10.25333935546875,-0.04895000159740448,0.40287500619888306,0.28091248869895935
1788107654307429600,10.2634296875,-0.11495000123977661,0.4456374943256378,0.3469125032424927
1788107654317517600,10.273517578125,-0.16747500002384186,0.37111249566078186,0.3823874890804291
1788107654327609900,10.28360986328125,-0.20528750121593475,0.2147749960422516,0.340862512588501
1788107654337697800,10.29369775390625,-0.25423750281333923,0.05596249923110008,0.21986250579357147
1788107654347791600,10.30379150390625,-0.26881250739097595,-0.03203750029206276,0.05004999786615372
1788107654357881900,10.3138818359375,-0.2810499966144562,-0.057750001549720764,-0.13323749601840973
1788107654367979000,10.32397900390625,-0.2700499892234802,-0.07356250286102295,-0.36162498593330383
1788107654378058200,10.334058349609375,-0.2639999985694885,-0.033275000751018524,-0.594962477684021
1788107654388149800,10.344149658203126,-0.2773374915122986,0.09129999577999115,-0.7623000144958496
1788107654398234000,10.354234130859375,-0.3067624866962433,0.28929999470710754,-0.817300021648407
1788107654408324000,10.364323974609375,-0.32381248474121094,0.4883999824523926,-0.7489625215530396
1788107654418410800,10.37441064453125,-0.3348124921321869,0.5531625151634216,-0.5974375009536743
1788107654428559000,10.38455908203125,-0.3335750102996826,0.5164499878883362,-0.41909998655319214
1788107654438643000,10.394642822265626,-0.36176249384880066,0.34911251068115234,-0.2480500042438507
1788107654448724000,10.404723876953126,-0.35804998874664307,0.258774995803833,-0.11852499842643738
1788107654458811600,10.414811767578126,-0.34952500462532043,0.20377500355243683,-0.059812501072883606
1788107654468896800,10.424896728515625,-0.32133749127388,0.2232999950647354,-0.07328750193119049
1788107654478975500,10.4349755859375,-0.2895750105381012,0.33687499165534973,-0.09776250272989273
1788107654489057500,10.4450576171875,-0.24557499587535858,0.45416250824928284,-0.0952875018119812
1788107654499146000,10.45514599609375,-0.17599999904632568,0.521399974822998,-0.09157499670982361
1788107654509236200,10.465236328125,-0.11976250261068344,0.5201625227928162,-0.07081250101327896
1788107654519320300,10.4753203125,-0.0929500013589859,0.49939998984336853,-0.0012374999932944775
1788107654529449200,10.48544921875,-0.08923749625682831,0.4676375091075897,0.1050499975681305
1788107654539538000,10.495537841796875,-0.08566249907016754,0.39682498574256897,0.21986250579357147
1788107654549626600,10.505626708984375,-0.08676250278949738,0.2648249864578247,0.3091000020503998
1788107654559709000,10.515708984375,-0.08566249907016754,0.10106249898672104,0.3188624978065491
1788107654569794000,10.5257939453125,-0.08318749815225601,-0.01251249946653843,0.2540999948978424
1788107654579882500,10.535882568359375,-0.08195000141859055,-0.050324998795986176,0.12333749979734421
1788107654589967000,10.545967041015626,-0.052662499248981476,-0.011274999938905239,-0.025712499395012856
1788107654600051700,10.5560517578125,-0.00013749999925494194,0.08153750002384186,-0.1625249981880188
1788107654610140400,10.566140380859375,0.05362499877810478,0.18782499432563782,-0.24186250567436218
1788107654620229000,10.57622900390625,0.08910000324249268,0.2488749921321869,-0.2223374992609024
1788107654630299400,10.58629931640625,0.12333749979734421,0.2465374916791916,-0.11976250261068344
1788107654640384000,10.596384033203124,0.1551000028848648,0.19634999334812164,0.045237500220537186
1788107654650466800,10.606466796875,0.1588124930858612,0.14024999737739563,0.2320999950170517
1788107654660546300,10.61654638671875,0.16609999537467957,0.1023000031709671,0.3726249933242798
1788107654670631400,10.62663134765625,0.1868624985218048,0.08648750185966492,0.4581499993801117
1788107654680711200,10.636711181640624,0.20886249840259552,0.07177499681711197,0.4618625044822693
1788107654690798600,10.646798583984374,0.23086249828338623,0.1023000031709671,0.44343748688697815
1788107654700886300,10.65688623046875,0.234437495470047,0.15606249868869781,0.4618625044822693
1788107654710970000,10.66697021484375,0.24186250567436218,0.23058749735355377,0.5179625153541565
1788107654721059800,10.677059814453125,0.25519999861717224,0.25987499952316284,0.5974375009536743
1788107654731145000,10.68714501953125,0.2761000096797943,0.2513499855995178,0.6719624996185303
1788107654741230800,10.69723095703125,0.27114999294281006,0.2050125002861023,0.7512999773025513
1788107654751310800,10.707310791015624,0.22962500154972076,0.1438249945640564,0.8368250131607056
1788107654761402400,10.71740234375,0.1428624987602234,0.06696250289678574,0.9101125001907349
1788107654771493400,10.727493408203125,0.0658624991774559,-0.04427500069141388,0.9736375212669373
1788107654781585200,10.737585205078124,0.0170499999076128,-0.22261250019073486,0.9895874857902527
1788107654791671800,10.747671875,-0.01347499992698431,-0.4291374981403351,0.9138249754905701
1788107654801761800,10.75776171875,-0.062424998730421066,-0.6710000038146973,0.742775022983551
1788107654811843600,10.767843505859375,-0.12718750536441803,-0.8823375105857849,0.5314375162124634
1788107654821926000,10.77792578125,-0.15028749406337738,-1.092437505722046,0.31033748388290405
1788107654832010200,10.78801025390625,-0.30799999833106995,-1.4235374927520752,0.3188624978065491
1788107654842101200,10.798101318359375,-0.2737624943256378,-1.1254374980926514,0.05623750016093254
1788107654852191200,10.808191162109376,-0.12223749607801437,-0.45237499475479126,-0.12581250071525574
1788107654862286000,10.8182861328125,-0.08552499860525131,-0.5159000158309937,0.01952499896287918
1788107654872359700,10.828359619140626,0.0170499999076128,-0.5512375235557556,0.015812499448657036
1788107654882450200,10.8384501953125,0.10009999573230743,-0.5464249849319458,-0.006049999967217445
1788107654892534000,10.848533935546875,0.15015000104904175,-0.7002875208854675,-0.045237500220537186
1788107654902627800,10.8586279296875,0.21133749186992645,-0.6892874836921692,-0.25905001163482666
1788107654912714000,10.8687138671875,0.2063875049352646,-0.5024250149726868,-0.5314375162124634
1788107654922803000,10.878802978515624,0.11357499659061432,-0.27761250734329224,-0.7904874682426453
1788107654932886500,10.888886474609375,0.06104999780654907,0.018012499436736107,-0.9810624718666077
1788107654942971600,10.8989716796875,-0.03189999982714653,0.2708750069141388,-1.0775874853134155
1788107654953062000,10.909061767578125,-0.16005000472068787,0.3003000020980835,-1.1886874437332153
1788107654963148000,10.91914794921875,-0.2957625091075897,0.07796250283718109,-1.4099249839782715
1788107654973234000,10.92923388671875,-0.4263874888420105,-0.3020874857902527,-1.726312518119812
1788107654983329300,10.939329345703126,-0.5559124946594238,-0.6147624850273132,-2.103749990463257
1788107654993412000,10.949412109375,-0.6389625072479248,-0.7528125047683716,-2.487375020980835
1788107655003505700,10.959505615234375,-0.651199996471405,-0.6782875061035156,-2.787950038909912
1788107655013589000,10.969589111328125,-0.5816249847412109,-0.431612491607666,-2.8807625770568848
1788107655023673300,10.97967333984375,-0.39352500438690186,-0.028324998915195465,-2.6646125316619873
1788107655033758500,10.989758544921875,-0.12594999372959137,0.37111249566078186,-2.201512575149536
1788107655043850800,10.999850830078126,0.08181250095367432,0.6619250178337097,-1.5820749998092651
1788107655053931500,11.009931640625,0.2003374993801117,0.7889750003814697,-0.8270624876022339
1788107655064021500,11.020021484375,0.24791249632835388,0.7607874870300293,-0.05252499878406525
1788107655074107100,11.030107177734376,0.2540999948978424,0.599637508392334,0.6474875211715698
1788107655084195600,11.040195556640626,0.2686749994754791,0.3638249933719635,1.1874500513076782
1788107655094278100,11.050278076171875,0.29438748955726624,0.1438249945640564,1.5050749778747559
1788107655104363800,11.06036376953125,0.2956250011920929,-0.007562499959021807,1.6003625392913818
1788107655114449400,11.070449462890625,0.2699125111103058,-0.03451250120997429,1.4904999732971191
1788107655124539100,11.0805390625,0.24543750286102295,0.05224999785423279,1.214400053024292
1788107655134625800,11.090625732421875,0.2246749997138977,0.20253749191761017,0.8735374808311462
1788107655144716300,11.10071630859375,0.2003374993801117,0.34540000557899475,0.5143874883651733
1788107655154799000,11.110799072265625,0.16981250047683716,0.43834999203681946,0.2040500044822693
1788107655164883200,11.12088330078125,0.13557499647140503,0.46639999747276306,0.0085249999538064
1788107655174968300,11.13096826171875,0.11838749796152115,0.48592498898506165,-0.07328750193119049
1788107655185054000,11.141053955078124,0.14781250059604645,0.5201625227928162,-0.042762499302625656
1788107655195144400,11.15114453125,0.18314999341964722,0.47011250257492065,0.07452499866485596
1788107655205236200,11.161236328125,0.22343750298023224,0.37716248631477356,0.2283875048160553
1788107655215322000,11.171322021484375,0.2662000060081482,0.2685374915599823,0.4129124879837036
1788107655225408300,11.181408203125,0.3016749918460846,0.11824999749660492,0.5876749753952026
1788107655235486700,11.19148681640625,0.32120001316070557,-0.05403750017285347,0.7085375189781189
1788107655245578200,11.201578125,0.3236750066280365,-0.1872749924659729,0.730537474155426
1788107655255669800,11.211669677734376,0.32243749499320984,-0.2971374988555908,0.6327750086784363
1788107655265756400,11.22175634765625,0.297962486743927,-0.36684998869895935,0.45691248774528503
1788107655275837400,11.23183740234375,0.26510000228881836,-0.36918750405311584,0.22110000252723694
1788107655285931800,11.241931884765625,0.22591249644756317,-0.32532501220703125,-0.025712499395012856
1788107655296012500,11.252012451171876,0.1929125040769577,-0.2287999987602234,-0.24186250567436218
1788107655306105600,11.262105712890625,0.1685750037431717,-0.1260875016450882,-0.41909998655319214
1788107655316196900,11.27219677734375,0.1331000030040741,-0.03698749840259552,-0.5106750130653381
1788107655326291000,11.282291015625,0.10381250083446503,0.07301250100135803,-0.48138749599456787
1788107655336376000,11.2923759765625,0.0695749968290329,0.15606249868869781,-0.3531000018119812
1788107655346467800,11.3024677734375,0.04152499884366989,0.20006249845027924,-0.16733749210834503
1788107655356555500,11.312555419921875,0.03657500073313713,0.1658249944448471,0.01223750039935112
1788107655366643700,11.322643798828125,0.028049999848008156,0.05829999968409538,0.13805000483989716
1788107655376724500,11.332724365234375,0.002337499987334013,-0.07975000143051147,0.1966249942779541
1788107655386818000,11.342818115234374,-0.023237500339746475,-0.1615625023841858,0.19304999709129333
1788107655396899600,11.352899658203125,-0.032999999821186066,-0.17379999160766602,0.1368124932050705
1788107655406983400,11.3629833984375,-0.032999999821186066,-0.1615625023841858,0.032999999821186066
1788107655417075200,11.3730751953125,-0.023237500339746475,-0.142037495970726,-0.13323749601840973
1788107655427158800,11.38315869140625,-0.01223750039935112,-0.1480875015258789,-0.3188624978065491
1788107655437240600,11.393240478515626,-0.032999999821186066,-0.19085000455379486,-0.524150013923645
1788107655447327000,11.403326904296875,-0.06476250290870667,-0.2213750034570694,-0.7085375189781189
1788107655457426000,11.413426025390624,-0.10147500038146973,-0.2213750034570694,-0.8392999768257141
1788107655467519500,11.42351953125,-0.12828749418258667,-0.22756250202655792,-0.9310125112533569
1788107655477606400,11.4336064453125,-0.14547500014305115,-0.21037499606609344,-0.996874988079071
1788107655487698200,11.4436982421875,-0.1381874978542328,-0.17737500369548798,-1.053112506866455
1788107655497781800,11.45378173828125,-0.12099999934434891,-0.0882750004529953,-1.0641125440597534
1788107655507874300,11.463874267578126,-0.10642500221729279,0.06201250106096268,-0.9908249974250793
1788107655517964800,11.47396484375,-0.08552499860525131,0.2391124963760376,-0.8137249946594238
1788107655528049000,11.484048828125,-0.05623750016093254,0.3381125032901764,-0.5619624853134155
1788107655538127400,11.49412744140625,-0.020899999886751175,0.35887500643730164,-0.29438748955726624
1788107655548215800,11.5042158203125,0.002337499987334013,0.30758750438690186,-0.05128749832510948
1788107655558309600,11.5143095703125,-0.002474999986588955,0.2782999873161316,0.13928750157356262
1788107655568402000,11.52440185546875,-0.00989999994635582,0.32339999079704285,0.2993375062942505
1788107655578483200,11.534483154296876,-0.023237500339746475,0.39311251044273376,0.4398624897003174
1788107655588574000,11.544573974609374,-0.03189999982714653,0.4468750059604645,0.5692499876022339
1788107655598659600,11.55465966796875,-0.028187500312924385,0.4786374866962433,0.6890124678611755
1788107655608750800,11.564750732421874,-0.015949999913573265,0.521399974822998,0.8210124969482422
1788107655618836200,11.574836181640626,-0.007424999959766865,0.5714499950408936,0.9700624942779541
1788107655628926000,11.584926025390626,-0.01718750037252903,0.5641624927520752,1.1203500032424927
1788107655639007500,11.595007568359375,-0.03423750028014183,0.5299249887466431,1.2583999633789062
1788107655649094400,11.605094482421874,-0.054999999701976776,0.4736874997615814,1.356024980545044
1788107655659178200,11.61517822265625,-0.06971249729394913,0.4248749911785126,1.3829749822616577
1788107655669265000,11.625264892578125,-0.06599999964237213,0.3821125030517578,1.3279750347137451
1788107655679350500,11.6353505859375,-0.04399999976158142,0.3686375021934509,1.202162504196167
1788107655689442600,11.645442626953125,-0.01347499992698431,0.3686375021934509,1.015162467956543
1788107655699519000,11.65551904296875,0.0035749999806284904,0.3833499848842621,0.7953000068664551
1788107655709603300,11.665603271484375,0.01952499896287918,0.4113999903202057,0.5827249884605408
1788107655719688700,11.675688720703125,0.02186249941587448,0.3918749988079071,0.39820000529289246
1788107655729779200,11.685779296875,0.025575000792741776,0.3198249936103821,0.23938749730587006
1788107655739865300,11.695865234375,0.032862499356269836,0.22206249833106995,0.15152500569820404
1788107655749952800,11.705952880859375,0.05004999786615372,0.09006249904632568,0.1270499974489212
1788107655760036600,11.71603662109375,0.05252499878406525,-0.06751249730587006,0.1050499975681305
1788107655770126800,11.726126953125,0.06338749825954437,-0.22261250019073486,0.035475000739097595
1788107655780211200,11.736211181640625,0.1013374999165535,-0.3460874855518341,-0.0989999994635582
1788107655790290400,11.74629052734375,0.14409999549388885,-0.41442498564720154,-0.273624986410141
1788107655800368400,11.756368408203125,0.170912504196167,-0.4657124876976013,-0.4203374981880188
1788107655810453000,11.766452880859376,0.17833749949932098,-0.4974749982357025,-0.5534374713897705
1788107655820533800,11.77653369140625,0.16362500190734863,-0.5549499988555908,-0.7037249803543091
1788107655830617900,11.786617919921875,0.13557499647140503,-0.585474967956543,-0.8820624947547913
1788107655850788000,11.8067880859375,0.07438749819993973,-0.41442498564720154,-1.1203500032424927
1788107655860875500,11.81687548828125,0.045099999755620956,-0.23980000615119934,-1.0921624898910522
1788107655870954000,11.8269541015625,0.04152499884366989,-0.056512501090765,-0.9345874786376953
1788107655881039400,11.837039306640625,0.04881250113248825,0.05348749831318855,-0.6804875135421753
1788107655891125000,11.847125,0.05857500061392784,0.05596249923110008,-0.38362500071525574
1788107655901214000,11.8572138671875,0.057337500154972076,-0.007562499959021807,-0.11247500032186508
1788107655911296500,11.867296630859375,0.05004999786615372,-0.06627500057220459,0.07699999958276749
1788107655921385000,11.877385009765625,0.04028749838471413,-0.052799999713897705,0.1685750037431717
1788107655931469800,11.8874697265625,0.013337500393390656,0.0034374999813735485,0.17352500557899475
1788107655941558800,11.897558837890625,-0.018424998968839645,0.07177499681711197,0.1405249983072281
1788107655951639300,11.907639404296875,-0.040424998849630356,0.12677499651908875,0.09652499854564667
1788107655961728800,11.917728759765625,-0.042899999767541885,0.1732500046491623,0.05857500061392784
1788107655971803400,11.927803466796876,-0.04166249930858612,0.19882500171661377,0.03657500073313713
1788107655981897000,11.93789697265625,-0.030662499368190765,0.19277499616146088,0.0317624993622303
1788107655991978200,11.947978271484375,-0.03918749839067459,0.16224999725818634,0.04028749838471413
1788107656002066000,11.95806591796875,-0.03918749839067459,0.11577499657869339,0.03423750028014183
1788107656012147700,11.968147705078126,-0.035475000739097595,0.09872499853372574,0.00976249948143959
1788107656022235600,11.978235595703126,-0.020899999886751175,0.14506250619888306,0.0012374999932944775
1788107656032315600,11.988315673828126,0.0035749999806284904,0.2012999951839447,0.0037124999798834324
1788107656042410500,11.998410400390625,0.014574999921023846,0.2050125002861023,0.020762499421834946
1788107656052487700,12.00848779296875,0.023099999874830246,0.16224999725818634,0.035475000739097595
1788107656062577000,12.018576904296875,0.037812501192092896,0.1120624989271164,0.032999999821186066
1788107656072656600,12.02865673828125,0.057337500154972076,0.08524999767541885,0.004812499973922968
1788107656082747400,12.038747314453126,0.08057499676942825,0.08153750002384186,-0.045237500220537186
1788107656092826600,12.04882666015625,0.11110000312328339,0.07672499865293503,-0.10876250267028809
1788107656102922200,12.058922119140625,0.14533749222755432,0.07548750191926956,-0.16609999537467957
1788107656112995000,12.0689951171875,0.17957499623298645,0.11082500219345093,-0.1868624985218048
1788107656123083000,12.0790830078125,0.2149125039577484,0.19277499616146088,-0.1405249983072281
1788107656133165000,12.0891650390625,0.22962500154972076,0.26358750462532043,-0.015949999913573265
1788107656143254800,12.0992548828125,0.2283875048160553,0.267300009727478,0.12581250071525574
1788107656153335300,12.109335205078125,0.22591249644756317,0.22082500159740448,0.24914999306201935
1788107656163422000,12.119421875,0.20514999330043793,0.19277499616146088,0.3591499924659729
1788107656173509000,12.129509033203124,0.17338749766349792,0.1975875049829483,0.41786250472068787
1788107656183598800,12.139598876953125,0.1428624987602234,0.22082500159740448,0.420199990272522
1788107656193686800,12.149686767578125,0.11838749796152115,0.2293500006198883,0.3493874967098236
1788107656203767000,12.15976708984375,0.08057499676942825,0.23430000245571136,0.24062499403953552
1788107656213843700,12.16984375,0.05004999786615372,0.24529999494552612,0.13557499647140503
1788107656223926000,12.179926025390625,0.02433750033378601,0.24406249821186066,0.05252499878406525
1788107656234009600,12.190009521484376,-0.0012374999932944775,0.2293500006198883,-0.015949999913573265
1788107656244099600,12.200099609375,-0.05142499879002571,0.19277499616146088,-0.09652499854564667
1788107656254183400,12.210183349609375,-0.10395000129938126,0.15853749215602875,-0.1625249981880188
1788107656264272400,12.2202724609375,-0.12952500581741333,0.14506250619888306,-0.2125750035047531
1788107656284442000,12.240442138671876,-0.10999999940395355,0.13529999554157257,-0.32010000944137573
1788107656294525000,12.25052490234375,-0.08071249723434448,0.19634999334812164,-0.3653374910354614
1788107656304652300,12.26065234375,-0.05376249924302101,0.28187498450279236,-0.3445749878883362
1788107656314740500,12.270740478515625,-0.025712499395012856,0.341825008392334,-0.26510000228881836
1788107656324831000,12.2808310546875,-0.0012374999932944775,0.33082500100135803,-0.1405249983072281
1788107656334922200,12.290922119140625,0.01209999993443489,0.24529999494552612,-0.02447500079870224
1788107656345011000,12.301010986328125,0.025575000792741776,0.17434999346733093,0.054999999701976776
1788107656355098600,12.3110986328125,0.05252499878406525,0.11948750168085098,0.09033749997615814
1788107656365189400,12.321189453125,0.08538749814033508,0.1120624989271164,0.09033749997615814
1788107656375282200,12.3312822265625,0.11962500214576721,0.11824999749660492,0.06228749826550484
1788107656385368800,12.341368896484376,0.14038750529289246,0.09129999577999115,-0.0012374999932944775
1788107656395458800,12.351458740234374,0.14409999549388885,0.08648750185966492,-0.07823749631643295
1788107656405557500,12.3615576171875,0.14162500202655792,0.09624999761581421,-0.14904999732971191
1788107656415660500,12.37166064453125,0.13791249692440033,0.13653749227523804,-0.17352500557899475
1788107656425751300,12.381751220703125,0.1331000030040741,0.179299995303154,-0.1405249983072281
1788107656435841800,12.391841796875,0.12086249887943268,0.20006249845027924,-0.0672374963760376
1788107656445927000,12.401927001953124,0.09886249899864197,0.2293500006198883,0.03657500073313713
1788107656456016100,12.41201611328125,0.07933750003576279,0.2293500006198883,0.15152500569820404
1788107656466113000,12.422113037109375,0.059812501072883606,0.18782499432563782,0.2480500042438507
1788107656476196600,12.432196533203125,0.05362499877810478,0.1280124932527542,0.28462499380111694
1788107656486295800,12.4422958984375,0.030524998903274536,0.04124999791383743,0.24914999306201935
1788107656496382500,12.452382568359376,-0.00494999997317791,-0.011274999938905239,0.16376249492168427
1788107656506469000,12.46246923828125,-0.037950001657009125,-0.02474999986588955,0.037812501192092896
1788107656516592600,12.472592529296875,-0.06599999964237213,0.011962499469518661,-0.08923749625682831
1788107656526679600,12.482679443359375,-0.08071249723434448,0.07796250283718109,-0.18576249480247498
1788107656536765200,12.49276513671875,-0.10023749619722366,0.17077499628067017,-0.23457500338554382
1788107656546849500,12.502849609375,-0.11728750169277191,0.22811250388622284,-0.24928750097751617
1788107656556942600,12.512942626953125,-0.1381874978542328,0.267300009727478,-0.19910000264644623
1788107656567028000,12.523028076171874,-0.14918750524520874,0.26606249809265137,-0.10628750175237656
1788107656577119200,12.533119140625,-0.15523749589920044,0.2171124964952469,-0.02928750030696392
1788107656587210200,12.543210205078125,-0.1699499934911728,0.14024999737739563,0.0317624993622303
1788107656597307600,12.5533076171875,-0.18576249480247498,0.09501250088214874,0.06228749826550484
1788107656607394300,12.563394287109375,-0.1942874938249588,0.12553749978542328,0.08923749625682831
1788107656617486600,12.573486572265624,-0.1942874938249588,0.18658749759197235,0.10628750175237656
1788107656627571000,12.583571044921875,-0.1979999989271164,0.2232999950647354,0.08304999768733978
