time,seconds_elapsed,z,y,x
1788107461061272000,0.05427197265625,-0.025294000282883644,0.14816999435424805,-0.4252780079841614
1788107461071362600,0.064362548828125,-0.22561900317668915,0.2060070037841797,-0.39948201179504395
1788107461091567000,0.084567138671875,-0.12232600152492523,0.15817399322986603,-0.3277199864387512
1788107461101658000,0.094658203125,0.019763000309467316,0.13970699906349182,-0.3327459990978241
1788107461111752000,0.104751953125,0.16263599693775177,0.14876000583171844,-0.33604100346565247
1788107461142005200,0.135005126953125,0.5123299956321716,0.08911000192165375,-0.08589600026607513
1788107461162180600,0.1551806640625,0.49720498919487,-0.02691500075161457,0.07982499897480011
1788107461172252400,0.16525244140625,0.36834099888801575,-0.005245000123977661,0.09291200339794159
1788107461182331100,0.1753310546875,0.2894429862499237,-0.09452400356531143,0.07073099911212921
1788107461192417500,0.18541748046875,0.21412700414657593,-0.19594599306583405,0.06574200093746185
1788107461202506200,0.19550634765625,0.04408999904990196,-0.22798499464988708,0.08595799654722214
1788107461222673400,0.21567333984375,-0.35525500774383545,-0.16155700385570526,0.09987500309944153
1788107461242847200,0.23584716796875,-0.566523015499115,-0.29084599018096924,-0.1110529974102974
1788107461252932000,0.24593212890625,-0.6155329942703247,-0.2169950008392334,-0.19088399410247803
1788107461263016400,0.256016357421875,-0.6434140205383301,-0.19910800457000732,-0.32569199800491333
1788107461273111000,0.266111083984375,-0.573403000831604,-0.1594489961862564,-0.35962098836898804
1788107461283196200,0.276196044921875,-0.435139000415802,-0.19395500421524048,-0.3176659941673279
1788107461293294800,0.286294921875,-0.3032119870185852,-0.2196660041809082,-0.2121099978685379
1788107461303383000,0.296383056640625,-0.24357900023460388,-0.19409799575805664,-0.10963699966669083
1788107461313459000,0.306458984375,-0.21510900557041168,-0.19906699657440186,-0.10887499898672104
1788107461323544000,0.3165439453125,-0.17991900444030762,-0.2081190049648285,-0.11893299967050552
1788107461333625900,0.3266259765625,-0.07511100172996521,-0.17656399309635162,-0.044112998992204666
1788107461343711500,0.33671142578125,-0.10079500079154968,-0.14179399609565735,-0.0029539999086409807
1788107461353794600,0.346794677734375,-0.1398800015449524,-0.10076399892568588,-0.03946499899029732
1788107461363884500,0.356884521484375,-0.19835400581359863,-0.0883219987154007,-0.0700799971818924
1788107461373961000,0.3669609375,-0.2154349982738495,-0.11004400253295898,-0.07769399881362915
1788107461384050000,0.3770498046875,-0.1810619980096817,-0.10661900043487549,-0.027123000472784042
1788107461394144000,0.38714404296875,-0.24237699806690216,-0.06229599937796593,0.03125699982047081
1788107461404237800,0.39723779296875,-0.25977399945259094,0.040821999311447144,0.04202299937605858
1788107461414322400,0.407322509765625,-0.24205100536346436,0.09200599789619446,0.03272400051355362
1788107461424413000,0.417412841796875,-0.23432299494743347,0.1697079986333847,0.023089999333024025
1788107461434507300,0.42750732421875,-0.2760480046272278,0.3181839883327484,-0.08819799870252609
1788107461444600600,0.4376005859375,-0.4081740081310272,0.3540300130844116,-0.24124999344348907
1788107461454681900,0.447681884765625,-0.5167030096054077,0.32320401072502136,-0.33608099818229675
1788107461464770600,0.4577705078125,-0.5924599766731262,0.29617899656295776,-0.4452719986438751
1788107461474852900,0.467852783203125,-0.6450989842414856,0.4443260133266449,-0.6155949831008911
1788107461484943400,0.477943359375,-0.7017310261726379,0.568539023399353,-0.786014974117279
1788107461495028500,0.488028564453125,-0.6928930282592773,0.5288019776344299,-0.8252500295639038
1788107461505115600,0.49811572265625,-0.6567959785461426,0.5727620124816895,-0.8915200233459473
1788107461515201000,0.508200927734375,-0.5519919991493225,0.5281959772109985,-0.7342259883880615
1788107461525291800,0.518291748046875,-0.6252300143241882,0.7843000292778015,-0.9682639837265015
1788107461535382800,0.5283828125,-0.483814001083374,0.7772870063781738,-0.9768159985542297
1788107461545478000,0.538477783203125,-0.2750389873981476,0.687004029750824,-0.9632819890975952
1788107461555564500,0.548564453125,-0.009333999827504158,0.636775016784668,-0.8256419897079468
1788107461565654500,0.558654541015625,0.01846200041472912,0.6404880285263062,-0.7056519985198975
1788107461575745800,0.568745849609375,0.010358000174164772,0.5763429999351501,-0.6818310022354126
1788107461585830100,0.578830078125,-0.07343100011348724,0.5453959703445435,-0.6676949858665466
1788107461595920600,0.588920654296875,-0.2397170066833496,0.4119270145893097,-0.6965259909629822
1788107461606004700,0.599004638671875,-0.3540700078010559,0.3802259862422943,-0.618494987487793
1788107461616097500,0.60909765625,-0.42249301075935364,0.2660439908504486,-0.34171798825263977
1788107461626180400,0.619180419921875,-0.5263199806213379,0.39530500769615173,-0.38049599528312683
1788107461636267500,0.629267578125,-0.6187779903411865,0.36416900157928467,-0.2697100043296814
1788107461646355700,0.639355712890625,-0.7281270027160645,0.3525789976119995,-0.27892300486564636
1788107461656449800,0.64944970703125,-0.7421990036964417,0.36480599641799927,-0.29033198952674866
1788107461666534700,0.65953466796875,-0.7463709712028503,0.43257901072502136,-0.4861699938774109
1788107461676627000,0.669626953125,-0.676393985748291,0.3925360143184662,-0.5819730162620544
1788107461686720000,0.679719970703125,-0.756259024143219,0.3116520047187805,-0.5272840261459351
1788107461696810200,0.689810302734375,-0.7796750068664551,0.19212399423122406,-0.2979069948196411
1788107461706902300,0.69990234375,-0.9493749737739563,0.11751999706029892,0.3341529965400696
1788107461716988000,0.70998779296875,-0.8902940154075623,-0.06888599693775177,0.8187249898910522
1788107461727078400,0.720078369140625,-1.1009329557418823,-0.16140900552272797,0.7391449809074402
1788107461737170000,0.730169921875,-1.0589070320129395,-0.0659170001745224,0.1019119992852211
1788107461747259100,0.740259033203125,-0.20129799842834473,0.1021059975028038,-0.6537089943885803
1788107461757347800,0.750347900390625,-1.2045730352401733,0.33563798666000366,-1.4366509914398193
1788107461767454200,0.7604541015625,-0.8254780173301697,0.9686970114707947,-1.5648119449615479
1788107461777539000,0.7705390625,-1.6155669689178467,0.2544249892234802,-0.7835239768028259
1788107461787622000,0.780621826171875,-1.5938420295715332,0.21229299902915955,-0.7250620126724243
1788107461797713400,0.79071337890625,-1.0967739820480347,0.439191997051239,-1.0056400299072266
1788107461807798800,0.800798828125,-0.6156349778175354,0.2183309942483902,-0.9108499884605408
1788107461817883400,0.81088330078125,-0.21185199916362762,0.2374430000782013,-0.6161609888076782
1788107461827969000,0.820968994140625,0.4679900109767914,0.15550200641155243,-0.07467500120401382
1788107461838061600,0.8310615234375,0.6570339798927307,-0.434239000082016,0.4445970058441162
1788107461848142600,0.841142578125,0.7112669944763184,-0.4666630029678345,0.6211270093917847
1788107461858234000,0.851234130859375,0.692654013633728,-0.31386798620224,0.5112299919128418
1788107461868321000,0.861321044921875,0.8837890028953552,-0.19141800701618195,0.0470380000770092
1788107461878412800,0.871412841796875,0.8091909885406494,-0.03568600118160248,-0.24931399524211884
1788107461888501000,0.8815009765625,0.7841259837150574,-0.01727600023150444,-0.2681730091571808
1788107461898584600,0.89158447265625,0.806190013885498,0.10475900024175644,-0.4180639982223511
1788107461908665300,0.901665283203125,0.7952650189399719,0.2707560062408447,-0.5536680221557617
1788107461918748700,0.911748779296875,0.7543060183525085,0.2199539989233017,-0.518871009349823
1788107461928831200,0.921831298828125,0.6192200183868408,0.12477999925613403,-0.23548699915409088
1788107461938919200,0.931919189453125,0.3366050124168396,0.02590000070631504,-0.14160899817943573
1788107461949004000,0.942004150390625,0.021289000287652016,0.21237100660800934,-0.5134080052375793
1788107461959088400,0.95208837890625,-0.125900998711586,0.4545220136642456,-1.0171780586242676
1788107461969171000,0.9621708984375,-0.03940200060606003,0.7573649883270264,-1.2610290050506592
1788107461979259600,0.972259765625,-0.1295190006494522,0.7309669852256775,-1.0061310529708862
1788107461989338000,0.982338134765625,-0.016383999958634377,0.6056960225105286,-0.9285879731178284
1788107461999434200,0.992434326171875,0.14180900156497955,0.7837269902229309,-0.9722049832344055
1788107462009514200,1.00251416015625,0.10027799755334854,0.861515998840332,-0.8894339799880981
1788107462019601400,1.012601318359375,0.15459699928760529,0.7391240000724792,-0.8112149834632874
1788107462029683500,1.022683349609375,0.1266459971666336,0.6881070137023926,-0.5726649761199951
1788107462039773000,1.03277294921875,-0.032997000962495804,0.6646680235862732,-0.4856959879398346
1788107462049858000,1.042858154296875,-0.20612099766731262,0.5730090141296387,-0.4449540078639984
1788107462059947500,1.052947509765625,-0.09046100080013275,0.5286980271339417,-0.26265400648117065
1788107462080118800,1.073118896484375,-0.5866140127182007,0.21670599281787872,0.02629300020635128
1788107462090204000,1.083203857421875,-0.00015900000289548188,0.2910110056400299,-0.04760200157761574
1788107462100294400,1.09329443359375,-0.5642200112342834,0.812745988368988,-0.6124230027198792
1788107462110373600,1.10337353515625,-0.29964399337768555,0.8206049799919128,-0.8122519850730896
1788107462120469000,1.113468994140625,-0.47624099254608154,0.9696459770202637,-0.7556869983673096
1788107462130567400,1.1235673828125,-0.31567299365997314,0.5688949823379517,0.09939700365066528
1788107462140651800,1.13365185546875,-0.2554529905319214,0.6286370158195496,-0.31333300471305847
1788107462150737200,1.143737060546875,-0.4696289896965027,-0.0035669999197125435,0.4432939887046814
1788107462160832800,1.153832763671875,-0.046907998621463776,0.4633449912071228,-0.3334769904613495
1788107462170919700,1.163919677734375,0.06622499972581863,0.9127669930458069,-0.5316449999809265
1788107462181011700,1.17401171875,0.1607459932565689,0.7172589898109436,-0.46951499581336975
1788107462191097300,1.184097412109375,0.5484740138053894,0.4307200014591217,-0.3372020125389099
1788107462201189400,1.194189453125,0.6491490006446838,0.420399010181427,-0.10487599670886993
1788107462211274200,1.204274169921875,0.43785399198532104,0.14116400480270386,0.3937399983406067
1788107462221375500,1.21437548828125,0.27396300435066223,-0.08370400220155716,0.6568350195884705
1788107462231466000,1.224466064453125,0.2948800027370453,0.011169999837875366,0.6452069878578186
1788107462241561300,1.234561279296875,0.07740099728107452,0.04903699830174446,0.39497101306915283
1788107462251648000,1.24464794921875,-0.05739999935030937,0.09205800294876099,0.05204800143837929
1788107462261739500,1.254739501953125,-0.44134899973869324,0.28166499733924866,-0.3670920133590698
1788107462271824600,1.26482470703125,-0.4399600028991699,0.40762999653816223,-0.5715979933738708
1788107462281918200,1.274918212890625,-0.4814389944076538,0.3452410101890564,-0.777417004108429
1788107462292008000,1.285008056640625,-0.9066230058670044,0.2452079951763153,-0.6238319873809814
1788107462302098400,1.295098388671875,-1.4745609760284424,-0.14086300134658813,-0.4833129942417145
1788107462312182800,1.305182861328125,-1.184473991394043,0.32235199213027954,-0.266728013753891
1788107462322273300,1.315273193359375,-0.9580910205841064,0.3412100076675415,-0.3797909915447235
1788107462332353000,1.32535302734375,-1.4388999938964844,0.6335970163345337,-1.0882049798965454
1788107462342441200,1.335441162109375,-2.317121982574463,2.4071719646453857,-3.8474628925323486
1788107462352525300,1.345525390625,-1.6257989406585693,3.78341007232666,-5.427073955535889
1788107462362607000,1.355607177734375,-0.43052399158477783,1.5068939924240112,-1.7062029838562012
1788107462372691700,1.365691650390625,-0.35882899165153503,-0.2844099998474121,0.6705800294876099
1788107462382775300,1.375775390625,-0.44422000646591187,-0.02492300048470497,0.7746559977531433
1788107462392860000,1.38585986328125,-0.49403899908065796,0.4445280134677887,0.39446699619293213
1788107462413030400,1.406030517578125,-0.358256995677948,0.11284899711608887,0.1264909952878952
1788107462423112200,1.4161123046875,-0.5985419750213623,0.14249899983406067,0.25315698981285095
1788107462433196300,1.4261962890625,-0.48916199803352356,0.058472998440265656,0.40447598695755005
1788107462443284000,1.436283935546875,-0.2815279960632324,0.13369500637054443,0.34088999032974243
1788107462453368600,1.44636865234375,0.0006779999821446836,0.26239699125289917,0.23528100550174713
1788107462463462000,1.4564619140625,-0.10155200213193893,0.16857899725437164,-0.025800999253988266
1788107462473544200,1.466544189453125,-0.18916800618171692,0.2445259988307953,0.09968499839305878
1788107462483634400,1.476634521484375,0.13138000667095184,0.24303899705410004,0.16527800261974335
1788107462493717500,1.486717529296875,-0.14999499917030334,0.14040100574493408,0.21605800092220306
1788107462503802000,1.496802001953125,-0.37758201360702515,0.17186599969863892,0.28360700607299805
1788107462513888300,1.50688818359375,-0.8636530041694641,0.2437569946050644,0.30131301283836365
1788107462523977500,1.5169775390625,-0.810945987701416,0.2516089975833893,0.15076500177383423
1788107462534057700,1.5270576171875,-0.640841007232666,0.32915499806404114,-0.03180700168013573
1788107462544146400,1.537146484375,-0.4674440026283264,0.32532399892807007,-0.16220399737358093
1788107462554236200,1.547236083984375,-0.3167009949684143,0.41003501415252686,-0.19155099987983704
1788107462564330500,1.55733056640625,-0.4591430127620697,0.16102199256420135,-0.25828200578689575
1788107462574413800,1.567413818359375,-0.9279810190200806,0.21476300060749054,-0.17972500622272491
1788107462584502800,1.577502685546875,-1.1066529750823975,0.2799229919910431,-0.05051000043749809
1788107462594599000,1.587598876953125,-1.103801965713501,0.26353999972343445,-0.027324000373482704
1788107462604689200,1.597689208984375,-0.9188299775123596,0.2444079965353012,-0.08438199758529663
1788107462614777300,1.60777734375,-0.6566190123558044,0.19572000205516815,-0.05012499913573265
1788107462624868000,1.6178681640625,-0.4187540113925934,0.0714699998497963,0.052310001105070114
1788107462634956500,1.62795654296875,-0.46501898765563965,-0.0735040009021759,0.09626899659633636
1788107462645043200,1.638043212890625,-0.5311819911003113,-0.2725070118904114,-0.050978001207113266
1788107462655126500,1.64812646484375,-0.9804040193557739,0.2558180093765259,-0.31779199838638306
1788107462665218600,1.658218505859375,-1.1464500427246094,-0.06280799955129623,-0.09821300208568573
1788107462675306200,1.66830615234375,-1.3962819576263428,0.33939599990844727,-0.3874959945678711
1788107462685395500,1.6783955078125,-1.064681053161621,0.29499199986457825,-0.6815080046653748
1788107462695479000,1.68847900390625,-0.4189780056476593,-0.3049449920654297,-0.5100589990615845
1788107462705564200,1.698564208984375,-0.6355180144309998,0.1609019935131073,-0.5476279854774475
1788107462715653400,1.7086533203125,-0.5347200036048889,0.2457520067691803,-0.6767399907112122
1788107462725743000,1.7187431640625,-0.6182569861412048,0.33017200231552124,-0.8233540058135986
1788107462735827200,1.7288271484375,-0.5139219760894775,-0.0900219976902008,-0.7008060216903687
1788107462745917700,1.738917724609375,-0.9834139943122864,0.08891600370407104,-0.500819981098175
1788107462756007200,1.749007080078125,-0.9109290242195129,0.372189998626709,-0.9248239994049072
1788107462766111500,1.759111572265625,-0.896668016910553,0.49829399585723877,-0.9479820132255554
1788107462776188400,1.7691884765625,-0.9939870238304138,0.3568210005760193,-1.002879023551941
1788107462786275600,1.779275634765625,-0.9068329930305481,0.46408501267433167,-1.0099869966506958
1788107462796360200,1.789360107421875,-0.6884520053863525,0.5619069933891296,-0.9705889821052551
1788107462806446800,1.79944677734375,-0.49960100650787354,0.36088600754737854,-0.9698950052261353
1788107462816533500,1.809533447265625,-0.24933700263500214,0.40804699063301086,-0.7791600227355957
1788107462826618000,1.8196181640625,-0.1854649931192398,0.47369399666786194,-0.7745460271835327
1788107462836705300,1.829705322265625,-0.00916799996048212,0.6233909726142883,-0.7193260192871094
1788107462846791200,1.839791259765625,0.1417980045080185,0.6063179969787598,-0.6180449724197388
1788107462856879600,1.849879638671875,0.3160859942436218,0.4155209958553314,-0.7333559989929199
1788107462866986200,1.859986328125,0.35950401425361633,0.43346500396728516,-0.6286389827728271
1788107462877074200,1.87007421875,0.4239889979362488,0.6156659722328186,-0.5900899767875671
1788107462887166000,1.880166015625,0.5027239918708801,0.7259920239448547,-0.6202729940414429
1788107462897247700,1.890247802734375,0.6550710201263428,0.625931978225708,-0.6380119919776917
1788107462907330300,1.900330322265625,0.6607720255851746,0.4504689872264862,-0.617251992225647
1788107462917427000,1.910427001953125,0.5557979941368103,0.44508200883865356,-0.5831909775733948
1788107462927523600,1.920523681640625,0.3391200006008148,0.597245991230011,-0.6963880062103271
1788107462937616600,1.93061669921875,0.05551299825310707,0.7726929783821106,-0.8379989862442017
1788107462947700500,1.940700439453125,-0.043859999626874924,0.7514740228652954,-0.9194129705429077
1788107462957793300,1.950793212890625,-0.11326500028371811,0.6048030257225037,-0.9347169995307922
1788107462967889700,1.9608896484375,-0.03386799991130829,0.5720750093460083,-0.9041129946708679
1788107462977983200,1.970983154296875,-0.031160999089479446,0.6417239904403687,-0.901872992515564
1788107462988069400,1.9810693359375,-0.009061000309884548,0.6739720106124878,-0.8938949704170227
1788107462998161700,1.99116162109375,-0.11054600030183792,0.6848139762878418,-0.8924999833106995
1788107463008243500,2.001243408203125,-0.3745250105857849,0.539268970489502,-0.776049017906189
1788107463018341400,2.01134130859375,-0.4172399938106537,-0.09749200195074081,-0.4420270025730133
1788107463028430000,2.02143017578125,-0.4140479862689972,0.6279469728469849,-0.7386350035667419
1788107463038521000,2.03152099609375,-0.0218260008841753,0.6807990074157715,-0.9179880023002625
1788107463048602600,2.0416025390625,0.08966600149869919,0.6114420294761658,-0.9850649833679199
1788107463058691300,2.05169140625,0.20228299498558044,0.3638170063495636,-1.132079005241394
1788107463068772000,2.061772216796875,0.2745409905910492,0.1769700050354004,-0.7932130098342896
1788107463078860000,2.071860107421875,0.036699000746011734,0.12446299940347672,-0.7529690265655518
1788107463088946400,2.081946533203125,-0.21485799551010132,0.31210899353027344,-0.6751360297203064
1788107463099030500,2.092030517578125,-0.26136499643325806,0.4675160050392151,-0.5946099758148193
1788107463109109200,2.102109130859375,-0.14438199996948242,0.4538629949092865,-0.48395898938179016
1788107463119200300,2.1122001953125,-0.12814100086688995,0.4716170132160187,-0.5434120297431946
1788107463129282000,2.122281982421875,-0.197610005736351,0.5025609731674194,-0.6566439867019653
1788107463139374300,2.132374267578125,-0.3145790100097656,0.6921359896659851,-0.7025899887084961
1788107463149459200,2.142459228515625,-0.2861480116844177,0.7133259773254395,-0.6031299829483032
1788107463159542000,2.1525419921875,-0.3288689851760864,0.5580559968948364,-0.5622460246086121
1788107463169623000,2.162623046875,-0.8202750086784363,0.12607499957084656,-0.32892099022865295
1788107463179711200,2.172711181640625,-0.8420689702033997,-0.1473820060491562,0.2062159925699234
1788107463189795300,2.18279541015625,-0.4669190049171448,0.0724869966506958,0.36994099617004395
1788107463199879000,2.19287890625,-1.1669570207595825,-0.02098199911415577,0.3659439980983734
1788107463209968000,2.202968017578125,-1.6396859884262085,0.07804799824953079,0.12380599975585938
1788107463220057000,2.21305712890625,-0.3687489926815033,-0.12311200052499771,-0.7554299831390381
1788107463230143200,2.223143310546875,-0.36971598863601685,-0.26492100954055786,-1.3350850343704224
1788107463250309400,2.243309326171875,0.29589301347732544,0.3902139961719513,-0.7965260148048401
1788107463260389400,2.253389404296875,0.5229499936103821,0.21387100219726562,-0.8015440106391907
1788107463270473700,2.2634736328125,-0.015584999695420265,-0.2004310041666031,-0.48951399326324463
1788107463280558300,2.273558349609375,-0.3956269919872284,-0.4248499870300293,-0.16167299449443817
1788107463290643700,2.283643798828125,-0.8425509929656982,-0.7628009915351868,0.3907420039176941
1788107463300735700,2.29373583984375,-0.29877999424934387,-1.2888000011444092,0.23532900214195251
1788107463310822400,2.303822509765625,0.28817400336265564,-1.044754981994629,-0.03536999970674515
1788107463320918300,2.313918212890625,0.8226900100708008,-0.3589859902858734,-0.08231800049543381
1788107463331010300,2.32401025390625,0.9033889770507812,-0.323168009519577,-0.44548699259757996
1788107463341100000,2.33410009765625,0.28753501176834106,-0.36419498920440674,-0.8434979915618896
1788107463351190300,2.344190185546875,-0.06507399678230286,0.017663000151515007,-0.8720260262489319
1788107463361284000,2.3542841796875,-0.10826300084590912,1.1289960145950317,-1.7620680332183838
1788107463381471200,2.37447119140625,-1.1060930490493774,0.4292359948158264,-1.6703200340270996
1788107463391564300,2.384564208984375,-1.4158480167388916,-0.35311201214790344,-0.7344229817390442
1788107463401649400,2.3946494140625,-1.4299019575119019,-0.2651999890804291,-0.9770320057868958
1788107463411740400,2.404740478515625,-1.2893320322036743,0.049644000828266144,-0.06298799812793732
1788107463421834500,2.41483447265625,-1.2796720266342163,-0.1989080011844635,0.26771000027656555
1788107463431923500,2.42492333984375,-1.1455130577087402,-0.04010999947786331,-0.07776899635791779
1788107463442015500,2.435015380859375,-0.9502890110015869,0.2617250084877014,-0.2350350022315979
1788107463452098000,2.44509814453125,-0.7365239858627319,0.3161729872226715,-0.3784730136394501
1788107463462189300,2.455189208984375,-0.4418509900569916,0.2904750108718872,-0.4523099958896637
1788107463472279600,2.465279541015625,-0.11423099786043167,0.20830099284648895,-0.44380900263786316
1788107463482365200,2.475365234375,0.06925699859857559,0.05304599925875664,-0.3345170021057129
1788107463492457000,2.48545703125,0.13189899921417236,-0.03363800048828125,-0.14723899960517883
1788107463502551600,2.495551513671875,0.025877999141812325,0.038885001093149185,0.03604700043797493
1788107463512644600,2.50564453125,-0.15995199978351593,0.25854000449180603,0.12334699928760529
1788107463522727400,2.5157275390625,-0.13076899945735931,0.3681269884109497,0.06657800078392029
1788107463532813000,2.52581298828125,0.004149999935179949,0.381725013256073,-0.042045000940561295
1788107463542900500,2.535900390625,0.1335880011320114,0.39640000462532043,-0.21533699333667755
1788107463552995600,2.54599560546875,0.2533400058746338,0.5453590154647827,-0.3429949879646301
1788107463563088400,2.55608837890625,0.23723100125789642,0.7281479835510254,-0.3666499853134155
1788107463573175000,2.566175048828125,0.27849799394607544,0.7437319755554199,-0.44381099939346313
1788107463583264300,2.57626416015625,0.36778199672698975,0.5377529859542847,-0.35169899463653564
1788107463593346300,2.58634619140625,0.48141899704933167,0.49163201451301575,-0.0799029991030693
1788107463603427600,2.596427490234375,0.6632559895515442,0.6283079981803894,0.1733199954032898
1788107463613520400,2.606520263671875,0.713923990726471,0.5567669868469238,0.24369999766349792
1788107463623610600,2.616610595703125,0.7368450164794922,0.48820000886917114,0.1429159939289093
1788107463633698800,2.62669873046875,0.815123975276947,0.5080080032348633,-0.0064650001004338264
1788107463643784700,2.63678466796875,0.7810099720954895,0.6062690019607544,0.0015960000455379486
1788107463653870800,2.646870849609375,0.6653760075569153,0.603996992111206,0.13371199369430542
1788107463663950600,2.65695068359375,0.6333230137825012,0.5740439891815186,0.2517069876194
1788107463674038800,2.667038818359375,0.5797100067138672,0.4244300127029419,0.3250829875469208
1788107463684124400,2.67712451171875,0.48701998591423035,0.2637990117073059,0.3319289982318878
1788107463694216400,2.687216552734375,0.2375209927558899,0.22658200562000275,0.28048598766326904
1788107463704313300,2.697313232421875,0.005690999794751406,0.3600179851055145,0.11074700206518173
1788107463714403000,2.707403076171875,-0.2643119990825653,0.5481230020523071,-0.09203100204467773
1788107463724493300,2.717493408203125,-0.45166900753974915,0.5877119898796082,-0.13371999561786652
1788107463734572300,2.727572265625,-0.3714349865913391,0.5654870271682739,0.07525400072336197
1788107463744661500,2.73766162109375,-0.34115201234817505,0.22782300412654877,-0.23362000286579132
1788107463754740200,2.747740234375,-0.4221549928188324,0.16877999901771545,0.20027700066566467
1788107463764818700,2.757818603515625,-0.1968650072813034,0.38944101333618164,0.1806659996509552
1788107463784994600,2.77799462890625,-0.31029900908470154,0.25406399369239807,0.3062460124492645
1788107463795075000,2.788074951171875,-0.5401520133018494,0.14337100088596344,0.2059759944677353
1788107463805160200,2.79816015625,-0.7048850059509277,0.577675998210907,0.5951679944992065
1788107463815246600,2.80824658203125,-0.22802899777889252,0.08507200330495834,-0.4557799994945526
1788107463825334500,2.81833447265625,-1.0912189483642578,0.2159859985113144,0.059815000742673874
1788107463835411700,2.82841162109375,-0.9679710268974304,0.34174400568008423,-0.2585560083389282
1788107463845506000,2.838506103515625,-0.9268479943275452,0.2878420054912567,-0.19699400663375854
1788107463855590400,2.84859033203125,-0.6876350045204163,0.1959179937839508,-0.07962500303983688
1788107463865685500,2.858685546875,-0.6207299828529358,-0.012884999625384808,0.13478000462055206
1788107463875770000,2.86877001953125,-0.47275200486183167,-0.19740599393844604,0.08445899933576584
1788107463885863400,2.878863525390625,-0.2363310009241104,-0.20269599556922913,0.11564899981021881
1788107463895949600,2.888949462890625,-0.018292000517249107,-0.06238599866628647,0.2059819996356964
1788107463906041300,2.899041259765625,0.056804001331329346,0.020764000713825226,0.26228201389312744
1788107463916126500,2.90912646484375,-0.0923679992556572,-0.049295999109745026,0.18597599864006042
1788107463926215000,2.91921484375,-0.31657901406288147,-0.059053998440504074,0.026895999908447266
1788107463936299500,2.929299560546875,-0.37938201427459717,-0.012147000059485435,-0.019099999219179153
1788107463946388200,2.93938818359375,-0.5526599884033203,-0.014340999536216259,0.041402000933885574
1788107463956466400,2.949466552734375,-0.7654610276222229,-0.007884999737143517,-0.09428200125694275
1788107463966555400,2.959555419921875,-0.22267800569534302,0.31606701016426086,-0.24438099563121796
1788107463976636000,2.969635986328125,0.005708000157028437,0.34348800778388977,-0.012125999666750431
1788107463986715400,2.97971533203125,0.01853499934077263,0.3332749903202057,0.06996499747037888
1788107463996800500,2.989800537109375,0.10191699862480164,0.38605400919914246,-0.04676799848675728
1788107464016985600,3.009985595703125,0.05664300173521042,0.456743985414505,-0.07532799988985062
1788107464027075000,3.020074951171875,-0.05452499911189079,0.46407100558280945,0.0017239999724552035
1788107464037157400,3.030157470703125,-0.1776130050420761,0.4422140121459961,0.05425500124692917
1788107464047250700,3.040250732421875,-0.27314600348472595,0.5414109826087952,-0.01936499960720539
1788107464057335000,3.0503349609375,-0.30836600065231323,0.5413209795951843,-0.037953998893499374
1788107464067424000,3.060424072265625,-0.31604599952697754,0.4686200022697449,-0.08062800019979477
1788107464077519400,3.070519287109375,-0.2298469990491867,0.385001003742218,-0.09130900353193283
1788107464087599900,3.080599853515625,-0.07250600308179855,0.4319700002670288,-0.06971199810504913
1788107464097689600,3.090689697265625,0.044190000742673874,0.43741801381111145,-0.06235300004482269
1788107464107774700,3.100774658203125,0.19094200432300568,0.3079490065574646,-0.013667000457644463
1788107464117877800,3.110877685546875,0.3518199920654297,0.1948930025100708,-0.024059999734163284
1788107464127963100,3.120963134765625,0.44998300075531006,0.2875629961490631,-0.04240399971604347
1788107464138066000,3.13106591796875,0.3273470103740692,0.3125630021095276,-0.015331000089645386
1788107464148149000,3.14114892578125,0.1797890067100525,0.19028399884700775,-0.10399600118398666
1788107464158239200,3.1512392578125,0.053507000207901,0.015289999544620514,-0.20798799395561218
1788107464168317700,3.161317626953125,-0.08484199643135071,-0.04644399881362915,-0.2490369975566864
1788107464178414800,3.171414794921875,-0.41409000754356384,-0.03550500050187111,-0.14206799864768982
1788107464188494300,3.181494384765625,-0.8407009840011597,-0.022437000647187233,-0.06621299684047699
1788107464198590000,3.19158984375,-1.226781964302063,0.016560999676585197,0.07312899827957153
1788107464208671000,3.2016708984375,-1.527156949043274,-0.03236899897456169,0.14500300586223602
1788107464218755800,3.211755859375,-1.5593119859695435,-0.0026839999482035637,0.09740500152111053
1788107464228836000,3.221836181640625,-1.3796329498291016,0.13646300137043,-0.04474499821662903
1788107464238924800,3.2319248046875,-1.1037909984588623,0.23922300338745117,-0.07202000170946121
1788107464249008600,3.242008544921875,-1.016821026802063,0.2373189926147461,-0.06478799879550934
1788107464259098600,3.2520986328125,-0.9296680092811584,0.24477900564670563,0.02644900046288967
1788107464269182500,3.262182373046875,-0.819271981716156,0.23912499845027924,0.1709440052509308
1788107464279275800,3.27227587890625,-0.715507984161377,0.19738100469112396,0.4499709904193878
1788107464289360400,3.2823603515625,-0.7449179887771606,0.1592710018157959,0.6464040279388428
1788107464299453200,3.292453125,-0.6553890109062195,0.22285300493240356,0.694383978843689
1788107464309545000,3.302544921875,-0.4859839975833893,0.23768000304698944,0.6540669798851013
1788107464319637200,3.31263720703125,-0.3210330009460449,0.12630699574947357,0.5359320044517517
1788107464329715000,3.32271484375,-0.14384900033473969,0.07924199849367142,0.5158889889717102
1788107464339808500,3.33280859375,0.06559699773788452,0.1823119968175888,0.4775890111923218
1788107464349888000,3.342887939453125,0.22322599589824677,0.2935679852962494,0.4114319980144501
1788107464359973400,3.352973388671875,0.34662899374961853,0.2786720097064972,0.42767098546028137
1788107464370056200,3.36305615234375,0.4031279981136322,0.3229460120201111,0.4032509922981262
1788107464380148200,3.373148193359375,0.3993149995803833,0.3270989954471588,0.41218000650405884
1788107464390227700,3.383227783203125,0.3357959985733032,0.30446600914001465,0.34039199352264404
1788107464400318200,3.393318115234375,0.28215599060058594,0.3677549958229065,0.3158259987831116
1788107464410398000,3.40339794921875,0.2212280035018921,0.5052270293235779,0.22536300122737885
1788107464420493000,3.4134931640625,0.09982900321483612,0.6073219776153564,0.08013100177049637
1788107464430571000,3.423571044921875,0.03801000118255615,0.7149959802627563,-0.11339899897575378
1788107464440663300,3.433663330078125,0.07373400032520294,0.7965750098228455,-0.2308650016784668
1788107464450738700,3.44373876953125,0.07767199724912643,0.8918070197105408,-0.18001799285411835
1788107464460839200,3.453839111328125,-0.08784899860620499,1.0460189580917358,-0.14902999997138977
1788107464470929200,3.46392919921875,-0.06902500241994858,1.0169179439544678,-0.2666969895362854
1788107464481026800,3.47402685546875,0.037730999290943146,0.9713460206985474,-0.3275110125541687
1788107464491112700,3.48411279296875,0.023074999451637268,1.0027010440826416,-0.17744499444961548
1788107464501199600,3.49419970703125,0.07876700162887573,0.9947100281715393,0.052390001714229584
1788107464511280600,3.50428076171875,0.09293600171804428,0.9741659760475159,0.11966700106859207
1788107464521368800,3.514368896484375,0.0910940021276474,0.9145479798316956,0.18304400146007538
1788107464531457300,3.524457275390625,0.11510299891233444,0.7747380137443542,0.3548380136489868
1788107464541555500,3.534555419921875,0.09486500173807144,0.6458759903907776,0.44894400238990784
1788107464551645700,3.544645751953125,0.1096780002117157,0.4963909983634949,0.4901930093765259
1788107464561745700,3.55474560546875,0.19846799969673157,0.4479930102825165,0.4010140001773834
1788107464571831800,3.564831787109375,0.30959200859069824,0.5161219835281372,0.28565898537635803
1788107464581926100,3.574926025390625,0.30339398980140686,0.562798023223877,0.24491499364376068
1788107464592012800,3.5850126953125,0.27602699398994446,0.5830900073051453,0.20014899969100952
1788107464602104000,3.59510400390625,0.28151100873947144,0.48939400911331177,0.34838399291038513
1788107464612192500,3.605192626953125,0.2590009868144989,0.43038100004196167,0.4856429994106293
1788107464622290400,3.61529052734375,0.15880200266838074,0.36071300506591797,0.6942700147628784
1788107464632376600,3.62537646484375,0.04486199840903282,0.22922499477863312,0.8115410208702087
1788107464642469400,3.635469482421875,-0.07282400131225586,0.17311200499534607,0.8755249977111816
1788107464652552400,3.645552490234375,-0.1826770007610321,0.17906899750232697,0.9010260105133057
1788107464662639600,3.6556396484375,-0.2926900088787079,0.19208799302577972,0.8841099739074707
1788107464672727000,3.66572705078125,-0.4579490125179291,0.12259499728679657,0.8452020287513733
1788107464682824000,3.675823974609375,-0.626691997051239,0.016099000349640846,0.8410329818725586
1788107464692920300,3.68592041015625,-0.8025590181350708,-0.04570300132036209,0.8301529884338379
1788107464703018200,3.696018310546875,-0.9494850039482117,-0.04528899863362312,0.8096910119056702
1788107464713101000,3.70610107421875,-1.0145210027694702,-0.009902999736368656,0.7182319760322571
1788107464723196400,3.716196533203125,-1.0551979541778564,0.07530300319194794,0.671101987361908
1788107464733274400,3.7262744140625,-1.0362459421157837,0.17040500044822693,0.6222299933433533
1788107464743365400,3.736365478515625,-0.9058520197868347,0.19713999330997467,0.5638319849967957
1788107464753450200,3.7464501953125,-0.6605319976806641,0.18068799376487732,0.6068739891052246
1788107464763538000,3.756537841796875,-0.2621369957923889,0.2909330129623413,0.6014440059661865
1788107464773627100,3.766627197265625,0.023564999923110008,0.32374900579452515,0.6652269959449768
1788107464783706400,3.776706298828125,0.13260400295257568,0.29400700330734253,0.649944007396698
1788107464793793300,3.786793212890625,0.0862329974770546,0.2463349997997284,0.6370519995689392
1788107464803884500,3.796884521484375,0.0026910000015050173,0.29627200961112976,0.5519930124282837
1788107464813965300,3.80696533203125,-0.12667100131511688,0.365215003490448,0.5413839817047119
1788107464824058000,3.81705810546875,-0.2703309953212738,0.32462000846862793,0.566523015499115
1788107464834147000,3.82714697265625,-0.2995159924030304,0.33716100454330444,0.6146230101585388
1788107464844237000,3.837237060546875,-0.37987199425697327,0.47812700271606445,0.6374599933624268
1788107464854335700,3.847335693359375,-0.45986199378967285,0.5832819938659668,0.6150169968605042
1788107464864428500,3.857428466796875,-0.4751890003681183,0.6246709823608398,0.5698400139808655
1788107464874514700,3.8675146484375,-0.4900150001049042,0.551069974899292,0.5691699981689453
1788107464884614100,3.8776142578125,-0.4987019896507263,0.5266500115394592,0.6148130297660828
1788107464894700500,3.887700439453125,-0.500698983669281,0.5427029728889465,0.6750860214233398
1788107464904789800,3.897789794921875,-0.5357170104980469,0.48865801095962524,0.7488070130348206
1788107464914875100,3.907875244140625,-0.560912013053894,0.5026339888572693,0.7784950137138367
1788107464924967000,3.917966796875,-0.49884700775146484,0.39848899841308594,0.8087009787559509
1788107464935053800,3.9280537109375,-0.473349004983902,0.16236600279808044,0.7478460073471069
1788107464945144600,3.93814453125,-0.4406589865684509,0.08901800215244293,0.6951689720153809
1788107464955228400,3.948228515625,-0.4001309871673584,0.12854699790477753,0.6450150012969971
1788107464965332000,3.95833203125,-0.38580501079559326,0.16589699685573578,0.5190280079841614
1788107464975416300,3.968416259765625,-0.4201880097389221,0.009548000060021877,0.3606509864330292
1788107464985511000,3.978510986328125,-0.48772498965263367,-0.19718199968338013,0.36443600058555603
1788107464995598300,3.988598388671875,-0.7086549997329712,-0.3112809956073761,0.5100970268249512
1788107465005684000,3.99868408203125,-1.035248041152954,-0.2261970043182373,0.5319870114326477
1788107465015771600,4.008771728515625,-1.308316946029663,-0.08983000367879868,0.4076490104198456
1788107465025869300,4.018869384765625,-1.3249130249023438,-0.003705000039190054,0.22013799846172333
1788107465035956200,4.028956298828125,-1.3244240283966064,0.0443900004029274,0.024183999747037888
1788107465046047500,4.039047607421875,-1.2760319709777832,0.05933399870991707,-0.08627200126647949
1788107465056127500,4.04912744140625,-1.2567939758300781,0.02518399991095066,-0.07302699983119965
1788107465066220500,4.059220458984375,-1.1880470514297485,0.09964200109243393,0.058802999556064606
1788107465076306400,4.069306396484375,-1.1956889629364014,0.17165100574493408,0.12981300055980682
1788107465086394000,4.07939404296875,-1.2283769845962524,0.12754599750041962,0.08691199868917465
1788107465096481500,4.0894814453125,-1.1578340530395508,0.08549199998378754,0.0846090018749237
1788107465106573800,4.09957373046875,-1.09648597240448,0.06210000067949295,0.14685100317001343
1788107465116657700,4.10965771484375,-1.0851199626922607,0.045405998826026917,0.15634800493717194
1788107465126743600,4.11974365234375,-0.9968649744987488,0.028497999534010887,0.027753999456763268
1788107465136838700,4.129838623046875,-0.8026930093765259,0.11179099977016449,-0.07256399840116501
1788107465146929400,4.139929443359375,-0.611968994140625,0.2130810022354126,0.008853999897837639
1788107465157013800,4.150013671875,-0.4503589868545532,0.3223249912261963,0.18108299374580383
1788107465167105000,4.16010498046875,-0.21570900082588196,0.43305400013923645,0.30501601099967957
1788107465177193500,4.170193359375,0.08509700000286102,0.43234899640083313,0.34986698627471924
1788107465187282200,4.1802822265625,0.3114809989929199,0.47547098994255066,0.3176569938659668
1788107465197380400,4.19038037109375,0.5058349967002869,0.48137399554252625,0.25104498863220215
1788107465217555500,4.210555419921875,0.7679960131645203,0.6711670160293579,0.3110690116882324
1788107465227656000,4.220656005859375,0.8461999893188477,0.6005169749259949,0.5003989934921265
1788107465237747700,4.230747802734375,0.9595699906349182,0.4775969982147217,0.7217649817466736
1788107465247840000,4.240840087890625,1.145745038986206,0.3873650133609772,0.9163240194320679
1788107465257928000,4.250927978515625,1.3144210577011108,0.3810049891471863,1.0262349843978882
1788107465268014800,4.261014892578125,1.2435630559921265,0.21212400496006012,1.1684919595718384
1788107465278107600,4.271107666015625,1.02776300907135,-0.04461799934506416,1.2412389516830444
1788107465288187100,4.281187255859375,0.7274100184440613,-0.1377429962158203,1.1395059823989868
1788107465298273000,4.29127294921875,0.438291996717453,-0.13955600559711456,0.7976750135421753
1788107465308354800,4.301354736328125,0.19571900367736816,-0.024911999702453613,0.4452039897441864
1788107465318447600,4.311447509765625,0.00748499995097518,-0.04348599910736084,0.18191300332546234
1788107465328531200,4.32153125,-0.15586000680923462,-0.14650499820709229,0.020356999710202217
1788107465338616300,4.3316162109375,-0.19183599948883057,-0.1444929987192154,-0.009115000255405903
1788107465348701700,4.34170166015625,-0.20659999549388885,-0.017565999180078506,0.026897000148892403
1788107465358788000,4.3517880859375,-0.23630599677562714,0.05279399827122688,0.06971000134944916
1788107465368870100,4.3618701171875,-0.21283699572086334,0.05093200132250786,0.0703900009393692
1788107465378973000,4.371972900390625,-0.2563300132751465,-0.07515700161457062,-0.03481300175189972
1788107465389051600,4.3820517578125,-0.282941997051239,-0.14390799403190613,-0.1314769983291626
1788107465399136300,4.39213623046875,-0.24280999600887299,-0.09261000156402588,-0.1834300011396408
1788107465409223200,4.40222314453125,-0.11909999698400497,-0.01488799974322319,-0.14002099633216858
1788107465419316500,4.41231640625,-0.10530900210142136,0.0028230000752955675,-0.06645400077104568
1788107465429403600,4.422403564453125,-0.08755099773406982,0.08088599890470505,-0.05762699991464615
1788107465439488800,4.43248876953125,-0.14441600441932678,0.14244399964809418,-0.06966300308704376
1788107465449574100,4.44257421875,-0.23358699679374695,0.20704099535942078,-0.049403999000787735
1788107465459658000,4.452657958984375,-0.3738139867782593,0.3251430094242096,-0.11441899836063385
1788107465469736000,4.46273583984375,-0.43683499097824097,0.3872799873352051,-0.3068450093269348
1788107465479821300,4.4728212890625,0.10993900150060654,-0.002481000032275915,-0.3797529935836792
1788107465489906200,4.48290625,-0.6092550158500671,0.658266007900238,-0.5587080121040344
1788107465499994400,4.492994384765625,-0.05561999976634979,0.3719330132007599,-0.45733800530433655
1788107465510081300,4.503081298828125,0.0010400000028312206,0.15917499363422394,-0.26084598898887634
1788107465520162800,4.513162841796875,0.07122699916362762,-0.0357230007648468,-0.09825500100851059
1788107465530248200,4.523248291015625,0.08015699684619904,-0.14512600004673004,0.08732099831104279
1788107465540340200,4.53334033203125,-0.05126500129699707,-0.2623650133609772,0.14392900466918945
1788107465550429000,4.543428955078125,-0.11101199686527252,-0.36719000339508057,0.08386699855327606
1788107465560512300,4.55351220703125,-0.18130800127983093,-0.31282299757003784,-0.004468000028282404
1788107465570593000,4.563593017578125,-0.38871100544929504,-0.18804499506950378,-0.12951500713825226
1788107465580682200,4.57368212890625,-0.6016730070114136,-0.11495299637317657,-0.2628619968891144
1788107465590766300,4.583766357421875,-0.5961350202560425,-0.1286659985780716,-0.36937499046325684
1788107465600851200,4.593851318359375,-0.5013480186462402,-0.14786800742149353,-0.31284099817276
1788107465610945800,4.60394580078125,-0.4406929910182953,-0.11623600125312805,-0.16794100403785706
1788107465621036500,4.61403662109375,-0.3043299913406372,-0.08629599958658218,-0.012511000037193298
1788107465631127000,4.624126953125,-0.07079599797725677,-0.047905001789331436,0.02702300064265728
1788107465641211400,4.63421142578125,0.1266860067844391,-0.026443999260663986,0.04298299923539162
1788107465651294200,4.644294189453125,0.3079789876937866,-0.11085399985313416,0.04815100133419037
1788107465661388000,4.654387939453125,0.4350610077381134,-0.19821199774742126,0.04711800068616867
1788107465671479300,4.664479248046875,0.48024699091911316,-0.25151199102401733,0.10272099822759628
1788107465681570000,4.674570068359375,0.5063130259513855,-0.25447899103164673,0.1671459972858429
1788107465691650000,4.684650146484375,0.4985310137271881,-0.16848500072956085,0.26482298970222473
1788107465701740300,4.694740234375,0.31190600991249084,-0.12145800143480301,0.33762601017951965
1788107465711830500,4.70483056640625,0.000990999978967011,-0.049880001693964005,0.304610013961792
1788107465721916000,4.714916015625,-0.40800198912620544,0.06929700076580048,0.1541540026664734
1788107465732009000,4.725009033203125,-0.6966559886932373,0.24337099492549896,-0.0190459992736578
1788107465742102800,4.735102783203125,-0.7337290048599243,0.43152400851249695,-0.12408799678087234
1788107465752191700,4.745191650390625,-0.6853340268135071,0.6232510209083557,-0.1174440011382103
1788107465762282800,4.75528271484375,-0.6187139749526978,0.741769015789032,-0.12485100328922272
1788107465772370400,4.765370361328125,-0.49684199690818787,0.7624199986457825,-0.11835899949073792
1788107465782457300,4.775457275390625,-0.2573409974575043,0.6821560263633728,-0.048207998275756836
1788107465792548000,4.785548095703125,-0.0943479984998703,0.6118000149726868,0.10428500175476074
1788107465802633200,4.79563330078125,0.14843499660491943,0.5302730202674866,0.187267005443573
1788107465812725800,4.805725830078125,0.524960994720459,0.3918209969997406,0.26829299330711365
1788107465822815700,4.815815673828125,0.8074259757995605,0.24337700009346008,0.35946598649024963
1788107465832902000,4.82590185546875,1.0730960369110107,0.03238999843597412,0.41116398572921753
1788107465853074200,4.84607421875,1.2753709554672241,-0.10042399913072586,0.35496699810028076
1788107465863167500,4.85616748046875,1.2051639556884766,-0.22529000043869019,0.2091439962387085
1788107465873258200,4.86625830078125,1.156365990638733,-0.25910401344299316,0.116116002202034
1788107465883341800,4.876341796875,1.0330679416656494,-0.28074100613594055,0.219868004322052
1788107465893429500,4.886429443359375,0.8655049800872803,-0.5047169923782349,0.3273240029811859
1788107465903523600,4.896523681640625,0.5578039884567261,-0.6107850074768066,0.39259400963783264
1788107465913611500,4.906611572265625,-0.014182000420987606,-0.6223070025444031,0.3765240013599396
1788107465923701500,4.916701416015625,-0.5266309976577759,-0.5864729881286621,0.26823899149894714
1788107465933791500,4.92679150390625,-1.0354419946670532,-1.3345099687576294,1.5602749586105347
1788107465943879700,4.936879638671875,0.03454599902033806,-0.18270300328731537,-0.6321840286254883
1788107465953968000,4.946968017578125,-1.641281008720398,-0.3385330140590668,0.2659040093421936
1788107465964060700,4.957060791015625,-0.5119019746780396,-0.2066749930381775,-0.5667229890823364
1788107465974154200,4.967154296875,-0.177606999874115,-0.2713949978351593,-0.6370459794998169
1788107465984244700,4.97724462890625,0.19008399546146393,-0.6039999723434448,-0.564221978187561
1788107465994325200,4.9873251953125,-0.52190101146698,-0.700160026550293,-0.22198200225830078
1788107466004420900,4.9974208984375,-0.7444639801979065,-0.7867770195007324,0.08887699991464615
1788107466014509600,5.007509521484375,-0.49035000801086426,-1.0007580518722534,0.04642599821090698
1788107466024589300,5.01758935546875,-0.1278730034828186,-1.0048860311508179,-0.19582800567150116
1788107466034672400,5.02767236328125,-0.02863300032913685,-0.9983659982681274,-0.12517499923706055
1788107466044759800,5.037759765625,0.08260200172662735,-0.9683840274810791,0.1556510031223297
1788107466054845000,5.047844970703125,-0.090208999812603,-1.1294169425964355,0.22833600640296936
1788107466064954000,5.0579541015625,-0.21545200049877167,-1.2450590133666992,0.43942299485206604
1788107466075037000,5.068036865234375,0.20825199782848358,-1.5231029987335205,0.7121469974517822
1788107466085127200,5.078127197265625,0.30566099286079407,-1.5531229972839355,0.47965899109840393
1788107466095213300,5.08821337890625,0.48704299330711365,-1.1378179788589478,-0.059172000735998154
1788107466105311000,5.09831103515625,0.6747909784317017,-0.8915290236473083,-0.15140299499034882
1788107466115405800,5.10840576171875,0.45914599299430847,-1.0329740047454834,0.042810000479221344
1788107466125490000,5.118489990234375,0.37711501121520996,-1.1947829723358154,0.06446699798107147
1788107466135575000,5.128574951171875,0.01742899976670742,-1.055433988571167,-0.14563700556755066
1788107466145662200,5.138662109375,-2.4464640617370605,-0.14913199841976166,-2.5789709091186523
1788107466155756000,5.148756103515625,-3.2524778842926025,0.3038899898529053,-5.1849188804626465
1788107466165847800,5.158847900390625,-0.8784180283546448,1.295320987701416,-1.860381007194519
1788107466175932200,5.16893212890625,0.5405489802360535,0.695264995098114,0.1494320034980774
1788107466186029300,5.179029296875,1.5614290237426758,0.4373619854450226,0.584650993347168
1788107466196116000,5.189115966796875,1.7530169486999512,-0.17918400466442108,0.6084399819374084
1788107466206201600,5.19920166015625,1.295920968055725,-0.20797200500965118,0.4004319906234741
1788107466216282600,5.20928271484375,1.1043299436569214,-0.03405600041151047,0.5595629811286926
1788107466226372900,5.219372802734375,1.5745830535888672,-0.03317200019955635,0.7071689963340759
1788107466236454400,5.229454345703125,1.2713220119476318,-0.4376339912414551,0.900111973285675
1788107466246547200,5.239547119140625,0.5849329829216003,-0.7015519738197327,0.8472999930381775
1788107466256627500,5.24962744140625,0.1987069994211197,-0.6638479828834534,0.6652609705924988
1788107466266722300,5.259722412109375,-0.12322700023651123,-0.8894330263137817,0.43149998784065247
1788107466276809500,5.2698095703125,-0.37071898579597473,-0.8092169761657715,-0.12019100040197372
1788107466286901200,5.2799013671875,-0.7077609896659851,-0.39203599095344543,-0.6020249724388123
1788107466296987400,5.2899873046875,-1.025164008140564,-0.19696800410747528,-0.869172990322113
1788107466307083000,5.3000830078125,-1.1372859477996826,-0.02782600000500679,-0.9540809988975525
1788107466317167000,5.3101669921875,-1.0348310470581055,-0.13475699722766876,-1.1507829427719116
1788107466327252700,5.320252685546875,-1.2840850353240967,-0.24011200666427612,-1.374305009841919
1788107466337350000,5.330349853515625,-1.4398720264434814,0.10914099961519241,-1.331684947013855
1788107466347434200,5.340434326171875,-1.479511022567749,0.4240959882736206,-0.752502977848053
1788107466357536000,5.350535888671875,-1.2409429550170898,0.5076789855957031,-0.3721509873867035
1788107466367621600,5.36062158203125,-0.8412420153617859,0.4664660096168518,-0.2469179928302765
1788107466377711000,5.370711181640625,-0.5803549885749817,0.5019639730453491,-0.4030889868736267
1788107466387795700,5.380795654296875,-0.9214739799499512,0.5531409978866577,-0.5881379842758179
1788107466397885400,5.390885498046875,-0.047800999134778976,0.5977060198783875,-0.5483989715576172
1788107466407973600,5.4009736328125,0.4608910083770752,0.38234901428222656,-0.31083399057388306
1788107466418078500,5.411078369140625,0.9155399799346924,0.5823330283164978,-0.02446500025689602
1788107466428162800,5.421162841796875,1.404682993888855,0.67637699842453,-0.024599000811576843
1788107466438247700,5.43124755859375,1.5216560363769531,0.4305709898471832,-0.00395399983972311
1788107466448334800,5.4413349609375,1.499385952949524,0.16531600058078766,0.345537006855011
1788107466458430200,5.45143017578125,1.3314310312271118,-0.13446100056171417,0.5115209817886353
1788107466468513300,5.46151318359375,1.2140690088272095,-0.22703200578689575,0.6448209881782532
1788107466478603000,5.47160302734375,0.7961059808731079,-0.3071590065956116,0.6074550151824951
1788107466488692200,5.481692138671875,0.18150900304317474,-0.2867099940776825,0.7924829721450806
1788107466498786600,5.49178662109375,-0.2818570137023926,-0.39956700801849365,0.275860995054245
1788107466508870400,5.501870361328125,-0.7007380127906799,-0.34417998790740967,-0.20278100669384003
1788107466518960000,5.511960205078125,-0.8226180076599121,-0.1623920053243637,-0.6448209881782532
1788107466529040000,5.522039794921875,-0.5462459921836853,-0.01724799908697605,-0.9783579707145691
1788107466539121000,5.532120849609375,-0.2028219997882843,0.015533000230789185,-0.9273759722709656
1788107466549203500,5.542203369140625,-0.0363290011882782,-0.010645000264048576,-0.6783760190010071
1788107466559288300,5.552288330078125,0.2263769954442978,-0.10748899728059769,-0.12400099635124207
1788107466569374700,5.562374755859375,-0.4004569947719574,0.10311699658632278,-0.3938319981098175
1788107466579465000,5.57246484375,-0.142876997590065,0.36665600538253784,-0.4219669997692108
1788107466589545000,5.582544921875,0.08545400202274323,0.3943150043487549,-0.42005598545074463
1788107466599626000,5.5926259765625,0.23795700073242188,0.20593999326229095,0.24524299800395966
1788107466609706800,5.602706787109375,0.3318839967250824,0.018817000091075897,0.6818310022354126
1788107466619798500,5.612798583984375,0.5019270181655884,0.18796999752521515,0.2603740096092224
1788107466629883100,5.622883056640625,0.7559630274772644,0.2989409863948822,0.06234399974346161
1788107466639974000,5.632973876953125,0.7045570015907288,0.1974949985742569,-0.20350299775600433
1788107466650052900,5.643052978515625,0.6559360027313232,0.048392001539468765,-0.07648500055074692
1788107466660143600,5.6531435546875,0.7597169876098633,0.03778500109910965,-0.16444499790668488
1788107466670228500,5.663228515625,0.442984014749527,-0.3552840054035187,0.05491499975323677
1788107466680316400,5.67331640625,0.10459999740123749,-0.29267600178718567,-0.06185099855065346
1788107466690401500,5.683401611328125,-0.11713799834251404,-0.05174500122666359,-0.5984219908714294
1788107466700488700,5.69348876953125,0.12168899923563004,0.8568230271339417,-1.8140950202941895
1788107466710569500,5.703569580078125,0.2162420004606247,0.7132970094680786,-1.7289570569992065
1788107466720668000,5.71366796875,0.08535300195217133,-0.06638699769973755,-0.92740797996521
1788107466730750000,5.72375,-0.3608820140361786,0.04261200129985809,-1.0624510049819946
1788107466740838100,5.733838134765625,-0.6743460297584534,0.14393900334835052,-1.2132960557937622
1788107466750923800,5.743923828125,-0.758758008480072,0.2029310017824173,-1.224439024925232
1788107466761017300,5.754017333984375,-0.48866599798202515,0.15697099268436432,-1.116866946220398
1788107466771103000,5.76410302734375,0.14869700372219086,0.07472699880599976,-1.134695053100586
1788107466781199400,5.774199462890625,0.5097439885139465,0.04420600086450577,-1.492488980293274
1788107466791282400,5.784282470703125,0.6385260224342346,-0.05921399965882301,-1.6395970582962036
1788107466801379300,5.79437939453125,0.5347719788551331,-0.3765850067138672,-1.5004420280456543
1788107466811467000,5.804467041015625,0.5405319929122925,-0.5892869830131531,-1.3226900100708008
1788107466821561900,5.814561767578125,0.6575899720191956,-0.6111379861831665,-0.9547899961471558
1788107466831654100,5.824654052734375,0.8985170125961304,-0.4683530032634735,-0.8886950016021729
1788107466841744400,5.834744384765625,1.2326120138168335,-0.8342610001564026,-0.3088169991970062
1788107466851834600,5.844834716796875,1.232550024986267,-0.8657979965209961,-0.3386000096797943
1788107466861929500,5.854929443359375,1.4459049701690674,-1.0342730283737183,-0.3942680060863495
1788107466872028400,5.8650283203125,1.797523021697998,-0.9980559945106506,-0.4871259927749634
1788107466882117400,5.875117431640625,1.786118984222412,-1.0698070526123047,-0.5531700253486633
1788107466892204800,5.885204833984375,1.7961740493774414,-0.9031869769096375,-0.7901809811592102
1788107466902304300,5.89530419921875,1.6497520208358765,-0.8480709791183472,-0.8780270218849182
1788107466912396000,5.90539599609375,1.4045079946517944,-0.8809490203857422,-0.45715200901031494
1788107466922492200,5.9154921875,1.4573169946670532,-1.061508059501648,0.014100999571383
1788107466932582000,5.925581787109375,1.3917499780654907,-1.0940829515457153,0.3384079933166504
1788107466942664700,5.935664794921875,1.5071630477905273,-0.685014009475708,0.20329800248146057
1788107466952744200,5.945744140625,0.5074399709701538,-1.5443819761276245,0.5404490232467651
1788107466962838500,5.955838623046875,1.1638020277023315,-1.602874994277954,0.9984149932861328
1788107466972924200,5.965924072265625,1.108577013015747,-1.248149037361145,0.533607006072998
1788107466983020300,5.976020263671875,0.9605979919433594,-1.6303069591522217,0.24408499896526337
1788107466993111800,5.98611181640625,1.2144429683685303,-1.8726979494094849,0.013841000385582447
1788107467003208700,5.996208740234375,1.1774389743804932,-1.7120239734649658,-0.4625369906425476
1788107467013291300,6.006291259765625,0.736266016960144,-1.6793409585952759,-0.6331279873847961
1788107467023395000,6.01639501953125,0.039395999163389206,-1.7686150074005127,-0.5621219873428345
1788107467033487000,6.026487060546875,-0.6364570260047913,-1.8145060539245605,-0.47056299448013306
1788107467043583500,6.03658349609375,-1.1858030557632446,-1.7979769706726074,-0.3949950039386749
1788107467053671200,6.046671142578125,-1.4596489667892456,-1.6725670099258423,-0.30859699845314026
1788107467063757600,6.056757568359375,-1.7008179426193237,-1.521921992301941,-0.36259201169013977
1788107467073841700,6.066841552734375,-2.017657995223999,-1.326848030090332,-0.5173640251159668
1788107467083925500,6.076925537109375,-2.215014934539795,-1.1739070415496826,-0.7251070141792297
1788107467094013200,6.08701318359375,-2.252474069595337,-1.0844459533691406,-0.9588109850883484
1788107467104111900,6.09711181640625,-2.0485849380493164,-0.9662349820137024,-1.0397510528564453
1788107467114206000,6.1072060546875,-1.7524449825286865,-0.7382090091705322,-1.033756971359253
1788107467124301300,6.11730126953125,-1.6470849514007568,-0.3773669898509979,-0.9516699910163879
1788107467134389500,6.127389404296875,-1.0985349416732788,-0.16728900372982025,-0.998337984085083
1788107467144483300,6.1374833984375,-0.966543972492218,-0.03555300086736679,-1.009093999862671
1788107467154574000,6.147573974609375,-1.016232967376709,-0.010603000409901142,-0.7925249934196472
1788107467164664800,6.157664794921875,-0.9115949869155884,-0.004517999943345785,-0.7217280268669128
1788107467174752500,6.16775244140625,-0.7416509985923767,0.12000100314617157,-0.8612210154533386
1788107467184843000,6.177843017578125,-0.5120189785957336,0.28894099593162537,-0.8287559747695923
1788107467194928600,6.1879287109375,0.3596310019493103,0.36576101183891296,-0.06075200065970421
1788107467205018000,6.19801806640625,0.25819799304008484,0.5536749958992004,0.09430000185966492
1788107467215104500,6.2081044921875,0.1045520007610321,1.2469069957733154,2.108560085296631
1788107467225196300,6.2181962890625,0.806397020816803,1.32224702835083,1.3914060592651367
1788107467235286300,6.228286376953125,1.0419429540634155,1.008754014968872,2.2083959579467773
1788107467245378300,6.23837841796875,1.1122610569000244,0.9718509912490845,2.124083995819092
1788107467255460600,6.248460693359375,1.2801209688186646,0.7504510283470154,1.8595659732818604
1788107467265552400,6.258552490234375,1.388221025466919,0.3633140027523041,1.336374044418335
1788107467275640000,6.26864013671875,1.603803038597107,-0.09556200355291367,0.64171302318573
1788107467285725200,6.27872509765625,1.6435569524765015,-0.47745800018310547,-0.08832599967718124
1788107467295800300,6.28880029296875,1.5620779991149902,-0.8022239804267883,-0.469184011220932
1788107467305892400,6.298892333984375,1.5350279808044434,-0.9154009819030762,-0.39246800541877747
1788107467315973400,6.308973388671875,0.9631810188293457,-0.7846660017967224,-0.025275999680161476
1788107467326070500,6.319070556640625,1.3066370487213135,-1.0712089538574219,0.3571940064430237
1788107467336156200,6.32915625,1.1847549676895142,-1.2639260292053223,0.24741700291633606
1788107467346235400,6.3392353515625,1.0476560592651367,-1.3738659620285034,0.06038700044155121
1788107467356326000,6.349325927734375,0.9433199763298035,-1.2856099605560303,-0.12238100171089172
1788107467366410800,6.35941064453125,0.5988669991493225,-1.228613018989563,-0.21000899374485016
1788107467376503000,6.3695029296875,0.25176000595092773,-1.3418569564819336,-0.0447239987552166
1788107467386588400,6.37958837890625,0.16373099386692047,-1.3175820112228394,0.17905500531196594
1788107467396664300,6.389664306640625,0.2163189947605133,-1.1669260263442993,0.1184149980545044
1788107467406759700,6.399759765625,0.41805198788642883,-1.100950002670288,0.020834000781178474
1788107467416849000,6.409848876953125,0.6139770150184631,-1.029528021812439,0.06557399779558182
1788107467426941400,6.41994140625,0.726768970489502,-0.8317530155181885,0.2534489929676056
1788107467437022000,6.43002197265625,0.7878490090370178,-0.8144099712371826,0.5057650208473206
1788107467447117300,6.440117431640625,0.8298630118370056,-1.0114920139312744,0.8744400143623352
1788107467457203700,6.45020361328125,0.984233021736145,-1.2845410108566284,1.2503420114517212
1788107467467288300,6.460288330078125,1.106387972831726,-1.3751189708709717,1.3029229640960693
1788107467477379600,6.470379638671875,1.3147200345993042,-1.4369570016860962,1.2386939525604248
1788107467487469600,6.480469482421875,1.3005379438400269,-1.5132559537887573,0.9859529733657837
1788107467497565400,6.4905654296875,1.1254260540008545,-1.5869899988174438,0.701528012752533
1788107467507653000,6.500653076171875,0.7787070274353027,-1.5979739427566528,0.5408030152320862
1788107467517758200,6.51075830078125,0.4246079921722412,-1.4358049631118774,0.40136799216270447
1788107467527852800,6.520852783203125,0.17523400485515594,-1.2257519960403442,0.3311460018157959
1788107467537943300,6.530943359375,0.112124003469944,-1.06312894821167,0.22384600341320038
1788107467548034600,6.54103466796875,0.010107000358402729,-0.7762460112571716,0.2341179996728897
1788107467558130200,6.551130126953125,0.0902480036020279,-0.7649409770965576,0.29523301124572754
1788107467568230100,6.561230224609375,0.41172900795936584,-0.7949889898300171,0.37414801120758057
1788107467578323200,6.5713232421875,0.5274699926376343,-0.6799240112304688,0.47158700227737427
1788107467588408300,6.581408203125,0.6590020060539246,-0.690097987651825,0.5913000106811523
1788107467598499800,6.591499755859375,0.7699670195579529,-0.8101000189781189,0.7792249917984009
1788107467608585000,6.6015849609375,0.8632259964942932,-0.9788309931755066,1.065256953239441
1788107467618669300,6.61166943359375,0.6797980070114136,-0.834850013256073,1.4199390411376953
1788107467628762400,6.621762451171875,0.6168839931488037,-0.4723060131072998,1.3117669820785522
1788107467638897200,6.631897216796875,0.7333760261535645,-0.43237000703811646,0.6879310011863708
1788107467648983000,6.641983154296875,0.558076024055481,-0.5390620231628418,-0.0639680027961731
1788107467659070500,6.652070556640625,0.42935800552368164,-0.512503981590271,-0.660863995552063
1788107467669151200,6.662151123046875,0.35142698884010315,-0.2892780005931854,-0.7713410258293152
1788107467679238700,6.67223876953125,0.1914840042591095,0.08838000148534775,-0.35931500792503357
1788107467689319700,6.682319580078125,0.010985000059008598,0.1660660058259964,0.2585119903087616
1788107467699403800,6.69240380859375,-0.11305499821901321,-0.6632769703865051,0.5632669925689697
1788107467709494500,6.70249462890625,0.33656299114227295,-0.35208800435066223,0.041568998247385025
1788107467719573200,6.7125732421875,0.7952470183372498,-0.07980699837207794,-0.4010779857635498
1788107467729664300,6.722664306640625,0.9720450043678284,-0.23418200016021729,-0.5384610295295715
1788107467739748000,6.732748046875,0.9199920296669006,-0.3533869981765747,-0.39827701449394226
1788107467749827000,6.7428271484375,0.7891719937324524,-0.3172839879989624,-0.17395499348640442
1788107467759911200,6.7529111328125,0.7079390287399292,-0.2525799870491028,0.011789999902248383
1788107467769997300,6.762997314453125,0.7847899794578552,-0.19939300417900085,0.186039000749588
1788107467780083200,6.773083251953125,0.6343119740486145,-0.3306939899921417,0.12430799752473831
1788107467790161200,6.7831611328125,1.032984972000122,-0.07017800211906433,0.28079700469970703
1788107467800251400,6.79325146484375,1.1316180229187012,-0.07442700117826462,0.5328119993209839
1788107467810342100,6.803342041015625,1.133882999420166,-0.20956100523471832,0.6270490288734436
1788107467820426200,6.81342626953125,1.218440055847168,-0.16403000056743622,0.7750710248947144
1788107467830519000,6.82351904296875,1.1133149862289429,-0.3155359923839569,0.8393679857254028
1788107467840605400,6.83360546875,1.008646011352539,-0.316769003868103,0.7321919798851013
1788107467850685400,6.843685546875,0.9016590118408203,-0.16282500326633453,0.5544430017471313
1788107467860774100,6.853774169921875,0.6856589913368225,0.005206000059843063,0.20928500592708588
1788107467870859000,6.86385888671875,0.263729989528656,0.2878110110759735,-0.11030299961566925
1788107467880948700,6.87394873046875,-0.0531889982521534,0.4916580021381378,-0.23645000159740448
1788107467891035600,6.88403564453125,-0.266169011592865,0.44545701146125793,-0.07408899813890457
1788107467901120800,6.894120849609375,-0.09470000118017197,0.14853699505329132,0.596015989780426
1788107467911204000,6.9042041015625,0.13341599702835083,-0.02088100090622902,1.0388150215148926
1788107467921280800,6.91428076171875,0.26983100175857544,-0.05268999934196472,1.1057180166244507
1788107467931377400,6.92437744140625,0.3657430112361908,-0.13367100059986115,1.0130239725112915
1788107467941475000,6.93447509765625,0.22602200508117676,-0.3910999894142151,0.786637008190155
1788107467951564800,6.944564697265625,0.022446999326348305,-0.5933390259742737,0.41628900170326233
1788107467961656800,6.95465673828125,0.015375999733805656,-0.7520020008087158,0.22371500730514526
1788107467971792100,6.964792236328125,0.013407000340521336,-0.8964570164680481,0.2511729896068573
1788107467981884700,6.974884765625,0.10146000236272812,-0.9902470111846924,0.04219700023531914
1788107467991970300,6.98497021484375,0.12627600133419037,-1.0763980150222778,-0.04475099965929985
1788107468002065000,6.99506494140625,-0.08076000213623047,-1.1209830045700073,-0.15873900055885315
1788107468012158000,7.005157958984375,-0.3932720124721527,-0.9720270037651062,-0.38590601086616516
1788107468022249000,7.0152490234375,-0.5784890055656433,-0.968966007232666,-0.43226000666618347
1788107468032332000,7.02533203125,-0.8989570140838623,-1.0934269428253174,-0.5281379818916321
1788107468042423600,7.035423583984375,-0.9348660111427307,-1.1326220035552979,-0.6564120054244995
1788107468052509700,7.045509765625,-0.5965920090675354,-1.1559100151062012,-0.6372950077056885
1788107468062595600,7.055595703125,-0.22046099603176117,-1.2402629852294922,-0.3690809905529022
1788107468072690000,7.06568994140625,0.12474899739027023,-1.4047149419784546,0.0812470018863678
1788107468082781000,7.075781005859375,0.4609510004520416,-1.3179409503936768,0.44117799401283264
1788107468092873700,7.085873779296875,0.5191929936408997,-1.1496210098266602,0.6462119817733765
1788107468102967800,7.0959677734375,0.6507530212402344,-0.9946900010108948,0.7977929711341858
1788107468113059800,7.106059814453125,0.6682310104370117,-0.8951960206031799,0.830640971660614
1788107468123149300,7.1161494140625,0.5831180214881897,-0.7956389784812927,0.790507972240448
1788107468133246000,7.126245849609375,0.4777730107307434,-0.6917489767074585,0.7008370161056519
1788107468143335400,7.13633544921875,0.43530601263046265,-0.6383950114250183,0.6673399806022644
1788107468153425200,7.146425048828125,0.4678780138492584,-0.5849390029907227,0.676285982131958
1788107468163517700,7.156517578125,0.5007529854774475,-0.6272820234298706,0.7108550071716309
1788107468173601000,7.16660107421875,0.6600139737129211,-0.7931100130081177,0.8708400130271912
1788107468183690500,7.1766904296875,0.8303689956665039,-0.9460840225219727,1.047279953956604
1788107468193774800,7.18677490234375,0.8114830255508423,-0.952763020992279,1.0600249767303467
1788107468203867000,7.196866943359375,0.6985859870910645,-0.9785109758377075,1.0095570087432861
1788107468213956000,7.2069560546875,0.40928199887275696,-0.8181049823760986,0.7265269756317139
1788107468224044500,7.21704443359375,0.05060200020670891,-0.7198320031166077,0.32857099175453186
1788107468234139400,7.227139404296875,-0.14753299951553345,-0.6588910222053528,0.2914830148220062
1788107468244237000,7.237237060546875,-0.13074199855327606,-0.5201370120048523,0.11062999814748764
1788107468254328600,7.24732861328125,0.06822200119495392,-0.3903059959411621,0.043255001306533813
1788107468264413200,7.2574130859375,0.37570899724960327,-0.26418599486351013,0.1794389933347702
1788107468274505000,7.2675048828125,0.5075430274009705,-0.1842840015888214,0.5093460083007812
1788107468284588300,7.27758837890625,0.45630401372909546,-0.3364410102367401,0.9865750074386597
1788107468294667500,7.28766748046875,0.4213629961013794,-0.4727889895439148,1.3417539596557617
1788107468304753200,7.297753173828125,0.3794899880886078,-0.528997004032135,1.2996209859848022
1788107468314834200,7.307834228515625,0.34862399101257324,-0.5425260066986084,1.2085189819335938
1788107468324926000,7.317926025390625,0.3516770005226135,-0.5535699725151062,0.9011330008506775
1788107468335009500,7.328009521484375,0.45490801334381104,-0.6331570148468018,0.5879809856414795
1788107468345099300,7.338099365234375,0.5724179744720459,-0.642087996006012,0.29500100016593933
1788107468355182600,7.3481826171875,0.6173639893531799,-0.41954201459884644,-0.02828199975192547
1788107468365267700,7.358267822265625,0.6562899947166443,-0.3529599905014038,-0.05631599947810173
1788107468375353300,7.368353271484375,0.565684974193573,-0.594044029712677,0.15290400385856628
1788107468385446700,7.37844677734375,0.43880900740623474,-0.6374099850654602,0.310712993144989
1788107468395531300,7.38853125,0.4352389872074127,-0.5669090151786804,0.40609198808670044
1788107468405617700,7.39861767578125,0.347245991230011,-0.828948974609375,0.72946697473526
1788107468415704800,7.408704833984375,0.1446319967508316,-0.9226409792900085,0.8544149994850159
1788107468425794000,7.4187939453125,-0.05336400121450424,-0.5202890038490295,0.43668198585510254
1788107468435874000,7.4288740234375,-0.2854200005531311,-0.19103600084781647,-0.08940000087022781
1788107468445965000,7.438965087890625,-0.4995189905166626,-0.4083020091056824,-0.11135199666023254
1788107468456053200,7.44905322265625,-0.564300000667572,-0.5831590294837952,-0.03664400056004524
1788107468466137900,7.459137939453125,-0.25979700684547424,-0.5361909866333008,0.13885299861431122
1788107468476232700,7.469232666015625,0.054572999477386475,-0.675341010093689,0.621595025062561
1788107468486314800,7.479314697265625,0.25380200147628784,-0.7804579734802246,0.9913610219955444
1788107468496402000,7.48940185546875,0.1762779951095581,-0.5722029805183411,0.8033729791641235
1788107468506502700,7.499502685546875,-0.1257539987564087,-0.16600599884986877,0.21795600652694702
1788107468516589800,7.50958984375,-0.4331499934196472,-0.08746100217103958,-0.2702319920063019
1788107468526674700,7.5196748046875,-0.6458950042724609,-0.29478201270103455,-0.4478450119495392
1788107468536761600,7.52976171875,-0.38790300488471985,-0.2779940068721771,-0.4514389932155609
1788107468546848300,7.53984814453125,0.048562001436948776,-0.2814039885997772,-0.2693119943141937
1788107468556940800,7.54994091796875,0.2867330014705658,-0.23061800003051758,-0.06002900004386902
1788107468567027700,7.56002783203125,0.6234539747238159,-0.14412899315357208,0.25446000695228577
1788107468577113600,7.570113525390625,0.7341650128364563,-0.16886599361896515,0.44579899311065674
1788107468587200300,7.5802001953125,0.6612889766693115,-0.20179599523544312,0.5155709981918335
1788107468597283600,7.59028369140625,0.787244975566864,-0.3494910001754761,0.6523740291595459
1788107468607372300,7.600372314453125,0.9615820050239563,-0.5039510130882263,0.7187730073928833
1788107468617465300,7.61046533203125,1.2290359735488892,-0.45770400762557983,0.5741119980812073
1788107468627554000,7.620553955078125,1.6265170574188232,-0.27905499935150146,0.3885670006275177
1788107468637645800,7.630645751953125,1.9751839637756348,-0.24424099922180176,0.3787890076637268
1788107468647728400,7.640728271484375,2.089406967163086,-0.15930500626564026,0.37918099761009216
1788107468657824800,7.65082470703125,2.022890090942383,-0.11736799776554108,0.470643013715744
1788107468667907800,7.660907958984375,1.7657580375671387,-0.20206600427627563,0.7209759950637817
1788107468678010000,7.671010009765625,1.5897550582885742,-0.2912740111351013,0.8832330107688904
1788107468688094200,7.68109423828125,1.4283970594406128,-0.49635401368141174,1.1193649768829346
1788107468698185000,7.69118505859375,1.380552053451538,-0.7340360283851624,1.3758809566497803
1788107468708272000,7.701272216796875,1.3546550273895264,-0.8034160137176514,1.305580973625183
1788107468718355200,7.711355224609375,1.3471620082855225,-0.8355939984321594,1.1476399898529053
1788107468728448800,7.72144873046875,1.1389659643173218,-0.9444739818572998,1.0197800397872925
1788107468738532600,7.73153271484375,1.124711036682129,-0.5056620240211487,0.33020898699760437
1788107468748619300,7.741619384765625,0.17945900559425354,-0.8478410243988037,0.5071660280227661
1788107468758715100,7.751715087890625,0.6537500023841858,-0.798225998878479,0.6426990032196045
1788107468768801300,7.76180126953125,0.3437960147857666,-0.6106740236282349,0.26795798540115356
1788107468778885400,7.771885498046875,0.14759400486946106,-1.047163963317871,0.4712409973144531
1788107468788970800,7.781970703125,0.41819098591804504,-1.3305360078811646,0.8414340019226074
1788107468799065600,7.792065673828125,0.7480509877204895,-1.4844809770584106,1.0940899848937988
1788107468809145900,7.802145751953125,0.9031140208244324,-1.638079047203064,1.2632839679718018
1788107468819237600,7.812237548828125,0.8205479979515076,-1.663727045059204,1.2819000482559204
1788107468829328000,7.822327880859375,0.6416990160942078,-1.7146259546279907,1.177577018737793
1788107468839415300,7.832415283203125,0.45923399925231934,-1.845473051071167,1.091204047203064
1788107468849502000,7.842501953125,0.3768270015716553,-1.9941200017929077,0.9911760091781616
1788107468859584500,7.85258447265625,0.3845230042934418,-2.029752016067505,0.984142005443573
1788107468869679400,7.862679443359375,0.16947099566459656,-1.749472975730896,0.6407089829444885
1788107468879766500,7.8727666015625,-0.032150998711586,-1.3895930051803589,0.1878719925880432
1788107468889844700,7.8828447265625,-0.39947301149368286,-0.9739620089530945,-0.446696013212204
1788107468899932200,7.89293212890625,-0.799252986907959,-0.6948170065879822,-0.9364539980888367
1788107468910019600,7.90301953125,-0.9781680107116699,-0.594880998134613,-1.0008879899978638
1788107468920102000,7.913101806640625,-0.9212759733200073,-0.6477149724960327,-0.658797025680542
1788107468930181600,7.923181640625,-0.7266319990158081,-0.9126330018043518,0.12449000030755997
1788107468940272600,7.933272705078125,-0.45369499921798706,-1.1466059684753418,0.9130340218544006
1788107468950354000,7.94335400390625,-0.19079799950122833,-1.1425939798355103,1.2189279794692993
1788107468960441600,7.953441650390625,0.031130999326705933,-1.0901609659194946,1.056535005569458
1788107468970530800,7.96353076171875,0.06891100108623505,-0.9433259963989258,0.3471130132675171
1788107468980613000,7.973613037109375,0.11052700132131577,-0.8364899754524231,-0.2720299959182739
1788107468990697200,7.983697265625,0.17798499763011932,-0.7850109934806824,-0.6163610219955444
1788107469000780300,7.9937802734375,-0.22556999325752258,-0.9125840067863464,-0.6582139730453491
1788107469010870800,8.003870849609376,0.535709023475647,-0.5656660199165344,-0.5137019753456116
1788107469020960500,8.01396044921875,0.7152220010757446,-0.04602999985218048,-0.7031909823417664
1788107469031046000,8.0240458984375,0.6800479888916016,-0.6907050013542175,0.0048790001310408115
1788107469041144300,8.034144287109376,0.8519589900970459,-0.5189449787139893,0.3371810019016266
1788107469061324300,8.05432421875,1.1609859466552734,-0.5716080069541931,1.2151910066604614
1788107469071414500,8.06441455078125,1.2965199947357178,-0.8185790181159973,1.3147820234298706
1788107469081511400,8.074511474609375,1.575711965560913,-0.95449298620224,1.3107609748840332
1788107469091602000,8.084601806640626,1.9556670188903809,-0.9650239944458008,1.1200170516967773
1788107469101696500,8.094696533203125,2.061044931411743,-0.7140730023384094,0.6118720173835754
1788107469111792600,8.104792724609375,1.7360639572143555,-0.4886769950389862,0.11617100238800049
1788107469121881600,8.114881591796875,1.5910730361938477,-0.4578549861907959,0.02689800038933754
1788107469131969800,8.1249697265625,1.2430340051651,-0.4213100075721741,0.002747999969869852
1788107469142054000,8.135053955078124,0.6886450052261353,-0.19496700167655945,0.0051449998281896114
1788107469152146400,8.145146484375,0.3356409966945648,-0.03290199860930443,0.13459600508213043
1788107469162238500,8.155238525390626,0.25164198875427246,0.08428800106048584,0.20994800329208374
1788107469172328400,8.165328369140624,0.45225200057029724,0.11605200171470642,0.4478340148925781
1788107469182420700,8.175420654296875,0.7957159876823425,-0.1329289972782135,0.706030011177063
1788107469192514800,8.185514892578125,0.9369779825210571,-0.06878499686717987,0.6987239718437195
1788107469202595800,8.195595947265625,1.02578604221344,0.3219130039215088,0.3046570122241974
1788107469212690000,8.20568994140625,0.9791319966316223,0.2312850058078766,0.2812820076942444
1788107469222776300,8.2157763671875,1.1216950416564941,-0.1891379952430725,0.5186629891395569
1788107469232870000,8.225869873046875,1.267549991607666,-0.15898600220680237,0.6163870096206665
1788107469242966800,8.235966796875,1.3825559616088867,-0.32892099022865295,1.056480050086975
1788107469253052400,8.246052490234375,1.5230770111083984,-0.5406540036201477,1.5372530221939087
1788107469263138800,8.256138916015624,1.2637239694595337,-0.5095850229263306,1.4617899656295776
1788107469273225000,8.266224853515626,1.0062839984893799,-0.6634860038757324,1.3399770259857178
1788107469283321300,8.2763212890625,0.7527369856834412,-1.0582059621810913,1.4202979803085327
1788107469293410600,8.28641064453125,0.3686549961566925,-1.411241054534912,1.3575689792633057
1788107469303498200,8.296498291015626,0.034147001802921295,-1.5356210470199585,1.1876800060272217
1788107469313593000,8.306593017578125,-0.2721729874610901,-1.7601289749145508,1.1039999723434448
1788107469323680300,8.31668017578125,-0.6870160102844238,-1.5815199613571167,0.7645969986915588
1788107469333767400,8.326767333984375,-1.2834429740905762,-1.1894619464874268,0.06723199784755707
1788107469343856600,8.336856689453125,-1.7417670488357544,-0.9515230059623718,-0.526964008808136
1788107469353935000,8.34693505859375,-1.6513049602508545,-0.715470016002655,-1.0319099426269531
1788107469364025300,8.357025390625,-0.7055330276489258,-0.6216089725494385,-1.1127729415893555
1788107469374111000,8.367111083984375,0.885146975517273,-0.6025130152702332,-0.8918399810791016
1788107469384202500,8.377202392578125,2.228116035461426,-0.3809410035610199,-0.13750900328159332
1788107469394296800,8.387296875,2.7880420684814453,-0.3068329989910126,0.9833920001983643
1788107469404381700,8.397381591796876,2.404572010040283,-0.36185699701309204,1.752092957496643
1788107469414485000,8.407485107421875,1.629794955253601,-0.23775899410247803,1.6748360395431519
1788107469424575500,8.417575439453126,0.8724539875984192,-0.2071080058813095,1.120959997177124
1788107469434655500,8.427655517578126,0.18767400085926056,0.06799899786710739,0.18263199925422668
1788107469444748800,8.437748779296875,-0.5878030061721802,0.5299270153045654,-0.8070510029792786
1788107469454839600,8.447839599609376,-1.3987109661102295,0.9139040112495422,-1.3410749435424805
1788107469464925400,8.457925537109375,-2.307950019836426,0.8852689862251282,-1.2953790426254272
1788107469475009500,8.468009521484374,-2.580307960510254,1.036152958869934,-1.0899070501327515
1788107469485091300,8.47809130859375,-2.2197000980377197,1.3525259494781494,-0.9134680032730103
1788107469495183400,8.488183349609375,-1.7362420558929443,1.3830699920654297,-0.7745400071144104
1788107469505274400,8.4982744140625,-1.3345119953155518,1.1756629943847656,-0.7615650296211243
1788107469515359700,8.50835986328125,-0.9146389961242676,1.1844290494918823,-1.0044950246810913
1788107469525443000,8.518443115234374,-0.5160130262374878,1.1977829933166504,-1.4838049411773682
1788107469535525600,8.528525634765625,-0.3370729982852936,1.1532939672470093,-2.078902006149292
1788107469545617400,8.538617431640626,-0.18531300127506256,0.9722849726676941,-2.3266758918762207
1788107469555708000,8.5487080078125,-0.04457699880003929,1.0373430252075195,-2.376702070236206
1788107469565786600,8.55878662109375,-0.06279999762773514,1.0009469985961914,-2.2603158950805664
1788107469575880000,8.5688798828125,-0.14372700452804565,0.7785199880599976,-1.7801300287246704
1788107469585983000,8.57898291015625,0.19618000090122223,0.47099798917770386,-0.6939150094985962
1788107469596075500,8.589075439453126,1.1738649606704712,0.2190060019493103,0.2823910117149353
1788107469606161200,8.5991611328125,2.3820300102233887,-0.06902500241994858,1.1070530414581299
1788107469616248000,8.609248046875,3.4679579734802246,-0.10942699760198593,1.5627470016479492
1788107469626332700,8.619332763671874,3.890062093734741,-0.3996500074863434,1.766605019569397
1788107469636425000,8.629425048828125,3.6459310054779053,-0.7506300210952759,1.8502720594406128
1788107469646516000,8.639515869140626,3.3466830253601074,-0.9851570129394531,1.7196199893951416
1788107469656603000,8.649602783203125,2.976012945175171,-1.0275019407272339,1.4455879926681519
1788107469666690800,8.65969091796875,2.2917098999023438,-1.0397080183029175,1.0540610551834106
1788107469676781300,8.66978125,1.2179319858551025,-1.1417889595031738,0.8564090132713318
1788107469686867000,8.679866943359375,0.20704500377178192,-1.4107840061187744,0.9754089713096619
1788107469696956000,8.689955810546875,-0.5632539987564087,-1.6609630584716797,1.2548710107803345
1788107469707042800,8.700042724609375,-1.121211051940918,-1.887779951095581,1.3133740425109863
1788107469717135400,8.71013525390625,-1.611374020576477,-2.1754889488220215,1.2405329942703247
1788107469727222800,8.720222900390626,-2.224797010421753,-2.4697840213775635,0.8965749740600586
1788107469737314000,8.73031396484375,-2.863600969314575,-2.469810962677002,0.2645370066165924
1788107469747413000,8.7404130859375,-3.3894519805908203,-2.2871360778808594,-0.5858610272407532
1788107469757506600,8.750506591796874,-3.5114529132843018,-2.13604998588562,-1.1825209856033325
1788107469767596300,8.76059619140625,-3.464284896850586,-2.412477970123291,-1.0476759672164917
1788107469777682200,8.77068212890625,-2.9169819355010986,-2.507107973098755,-0.5296819806098938
1788107469787776500,8.780776611328125,-2.018630027770996,-2.3820888996124268,0.01874300092458725
1788107469797860400,8.7908603515625,-1.625167965888977,-2.622589111328125,0.5374839901924133
1788107469807947800,8.80094775390625,-1.6622240543365479,-2.6517319679260254,0.340052992105484
1788107469818040800,8.811040771484375,-1.7916619777679443,-2.150460958480835,-0.7066419720649719
1788107469828133000,8.821133056640624,-1.8040939569473267,-1.7474969625473022,-1.6357829570770264
1788107469838218200,8.83121826171875,-1.742879033088684,-1.5145820379257202,-1.9103319644927979
1788107469848316400,8.84131640625,-1.63434898853302,-1.1444590091705322,-1.6622029542922974
1788107469858404900,8.85140478515625,-1.3507790565490723,-0.443325012922287,-1.0890940427780151
1788107469868499000,8.8614990234375,-0.9494370222091675,0.5572029948234558,-1.0199849605560303
1788107469878578200,8.871578125,-0.6661400198936462,1.143017053604126,-0.8956720232963562
1788107469888670200,8.881670166015626,-0.015730999410152435,1.5650650262832642,-0.4124870002269745
1788107469898744300,8.891744384765625,0.8353040218353271,2.3160979747772217,0.06982800364494324
1788107469908832800,8.901832763671875,1.5560439825057983,2.9854540824890137,0.12339600175619125
1788107469918917400,8.91191748046875,2.2222208976745605,3.3048288822174072,0.17549699544906616
1788107469928999700,8.921999755859375,3.2405850887298584,3.3402459621429443,0.5746260285377502
1788107469939072300,8.932072265625,4.127400875091553,3.4395101070404053,0.9232670068740845
1788107469949160700,8.94216064453125,4.8518757820129395,3.517677068710327,1.239698052406311
1788107469959249000,8.952248779296875,5.486097812652588,3.2733991146087646,1.4604920148849487
1788107469969337000,8.962337158203125,5.749055862426758,3.1209158897399902,1.3094439506530762
1788107469979422000,8.972421875,5.728673934936523,3.0083460807800293,1.0357190370559692
1788107469989512200,8.98251220703125,5.378057956695557,2.5391669273376465,1.116881012916565
1788107469999587800,8.992587890625,4.808055877685547,2.1501739025115967,1.1865949630737305
1788107470009678800,9.002678955078125,4.105413913726807,1.9531079530715942,1.1170660257339478
1788107470019754800,9.012754638671876,3.231806993484497,1.6335370540618896,1.1771939992904663
1788107470029844000,9.022843994140626,2.071392059326172,1.2774070501327515,1.1141810417175293
1788107470039924500,9.032924560546874,1.2231169939041138,1.0676109790802002,0.7922710180282593
1788107470050011600,9.04301171875,0.542792022228241,0.8964679837226868,0.4397209882736206
1788107470060089000,9.053089111328125,0.1976729929447174,0.479202002286911,0.4738290011882782
1788107470070182000,9.063181884765624,0.0663599967956543,0.22307899594306946,0.4670189917087555
1788107470080265200,9.07326513671875,-0.19346900284290314,-0.087567999958992,0.4517509937286377
1788107470090364000,9.083364013671876,-0.3196510076522827,-0.2622799873352051,0.3087159991264343
1788107470100443400,9.093443359375,-0.6411579847335815,-0.3376609981060028,-0.311026006937027
1788107470110559500,9.1035595703125,-0.9655420184135437,-0.3134649991989136,-0.940310001373291
1788107470120642600,9.113642578125,-1.1788389682769775,-0.22084400057792664,-1.5284379720687866
1788107470130741000,9.123740966796875,-1.2041330337524414,-0.09016499668359756,-2.169013023376465
1788107470140830700,9.133830810546876,-1.3134499788284302,0.031530000269412994,-2.9648189544677734
1788107470150931500,9.143931396484374,-1.669569969177246,0.021606000140309334,-3.397252082824707
1788107470161016800,9.154016845703126,-1.8543460369110107,-0.20266300439834595,-3.112874984741211
1788107470171114800,9.16411474609375,-1.3133440017700195,-0.22964799404144287,-2.4621779918670654
1788107470181200400,9.174200439453125,-0.031199999153614044,-0.34442099928855896,-1.352741003036499
1788107470191288800,9.184288818359375,1.4846470355987549,-0.7107740044593811,-0.27429699897766113
1788107470201377800,9.194377685546876,2.912893056869507,-0.9332129955291748,0.44457098841667175
1788107470211469300,9.20446923828125,4.073363780975342,-0.7869009971618652,0.9773250222206116
1788107470221553200,9.21455322265625,4.680045127868652,-0.6505870223045349,1.8578230142593384
1788107470231648500,9.2246484375,4.196753025054932,-0.4819200038909912,2.4493889808654785
1788107470241733600,9.234733642578124,2.741689920425415,-0.45236700773239136,2.5174291133880615
1788107470251830800,9.244830810546874,1.3483690023422241,-0.5382000207901001,2.3503611087799072
1788107470261917000,9.2549169921875,0.5263770222663879,-0.6152870059013367,1.9584259986877441
1788107470272012800,9.2650126953125,-0.10079199820756912,-0.7177609801292419,1.4649150371551514
1788107470282098400,9.275098388671875,-0.404323011636734,-0.8333699703216553,1.051306962966919
1788107470292194800,9.28519482421875,-0.6356229782104492,-1.0640710592269897,0.8748289942741394
1788107470302284500,9.295284423828125,-0.773855984210968,-1.266880989074707,1.0470869541168213
1788107470312379000,9.30537890625,-0.7570099830627441,-1.5295219421386719,1.3034449815750122
1788107470322470100,9.31547021484375,-0.7904819846153259,-1.6947200298309326,1.2191389799118042
1788107470332570600,9.325570556640624,-1.025475025177002,-1.9086170196533203,0.9721159934997559
1788107470342653000,9.33565283203125,-1.2956349849700928,-2.1734468936920166,0.7726389765739441
1788107470352737800,9.34573779296875,-1.657438039779663,-2.6500918865203857,0.6095479726791382
1788107470362821400,9.3558212890625,-1.938931941986084,-3.0582520961761475,0.4811910092830658
1788107470372911600,9.36591162109375,-2.1950631141662598,-3.436279058456421,0.26665300130844116
1788107470382998500,9.37599853515625,-2.5531840324401855,-3.74064302444458,0.08247300237417221
1788107470393090300,9.38609033203125,-2.866813898086548,-4.041202068328857,0.08676700294017792
1788107470403179300,9.39617919921875,-3.0007429122924805,-4.363409996032715,0.1377449929714203
1788107470413268000,9.40626806640625,-2.6905720233917236,-4.663883209228516,0.14385199546813965
1788107470423349000,9.416348876953125,-2.1586289405822754,-4.782588958740234,-0.06217600032687187
1788107470433438500,9.4264384765625,-1.7740240097045898,-4.9213762283325195,-0.2191469967365265
1788107470443525400,9.436525390625,-1.570662021636963,-4.961668968200684,-0.25442400574684143
1788107470453620700,9.446620849609374,-1.4278889894485474,-5.042986869812012,-0.08174899965524673
1788107470463711700,9.456711669921875,-1.433877944946289,-5.0795698165893555,0.04838100075721741
1788107470473799400,9.46679931640625,-1.5502610206604004,-5.15385103225708,0.2168550044298172
1788107470483882800,9.4768828125,-1.7442660331726074,-5.290380954742432,0.3422110080718994
1788107470493972500,9.486972412109376,-1.9561309814453125,-5.288504123687744,0.20558199286460876
1788107470504058400,9.497058349609375,-2.3007071018218994,-5.251534938812256,0.01133000012487173
1788107470514147600,9.507147705078125,-2.646121025085449,-5.172883033752441,-0.1201229989528656
1788107470524240100,9.517240234375,-2.8612639904022217,-5.136229038238525,-0.13777899742126465
1788107470534331400,9.527331298828125,-2.771461009979248,-5.055102825164795,-0.10449399799108505
1788107470544421400,9.53742138671875,-2.6489179134368896,-4.936346054077148,-0.20709000527858734
1788107470554513000,9.547512939453124,-2.4685161113739014,-4.6784257888793945,-0.5083069801330566
1788107470564596200,9.55759619140625,-2.4473700523376465,-4.3951029777526855,-0.8616529703140259
1788107470574686000,9.56768603515625,-2.4800798892974854,-3.783724069595337,-1.4134830236434937
1788107470584773400,9.5777734375,-2.4627110958099365,-2.6580259799957275,-2.1249289512634277
1788107470594869200,9.587869140625,-3.047542095184326,-1.1670730113983154,-2.984369993209839
1788107470604954600,9.59795458984375,-3.9016480445861816,0.23832599818706512,-3.5759360790252686
1788107470615049700,9.6080498046875,-4.03425407409668,1.2539600133895874,-3.25075101852417
1788107470625135400,9.61813525390625,-3.466110944747925,2.0835421085357666,-2.6111950874328613
1788107470635229400,9.6282294921875,-2.0475881099700928,3.1469879150390625,-2.126033067703247
1788107470645322000,9.638322021484376,0.05392900109291077,4.477919101715088,-1.8121919631958008
1788107470665499600,9.658499755859374,2.656148910522461,7.269857883453369,-0.8682129979133606
1788107470675591400,9.66859130859375,2.740407943725586,9.05599594116211,-1.2998969554901123
1788107470685677000,9.678677001953124,2.078099012374878,10.117229461669922,-1.3559490442276
1788107470695769300,9.688769287109375,2.1907389163970947,10.256572723388672,-0.5697849988937378
1788107470705851100,9.69885107421875,3.6305460929870605,10.24758243560791,0.31856098771095276
1788107470715944700,9.70894482421875,4.6484551429748535,9.879308700561523,0.6284379959106445
1788107470726026800,9.71902685546875,5.28439998626709,8.738983154296875,0.46992701292037964
1788107470736118800,9.729118896484374,6.6566948890686035,7.360298156738281,0.010319000110030174
1788107470746203600,9.73920361328125,8.260892868041992,6.258930206298828,-0.39317598938941956
1788107470756290300,9.749290283203125,9.564535140991211,5.252447128295898,-0.2624419927597046
1788107470766381600,9.759381591796876,10.276507377624512,4.4505510330200195,0.024960000067949295
1788107470776469200,9.76946923828125,9.833953857421875,3.906256914138794,0.023939000442624092
1788107470786550800,9.77955078125,8.09628963470459,3.242003917694092,-0.14801999926567078
1788107470796646700,9.789646728515624,5.596581935882568,2.5320301055908203,-0.23863999545574188
1788107470806727700,9.799727783203124,2.766510009765625,1.882925033569336,-0.5170530080795288
1788107470816828000,9.809827880859375,-0.07636299729347229,1.2983540296554565,-0.7223259806632996
1788107470826915600,9.81991552734375,-2.778532028198242,0.8726440072059631,-0.8267750144004822
1788107470837013800,9.830013671875,-4.5271100997924805,0.382407009601593,-0.6992340087890625
1788107470847094000,9.840093994140625,-5.021302223205566,-0.05312800034880638,-0.6352249979972839
1788107470857185300,9.850185302734374,-4.977389812469482,-0.4721499979496002,-0.8270050287246704
1788107470867257000,9.860257080078124,-4.488636016845703,-1.0872050523757935,-0.7944869995117188
1788107470877352200,9.870352294921876,-3.663472890853882,-1.6577539443969727,-0.5626630187034607
1788107470887446800,9.88044677734375,-2.8682448863983154,-2.0814220905303955,-0.4596720039844513
1788107470897540400,9.890540283203125,-2.305478096008301,-2.5841000080108643,-0.5002170205116272
1788107470907655400,9.900655517578125,-1.7497650384902954,-3.080780029296875,-0.5066570043563843
1788107470917732900,9.91073291015625,-1.625635027885437,-3.397037982940674,-0.6499080061912537
1788107470927830500,9.92083056640625,-1.7824000120162964,-3.4792709350585938,-1.1653690338134766
1788107470937921800,9.930921875,-2.03165602684021,-3.5630640983581543,-1.6152499914169312
1788107470948011800,9.94101171875,-2.288041114807129,-3.7826530933380127,-1.8219560384750366
1788107470958101500,9.9511015625,-2.5134270191192627,-3.2307639122009277,-2.120692014694214
1788107470968189400,9.961189453125,-2.6244049072265625,-2.5940449237823486,-2.703258991241455
1788107470978276900,9.97127685546875,-2.7504611015319824,-3.1692349910736084,-1.9971009492874146
1788107470988373200,9.981373291015625,-2.8361799716949463,-2.7897660732269287,-2.0336029529571533
1788107470998456300,9.991456298828124,-2.619947910308838,-2.3010001182556152,-1.8701950311660767
1788107471008541200,10.001541259765625,-2.326996088027954,-2.1207540035247803,-1.6637279987335205
1788107471018631200,10.011631103515626,-1.7906899452209473,-1.864074945449829,-1.5628219842910767
1788107471028718000,10.021718017578126,-1.302232027053833,-1.6146639585494995,-1.4230049848556519
1788107471038800400,10.03180029296875,-0.989611029624939,-1.3165459632873535,-1.3076900243759155
1788107471048891000,10.041890869140625,-0.7039539813995361,-1.0606720447540283,-1.1347819566726685
1788107471058977300,10.051977294921874,-0.5041769742965698,-0.8700850009918213,-0.8971589803695679
1788107471069062100,10.062062255859376,-0.20218400657176971,-0.6214150190353394,-0.8494840264320374
1788107471079146200,10.072146240234375,-0.06724700331687927,-0.3516719937324524,-0.9407510161399841
1788107471089236700,10.08223681640625,0.15236400067806244,-0.01589200086891651,-1.049793004989624
1788107471099322600,10.092322509765625,0.24459600448608398,0.33172300457954407,-1.240399956703186
1788107471109405000,10.102405029296875,0.020879000425338745,0.6419519782066345,-1.378641963005066
1788107471119499300,10.112499267578125,-0.11148200184106827,1.0261549949645996,-1.4845659732818604
1788107471129580300,10.122580322265625,-0.1552010029554367,1.3393839597702026,-1.5518790483474731
1788107471139668200,10.132668212890625,-0.15028999745845795,1.5542889833450317,-1.5167620182037354
1788107471149756200,10.142756103515625,-0.1514980047941208,1.7196589708328247,-1.4891109466552734
1788107471159841300,10.15284130859375,-0.17674300074577332,1.993919014930725,-1.2196370363235474
1788107471169927700,10.162927734375,0.04686100035905838,2.203131914138794,-0.951291024684906
1788107471180007200,10.173007080078126,0.19547200202941895,2.315778970718384,-0.880603015422821
1788107471190086400,10.18308642578125,0.3752250075340271,2.4304800033569336,-0.90276700258255
1788107471200171500,10.193171630859375,0.5060549974441528,2.497715950012207,-0.942093014717102
1788107471210251000,10.2032509765625,0.6840530037879944,2.582777976989746,-0.9156579971313477
1788107471220327200,10.2133271484375,1.0625879764556885,2.75919508934021,-0.8259890079498291
1788107471230419500,10.22341943359375,1.3296610116958618,2.7447869777679443,-0.7649329900741577
1788107471240508700,10.2335087890625,1.4218740463256836,2.6250240802764893,-0.6200879812240601
1788107471250587400,10.24358740234375,1.4425779581069946,2.6694560050964355,-0.6420450210571289
1788107471260676600,10.253676513671875,1.4891140460968018,2.4949839115142822,-0.5284420251846313
1788107471270766000,10.26376611328125,1.6164029836654663,2.2540159225463867,-0.5052160024642944
1788107471280856000,10.27385595703125,1.731307029724121,2.2776529788970947,-0.6779410243034363
1788107471290946000,10.283946044921874,1.6274570226669312,2.2137179374694824,-0.8067060112953186
1788107471301042000,10.2940419921875,1.3638559579849243,1.9468439817428589,-0.7295699715614319
1788107471311136000,10.304135986328125,1.179023027420044,1.611946940422058,-0.5998139977455139
1788107471321217300,10.31421728515625,1.0646170377731323,1.3961670398712158,-0.4772549867630005
1788107471331300600,10.324300537109375,0.675475001335144,1.2943459749221802,-0.5121700167655945
1788107471341397000,10.33439697265625,0.2017419934272766,1.271582007408142,-0.6434159874916077
1788107471351489500,10.344489501953126,-0.2899180054664612,1.1525269746780396,-0.9254379868507385
1788107471361575400,10.354575439453125,-0.8878399729728699,0.9603099822998047,-1.1162960529327393
1788107471371666400,10.36466650390625,-1.3136889934539795,0.7109580039978027,-1.0677130222320557
1788107471381757200,10.374757080078124,-1.4851839542388916,0.48304998874664307,-1.0256190299987793
1788107471391849000,10.384848876953125,-1.4318560361862183,0.4049699902534485,-1.2522929906845093
1788107471401934000,10.39493408203125,-1.2528460025787354,0.31007298827171326,-1.5271309614181519
1788107471412021500,10.405021484375,-1.0788129568099976,0.21984800696372986,-1.783216953277588
1788107471422112000,10.415112060546875,-1.0468339920043945,-0.004058999940752983,-1.7545579671859741
1788107471432201700,10.42520166015625,-1.0674760341644287,-0.19384899735450745,-1.5706160068511963
1788107471442288000,10.4352880859375,-0.8988810181617737,-0.15550999343395233,-1.3404749631881714
1788107471452373800,10.445373779296874,-0.7642030119895935,-0.18519599735736847,-1.343297004699707
1788107471462458600,10.455458740234375,-0.6859549880027771,-0.31415700912475586,-1.3255970478057861
1788107471472546600,10.465546630859375,-0.5738070011138916,-0.47487500309944153,-1.254794955253601
1788107471482637600,10.475637451171876,-0.25603899359703064,-0.5874329805374146,-1.0849189758300781
1788107471492723200,10.48572314453125,-0.135125994682312,-0.5754969716072083,-0.9266030192375183
1788107471502806800,10.495806884765624,-0.40434199571609497,-0.6021130084991455,-0.8012940287590027
1788107471512897000,10.50589697265625,-0.9151719808578491,-0.5631849765777588,-0.9010609984397888
1788107471522983200,10.515983154296874,-1.3118430376052856,-0.527912974357605,-0.9679970145225525
1788107471533068000,10.526068115234375,-1.6301829814910889,-0.5566790103912354,-0.8563439846038818
1788107471543158000,10.536157958984376,-1.7104179859161377,-0.5706350207328796,-0.7039830088615417
1788107471553249800,10.546249755859375,-1.7141679525375366,-0.5771650075912476,-0.4980370104312897
1788107471563335400,10.55633544921875,-1.6197179555892944,-0.583221971988678,-0.5512070059776306
1788107471573426000,10.566426025390625,-1.4909729957580566,-0.43555599451065063,-0.7837859988212585
1788107471583516700,10.5765166015625,-1.5419930219650269,-0.39729300141334534,-1.043194055557251
1788107471593604600,10.5866044921875,-1.5413559675216675,-0.40473100543022156,-1.1785529851913452
1788107471603684000,10.59668408203125,-1.4260549545288086,-0.30784401297569275,-1.2226619720458984
1788107471613776600,10.606776611328126,-1.176332950592041,-0.2845050096511841,-1.1554889678955078
1788107471623865000,10.616864990234374,-0.9434790015220642,-0.20829999446868896,-1.0711309909820557
1788107471633952500,10.626952392578126,-0.8862749934196472,-0.064580999314785,-0.9025840163230896
1788107471644043800,10.637043701171875,-0.82191401720047,0.04215500131249428,-0.6271160244941711
1788107471654139400,10.647139404296874,-0.7339329719543457,0.09264100342988968,-0.46045398712158203
1788107471664233500,10.6572333984375,-0.7130380272865295,0.09442800283432007,-0.36698099970817566
1788107471674318000,10.667318115234375,-0.6244879961013794,0.14479799568653107,-0.4052259922027588
1788107471684409600,10.67740966796875,-0.501462996006012,0.19687700271606445,-0.47513699531555176
1788107471694508300,10.68750830078125,-0.34297001361846924,0.11798100173473358,-0.42706501483917236
1788107471704599800,10.697599853515625,-0.2362470030784607,0.13882899284362793,-0.3622420132160187
1788107471714692000,10.707692138671876,-0.23068100214004517,0.1811479926109314,-0.3219450116157532
1788107471724767500,10.717767578125,-0.1652189940214157,0.28033098578453064,-0.3872869908809662
1788107471734857000,10.72785693359375,-0.18034300208091736,0.33515000343322754,-0.4421350061893463
1788107471744935200,10.73793505859375,-0.18431100249290466,0.3567509949207306,-0.5116400122642517
1788107471755027500,10.74802734375,-0.11754199862480164,0.4465219974517822,-0.5008789896965027
1788107471765119500,10.758119384765624,-0.0695519968867302,0.44249600172042847,-0.41734299063682556
1788107471775208000,10.7682080078125,0.014322999864816666,0.43591800332069397,-0.2327830046415329
1788107471785295000,10.778295166015624,0.07312700152397156,0.44941699504852295,-0.10632099956274033
1788107471795385600,10.788385498046875,0.06331299990415573,0.5120769739151001,-0.1482580006122589
1788107471805471700,10.7984716796875,0.07719500362873077,0.597046971321106,-0.23669199645519257
1788107471815563000,10.80856298828125,0.11378899961709976,0.7199519872665405,-0.31379300355911255
1788107471825696800,10.81869677734375,0.11120200157165527,0.7416200041770935,-0.25920501351356506
1788107471835782000,10.828781982421875,0.027195999398827553,0.7347549796104431,-0.07817299664020538
1788107471845871400,10.838871337890625,0.1413940042257309,0.7882519960403442,0.017055999487638474
1788107471855966500,10.848966552734375,0.14762499928474426,0.8438770174980164,0.0023799999617040157
1788107471866044400,10.85904443359375,0.1102909967303276,0.8040729761123657,-0.05839399993419647
1788107471876136400,10.869136474609375,0.11185800284147263,0.8977900147438049,-0.19575199484825134
1788107471886224400,10.879224365234375,0.08298300206661224,0.9654880166053772,-0.3412179946899414
1788107471896316200,10.889316162109376,-0.0006409999914467335,0.9119709730148315,-0.3139519989490509
1788107471906413000,10.8994130859375,-0.0295219998806715,0.9242579936981201,-0.19195500016212463
1788107471916506600,10.909506591796875,-0.05923699960112572,0.9353349804878235,-0.06136000156402588
1788107471926591500,10.919591552734374,-0.13816699385643005,0.9840610027313232,0.013039999641478062
1788107471936681000,10.929680908203125,-0.0877159982919693,0.9635969996452332,0.02932099997997284
1788107471946759700,10.939759765625,0.04064900055527687,0.8684059977531433,0.07873699814081192
1788107471956851000,10.949850830078125,0.26334699988365173,0.7480120062828064,0.2811279892921448
1788107471966937900,10.959937744140625,0.5080040097236633,0.658033013343811,0.5061290264129639
1788107471977031200,10.97003125,0.6377379894256592,0.6255710124969482,0.6288939714431763
1788107471987120600,10.98012060546875,0.5508120059967041,0.6468729972839355,0.5597350001335144
1788107471997208800,10.990208740234374,0.1907069981098175,0.5771329998970032,0.3270510137081146
1788107472007287300,11.000287353515626,-0.2647800147533417,0.4458700120449066,0.11505399644374847
1788107472017376000,11.0103759765625,-0.6410470008850098,0.450888991355896,-0.09706000238656998
1788107472037551000,11.030551025390626,-0.8852599859237671,0.540835976600647,-0.467633992433548
1788107472047648500,11.0406484375,-0.9160490036010742,0.3958050012588501,-0.39664798974990845
1788107472057740300,11.050740234375,-0.7817649841308594,0.3035210072994232,-0.21889199316501617
1788107472067836400,11.06083642578125,-0.5104439854621887,0.3438180088996887,-0.04695099964737892
1788107472077923300,11.07092333984375,-0.19504499435424805,0.2868970036506653,0.0617079995572567
1788107472088029400,11.081029541015624,-0.02801699936389923,0.17252999544143677,0.08647000044584274
1788107472098116000,11.0911162109375,0.09862799942493439,0.1268399953842163,0.02500399947166443
1788107472108217300,11.10121728515625,0.27452200651168823,0.14489300549030304,-0.012748000212013721
1788107472118300400,11.111300537109376,0.2546809911727905,0.12201199680566788,-0.10029000043869019
1788107472128392700,11.121392822265625,0.2877640128135681,0.09384799748659134,-0.12589800357818604
1788107472138482000,11.13148193359375,0.27456000447273254,0.06688600033521652,-0.032659001648426056
1788107472148568600,11.141568603515625,0.2597390115261078,0.11023599654436111,0.010904000140726566
1788107472158652700,11.151652587890625,0.19418899714946747,0.22065900266170502,-0.028558000922203064
1788107472168740000,11.161739990234375,0.08969400078058243,0.1541370004415512,-0.010599000379443169
1788107472178818800,11.17181884765625,0.1664379984140396,0.05538700148463249,0.04509599879384041
1788107472188907000,11.181906982421875,0.23766100406646729,0.1454470008611679,0.09728199988603592
1788107472198997500,11.19199755859375,0.15937300026416779,0.15705299377441406,0.183911994099617
1788107472209094400,11.202094482421876,-0.009006000123918056,0.1382260024547577,0.2909179925918579
1788107472219184400,11.212184326171876,-0.1372690051794052,0.1433739960193634,0.3365649878978729
1788107472229264000,11.222263916015624,-0.2964229881763458,0.15834900736808777,0.38012799620628357
1788107472239342600,11.232342529296876,-0.4471389949321747,0.19502800703048706,0.37568700313568115
1788107472249438700,11.242438720703126,-0.716949999332428,0.19522300362586975,0.33228299021720886
1788107472269618200,11.2626181640625,-0.9577429890632629,0.12172699719667435,0.22324900329113007
1788107472279697400,11.272697509765624,-1.0203739404678345,0.07048600167036057,0.292838990688324
1788107472289785600,11.28278564453125,-0.7726359963417053,0.1207360029220581,0.3069689869880676
1788107472299865000,11.292864990234374,-0.5469539761543274,0.22856900095939636,0.20928800106048584
1788107472309950500,11.302950439453125,-0.4372430145740509,0.28724798560142517,0.07893099635839462
1788107472320029700,11.31302978515625,-0.4627059996128082,0.3331649899482727,-0.07191000133752823
1788107472330125300,11.323125244140625,-0.494051992893219,0.3874779939651489,-0.1836639940738678
1788107472340211200,11.333211181640625,-0.5717899799346924,0.30280399322509766,-0.22230899333953857
1788107472350303000,11.343302978515625,-0.4420180022716522,0.24003499746322632,-0.17825199663639069
1788107472360385800,11.3533857421875,-0.37875398993492126,0.2753320038318634,-0.16379499435424805
1788107472370487000,11.363487060546875,-0.21838100254535675,0.29657599329948425,-0.023598000407218933
1788107472380574500,11.373574462890625,-0.034995999187231064,0.24724499881267548,-0.000910000002477318
1788107472390670300,11.38367041015625,0.09536799788475037,0.18157699704170227,0.08636800199747086
1788107472400751900,11.393751953125,0.3622010052204132,0.15206199884414673,0.13099700212478638
1788107472410850600,11.4038505859375,0.43861499428749084,0.0646670013666153,0.2565940022468567
1788107472420932900,11.413932861328124,0.6236310005187988,0.09752900153398514,0.30421000719070435
1788107472431027000,11.42402685546875,0.6767070293426514,0.23375199735164642,0.2243490070104599
1788107472441107500,11.434107421875,0.5102130174636841,0.2944740056991577,0.1232289969921112
1788107472451198200,11.4441982421875,0.3515489995479584,0.38041698932647705,-0.00648100022226572
1788107472461292300,11.454292236328126,0.21907000243663788,0.39092400670051575,-0.05347000062465668
1788107472471387000,11.464386962890625,0.0963200032711029,0.26931101083755493,-0.021825000643730164
1788107472481474600,11.474474609375,0.08591599762439728,0.3134300112724304,-0.06897199898958206
1788107472501653800,11.49465380859375,0.08637399971485138,0.39628198742866516,-0.13350099325180054
1788107472511743700,11.50474365234375,0.13710199296474457,0.30215999484062195,-0.07845800369977951
1788107472521828600,11.51482861328125,0.1864749938249588,0.2938869893550873,-0.01776299998164177
1788107472531920100,11.524920166015624,0.21222999691963196,0.36601701378822327,-0.08023300021886826
1788107472542004700,11.535004638671875,0.36984699964523315,0.3337410092353821,-0.09433899819850922
1788107472552103200,11.545103271484376,0.4660640060901642,0.20965899527072906,-0.07172200083732605
1788107472562183400,11.555183349609376,0.5114669799804688,0.1317099928855896,0.05432400107383728
1788107472572273700,11.565273681640624,0.5489709973335266,0.2000190019607544,0.03716700151562691
1788107472582346500,11.575346435546875,0.6657199859619141,0.17949600517749786,0.0442270003259182
1788107472592446200,11.5854462890625,0.5559920072555542,-0.004155000206083059,0.19216999411582947
1788107472602536000,11.595535888671876,0.448837012052536,-0.05990299955010414,0.3993520140647888
1788107472612618500,11.605618408203124,0.2326280027627945,0.010720999911427498,0.4254849851131439
1788107472622705000,11.615704833984376,-0.04605700075626373,0.17161500453948975,0.22944599390029907
1788107472632792000,11.6257919921875,-0.4842430055141449,0.1270029991865158,0.030209999531507492
1788107472642876700,11.635876708984375,-0.8852570056915283,0.03656399995088577,-0.009008999913930893
1788107472652971800,11.6459716796875,-1.2217040061950684,0.18360799551010132,-0.1306760013103485
1788107472663054600,11.6560546875,-1.320173978805542,0.2822270095348358,-0.3111189901828766
1788107472673150000,11.66614990234375,-1.2930099964141846,0.216729998588562,-0.3457089960575104
1788107472683237600,11.676237548828125,-1.1753159761428833,0.18949000537395477,-0.37581801414489746
1788107472693323500,11.686323486328124,-0.9218779802322388,0.1881439983844757,-0.4090850055217743
1788107472703408600,11.69640869140625,-0.5983200073242188,0.07093899697065353,-0.34589600563049316
1788107472713494300,11.706494384765625,-0.2518239915370941,-0.0058109997771680355,-0.27539199590682983
1788107472723591400,11.71659130859375,-0.10389900207519531,-0.06253699958324432,-0.3013330101966858
1788107472733680600,11.7266806640625,0.041395001113414764,-0.05051099881529808,-0.37007299065589905
1788107472743760100,11.736760009765625,0.11573799699544907,-0.08087199926376343,-0.4058080017566681
1788107472753860400,11.7468603515625,0.1195250004529953,-0.14665399491786957,-0.358801007270813
1788107472763947300,11.756947265625,0.08287700265645981,-0.10121700167655945,-0.35934901237487793
1788107472774053400,11.767053466796876,0.002948000095784664,-0.14765000343322754,-0.24868300557136536
1788107472784131800,11.7771318359375,0.034963998943567276,-0.29158198833465576,-0.03238900005817413
1788107472794235000,11.78723486328125,-0.038391001522541046,-0.3051469922065735,0.044929999858140945
1788107472804311800,11.797311767578124,-0.159401997923851,-0.18801699578762054,-0.1251640021800995
1788107472814409000,11.807408935546874,-0.324180006980896,-0.0877859964966774,-0.36935800313949585
1788107472824496400,11.817496337890624,-0.5669770240783691,-0.12318000197410583,-0.5505899786949158
1788107472834592800,11.8275927734375,-0.8075760006904602,-0.031151000410318375,-0.7024210095405579
1788107472844675800,11.83767578125,-0.8386989831924438,0.0659639984369278,-0.796517014503479
1788107472854763800,11.847763671875,-0.8756150007247925,0.13555699586868286,-0.7832369804382324
1788107472864845300,11.85784521484375,-1.1049879789352417,0.20642299950122833,-0.7955120205879211
1788107472874934800,11.867934814453125,-1.268125057220459,0.24839399755001068,-0.7968400120735168
1788107472885021200,11.878021240234375,-1.2465180158615112,0.29607999324798584,-0.826213002204895
1788107472895111400,11.888111328125,-1.3160380125045776,0.30191999673843384,-0.9895449876785278
1788107472905197800,11.89819775390625,-1.2130379676818848,0.34088799357414246,-1.2135529518127441
1788107472915286500,11.90828662109375,-0.9555109739303589,0.3281089961528778,-1.3393199443817139
1788107472925367800,11.918367919921875,-0.5879470109939575,0.19687700271606445,-1.2465050220489502
1788107472935457000,11.92845703125,-0.3376010060310364,0.1630830019712448,-0.9818739891052246
1788107472945535500,11.938535400390625,0.037620000541210175,0.06493700295686722,-0.6562209725379944
1788107472955630000,11.948630126953125,0.19490399956703186,0.08008400350809097,-0.4978159964084625
1788107472965716000,11.958716064453125,0.25134098529815674,0.10570300370454788,-0.4675469994544983
1788107472975802000,11.968802001953126,0.38324201107025146,0.1092899963259697,-0.526826024055481
1788107472985889000,11.978888916015626,0.5848320126533508,0.12112300097942352,-0.6242200136184692
1788107472995972400,11.988972412109375,0.7395219802856445,0.12385900318622589,-0.5482540130615234
1788107473006065700,11.999065673828126,0.8271939754486084,0.2118539959192276,-0.5924999713897705
1788107473016160000,12.009159912109375,0.8374210000038147,0.38634398579597473,-0.6919770240783691
1788107473026238700,12.01923876953125,0.7051900029182434,0.4997529983520508,-0.8509849905967712
1788107473036330500,12.02933056640625,0.5199270248413086,0.5299429893493652,-0.8039420247077942
1788107473046420000,12.039419921875,0.3635520040988922,0.3484260141849518,-0.4219909906387329
1788107473056520000,12.04952001953125,0.33610600233078003,0.238769993185997,-0.0123070003464818
1788107473066604500,12.0596044921875,0.4486140012741089,0.21783199906349182,0.1324400007724762
1788107473076694300,12.0696943359375,0.45350199937820435,0.37820300459861755,-0.012175999581813812
1788107473086778600,12.079778564453125,0.20083899796009064,0.4875450134277344,-0.3003239929676056
1788107473096874800,12.089874755859375,-0.0723859965801239,0.48414701223373413,-0.44246000051498413
1788107473106954800,12.099954833984375,-0.08291400223970413,0.36753299832344055,-0.2525619864463806
1788107473117046000,12.1100458984375,-0.061622001230716705,0.3757689893245697,-0.008673000149428844
1788107473147318000,12.140318115234376,-0.43426400423049927,0.3470570147037506,0.43086299300193787
1788107473157410300,12.150410400390625,-0.57846599817276,0.29679200053215027,0.34104999899864197
1788107473167507700,12.1605078125,-0.6831830143928528,0.23714999854564667,0.21007199585437775
1788107473177599200,12.17059912109375,-0.6798160076141357,-0.08976700156927109,0.28708401322364807
1788107473187691800,12.18069189453125,-0.6138110160827637,-0.3939709961414337,0.4305360019207001
1788107473197781200,12.19078125,-0.7028869986534119,-0.30780500173568726,0.20381000638008118
1788107473207874000,12.2008740234375,-0.9053329825401306,-0.1326970010995865,-0.31291401386260986
1788107473217962500,12.21096240234375,-1.2997610569000244,-0.19324499368667603,-0.7733820080757141
1788107473228051200,12.22105126953125,-1.6428539752960205,-0.39622700214385986,-1.0474259853363037
1788107473238143200,12.231143310546875,-1.684514045715332,-0.20976600050926208,-1.2714109420776367
1788107473248234800,12.24123486328125,-1.5965219736099243,-0.029758000746369362,-1.4652340412139893
1788107473258326500,12.251326416015624,-1.2250800132751465,-0.132532000541687,-1.251721978187561
1788107473268416000,12.261416015625,-0.7931079864501953,-0.16097800433635712,-1.0525269508361816
1788107473278501400,12.27150146484375,-0.4191659986972809,-0.15761999785900116,-0.9232329726219177
1788107473288594700,12.2815947265625,-0.043820999562740326,-0.031658001244068146,-0.8133000135421753
1788107473298680000,12.29168017578125,0.26136401295661926,-0.07889699935913086,-0.6496170163154602
1788107473308767200,12.301767333984374,0.35950198769569397,-0.18611100316047668,-0.428039014339447
1788107473318850300,12.311850341796875,0.6247439980506897,-0.09734000265598297,-0.26914799213409424
1788107473328941000,12.321941162109376,0.8361930251121521,0.061379000544548035,-0.23353099822998047
1788107473339028200,12.3320283203125,0.83433598279953,-0.01636200025677681,-0.20225700736045837
1788107473349114600,12.342114501953125,0.8454480171203613,0.0575140006840229,-0.3783330023288727
1788107473359200800,12.35220068359375,0.8475310206413269,0.3345800042152405,-0.7762809991836548
1788107473369293000,12.36229296875,0.5792869925498962,0.42929399013519287,-0.9807950258255005
1788107473379384000,12.372384033203126,0.1595429927110672,0.4885439872741699,-0.9294509887695312
1788107473389472000,12.382471923828126,-0.0642549991607666,0.5698549747467041,-0.7248449921607971
1788107473399549000,12.392548828125,0.02985999919474125,0.41171199083328247,-0.3050299882888794
1788107473409632000,12.402632080078124,0.24153299629688263,0.11617200076580048,0.1340939998626709
1788107473419710700,12.412710693359376,0.4120819866657257,0.06024299934506416,0.15549799799919128
1788107473429797000,12.422797119140625,0.5615699887275696,0.0713530033826828,-0.13392199575901031
1788107473439882200,12.43288232421875,0.45113399624824524,-0.22414599359035492,-0.28200000524520874
1788107473449959400,12.44295947265625,0.27232199907302856,-0.3537159860134125,-0.37817299365997314
1788107473460039400,12.453039306640624,0.10785999894142151,-0.3436259925365448,-0.4300859868526459
1788107473470125800,12.463125732421876,-0.03057599999010563,-0.5302879810333252,-0.31525200605392456
1788107473480205300,12.473205322265626,-0.30776700377464294,-0.6663320064544678,-0.17666900157928467
1788107473490276600,12.483276611328124,-0.5950310230255127,-0.6534370183944702,-0.13377699255943298
1788107473500365000,12.493364990234374,-0.7775830030441284,-0.7331960201263428,-0.10508699715137482
1788107473510462200,12.503462158203124,-1.0550940036773682,-0.8169670104980469,-0.10743500292301178
1788107473520548600,12.513548583984376,-1.2172189950942993,-0.9251829981803894,-0.10334400087594986
1788107473530639600,12.5236396484375,-1.1827000379562378,-0.9866499900817871,-0.17378099262714386
1788107473540719400,12.53371923828125,-1.1099170446395874,-0.9305179715156555,-0.3558180034160614
1788107473550803200,12.54380322265625,-1.0087130069732666,-0.82853102684021,-0.4100250005722046
1788107473560886800,12.55388671875,-0.908195972442627,-0.7424700260162354,-0.5867109894752502
1788107473570980600,12.563980712890626,-0.8645949959754944,-0.6614940166473389,-0.7306749820709229
1788107473581069600,12.574069580078126,-0.8105130195617676,-0.658536970615387,-0.7394170165061951
1788107473591164400,12.584164306640625,-0.6251069903373718,-0.7273290157318115,-0.6122819781303406
1788107473601252900,12.5942529296875,-0.47132399678230286,-0.6502860188484192,-0.5860520005226135
1788107473611345700,12.604345703125,-0.23786300420761108,-0.5348280072212219,-0.5123639702796936
1788107473621439700,12.614439697265626,-0.09815199673175812,-0.42107200622558594,-0.4588249921798706
1788107473631533600,12.624533447265625,-0.059852998703718185,-0.3052220046520233,-0.46051499247550964
1788107473641629200,12.634629150390625,0.05802600085735321,-0.27525898814201355,-0.42931801080703735
1788107473651721200,12.64472119140625,0.26750800013542175,-0.41177698969841003,-0.16799600422382355
1788107473661808600,12.65480859375,0.4034560024738312,-0.4352929890155792,-0.032850999385118484
1788107473671898600,12.664898681640626,0.5436170101165771,-0.2314009964466095,-0.1734279990196228
1788107473681991400,12.674991455078125,0.42441698908805847,-0.027529999613761902,-0.4461030066013336
1788107473692083200,12.685083251953126,0.07604900002479553,0.0749950036406517,-0.7693309783935547
1788107473702175500,12.695175537109375,-0.3230319917201996,0.1282549947500229,-0.8972780108451843
1788107473712261600,12.70526171875,-0.47664499282836914,0.18676899373531342,-0.8080549836158752
1788107473722355700,12.715355712890625,-0.4298020005226135,0.2764340043067932,-0.7086629867553711
1788107473732451000,12.725451171875,-0.2642279863357544,0.39285600185394287,-0.7279549837112427
1788107473742547700,12.735547607421875,-0.13980400562286377,0.48812198638916016,-0.8592879772186279
1788107473752634000,12.745634033203125,-0.12365300208330154,0.5144870281219482,-1.0051180124282837
1788107473762727700,12.755727783203126,-0.11924900114536285,0.39994698762893677,-0.942903995513916
1788107473772815000,12.765815185546876,-0.011885999701917171,0.22772200405597687,-0.7516999840736389
1788107473782911500,12.775911376953125,0.07159200310707092,0.276201993227005,-0.8521109819412231
