time,seconds_elapsed,z,y,x
1788107461059252000,0.052251953125,7.367560863494873,6.35325288772583,1.1811970472335815
1788107461069342500,0.062342529296875,7.358510971069336,6.362603187561035,1.1872450113296509
1788107461089546800,0.082546630859375,7.342154026031494,6.379680156707764,1.1968560218811035
1788107461099637800,0.0926376953125,7.334193229675293,6.388058185577393,1.200971007347107
1788107461109731000,0.10273095703125,7.325623035430908,6.396978855133057,1.2057830095291138
1788107461139985400,0.1329853515625,7.29246711730957,6.432376861572266,1.218366026878357
1788107461160160300,0.15316015625,7.260733127593994,6.46749210357666,1.2219929695129395
1788107461180310800,0.173310791015625,7.223944187164307,6.508431911468506,1.2226910591125488
1788107461190398000,0.18339794921875,7.20435905456543,6.530144214630127,1.2224750518798828
1788107461210568700,0.203568603515625,7.167273998260498,6.572638988494873,1.2126810550689697
1788107461220659000,0.213658935546875,7.15195894241333,6.591442108154297,1.2009819746017456
1788107461230736400,0.223736328125,7.139468193054199,6.607810020446777,1.185243010520935
1788107461240826000,0.233826171875,7.130229949951172,6.620878219604492,1.1678119897842407
1788107461250912300,0.243912353515625,7.123813152313232,6.630919933319092,1.1498390436172485
1788107461261002200,0.254002197265625,7.120254993438721,6.6376447677612305,1.1329950094223022
1788107461271090400,0.26409033203125,7.11932897567749,6.641039848327637,1.1188290119171143
1788107461281175800,0.27417578125,7.119976997375488,6.642308235168457,1.107113003730774
1788107461291274200,0.284274169921875,7.1208882331848145,6.64290714263916,1.0976250171661377
1788107461311438800,0.30443896484375,7.122931957244873,6.642710208892822,1.0854690074920654
1788107461321523700,0.314523681640625,7.12434196472168,6.641563892364502,1.083219051361084
1788107461331605500,0.32460546875,7.12535285949707,6.6407952308654785,1.0812859535217285
1788107461341691100,0.334691162109375,7.1255998611450195,6.64094877243042,1.0786960124969482
1788107461351774000,0.34477392578125,7.125125885009766,6.641948223114014,1.0756900310516357
1788107461361864200,0.3548642578125,7.124361991882324,6.643305778503418,1.0723520517349243
1788107461371947000,0.364947021484375,7.123538970947266,6.644688129425049,1.0692529678344727
1788107461382028800,0.37502880859375,7.123076915740967,6.6456298828125,1.0664650201797485
1788107461392123100,0.385123046875,7.123500823974609,6.645646095275879,1.0635299682617188
1788107461402217200,0.39521728515625,7.124446868896484,6.645287990570068,1.05942702293396
1788107461412308000,0.405307861328125,7.125135898590088,6.645308971405029,1.0546720027923584
1788107461422391600,0.4153916015625,7.124764919281006,6.646467208862305,1.049854040145874
1788107461432487000,0.42548681640625,7.123056888580322,6.64901876449585,1.0452769994735718
1788107461442580000,0.435580078125,7.121010780334473,6.65169095993042,1.042199969291687
1788107461452662000,0.445662109375,7.119121074676514,6.653879165649414,1.0411549806594849
1788107461462749700,0.455749755859375,7.117825031280518,6.655093193054199,1.0422710180282593
1788107461472832300,0.465832275390625,7.1175408363342285,6.655119895935059,1.0440260171890259
1788107461482922500,0.475922607421875,7.118703842163086,6.653529167175293,1.0462379455566406
1788107461493008100,0.486008056640625,7.121442794799805,6.650125026702881,1.0492279529571533
1788107461503095000,0.496094970703125,7.125621795654297,6.645086765289307,1.0527429580688477
1788107461513181000,0.506180908203125,7.1305742263793945,6.6393327713012695,1.0555369853973389
1788107461523273200,0.516273193359375,7.136443138122559,6.632813930511475,1.056867003440857
1788107461533362400,0.526362548828125,7.143351078033447,6.625137805938721,1.05833101272583
1788107461543456800,0.536456787109375,7.150263786315918,6.617311954498291,1.0606030225753784
1788107461553543200,0.546543212890625,7.154916763305664,6.611997127532959,1.0623489618301392
1788107461563634000,0.556634033203125,7.156289100646973,6.610331058502197,1.0634959936141968
1788107461573726000,0.566725830078125,7.154498100280762,6.612007141113281,1.0651689767837524
1788107461583810000,0.57681005859375,7.149785041809082,6.616532802581787,1.0686659812927246
1788107461593900000,0.586900146484375,7.1433539390563965,6.622710227966309,1.0734319686889648
1788107461603984400,0.596984375,7.135422229766846,6.630483150482178,1.078173041343689
1788107461614077200,0.6070771484375,7.1269659996032715,6.638925075531006,1.0821419954299927
1788107461624159700,0.61715966796875,7.11765718460083,6.648853778839111,1.0824429988861084
1788107461634250500,0.62725048828125,7.109381198883057,6.658111095428467,1.079949975013733
1788107461644335000,0.637335205078125,7.103013038635254,6.6657538414001465,1.0746619701385498
1788107461654430200,0.64743017578125,7.098202228546143,6.67197322845459,1.0678130388259888
1788107461664516000,0.65751611328125,7.094468116760254,6.676952838897705,1.0615249872207642
1788107461674610000,0.66760986328125,7.091909885406494,6.680153846740723,1.0584800243377686
1788107461684701000,0.677700927734375,7.0897297859191895,6.682799816131592,1.0563780069351196
1788107461694794200,0.687794189453125,7.0876312255859375,6.686042785644531,1.0499500036239624
1788107461704884000,0.697884033203125,7.0866169929504395,6.689739227294922,1.0330660343170166
1788107461714969900,0.707969970703125,7.089230060577393,6.6908769607543945,1.0074750185012817
1788107461725061600,0.7180615234375,7.096304893493652,6.68867301940918,0.9716460108757019
1788107461735148300,0.728148193359375,7.10599422454834,6.683895111083984,0.9329540133476257
1788107461745242400,0.738242431640625,7.11686897277832,6.675032138824463,0.9132999777793884
1788107461755326500,0.748326416015625,7.12974214553833,6.663991928100586,0.8933029770851135
1788107461765439700,0.758439697265625,7.1462860107421875,6.6461920738220215,0.8937339782714844
1788107461775523600,0.768523681640625,7.17018985748291,6.619325160980225,0.9016280174255371
1788107461785612300,0.7786123046875,7.202416896820068,6.582387924194336,0.915103018283844
1788107461795694800,0.78869482421875,7.241084098815918,6.53566312789917,0.9443640112876892
1788107461805786000,0.7987861328125,7.283790111541748,6.482120037078857,0.9841330051422119
1788107461815872000,0.8088720703125,7.327256202697754,6.426986217498779,1.0223129987716675
1788107461825957000,0.81895703125,7.368667125701904,6.374070167541504,1.0554410219192505
1788107461836044500,0.82904443359375,7.406874179840088,6.326513767242432,1.0739920139312744
1788107461846130400,0.83913037109375,7.4424967765808105,6.283876895904541,1.0780099630355835
1788107461856215300,0.84921533203125,7.475925922393799,6.245405197143555,1.070261001586914
1788107461866303700,0.8593037109375,7.506701946258545,6.210630893707275,1.0571240186691284
1788107461876394800,0.869394775390625,7.533569812774658,6.18072509765625,1.0411560535430908
1788107461886484500,0.879484375,7.555566787719727,6.1566572189331055,1.0241830348968506
1788107461896569300,0.8895693359375,7.572494029998779,6.137781143188477,1.0124189853668213
1788107461906649600,0.899649658203125,7.583246231079102,6.125394821166992,1.0069350004196167
1788107461916733400,0.9097333984375,7.587238788604736,6.119809150695801,1.0108109712600708
1788107461926814500,0.919814453125,7.586672782897949,6.118063926696777,1.0254909992218018
1788107461946987800,0.93998779296875,7.577264785766602,6.125164985656738,1.0523420572280884
1788107461957068000,0.950068115234375,7.572031021118164,6.129703998565674,1.0634980201721191
1788107461967154000,0.96015380859375,7.568577766418457,6.131406784057617,1.07819402217865
1788107461977238300,0.97023828125,7.5668110847473145,6.130833148956299,1.0937449932098389
1788107461987321600,0.980321533203125,7.56588077545166,6.129339218139648,1.1084630489349365
1788107461997414100,0.9904140625,7.564725875854492,6.127726078033447,1.1251230239868164
1788107462007498200,1.000498291015625,7.563070774078369,6.126232147216797,1.1442129611968994
1788107462017580800,1.010580810546875,7.560671806335449,6.125479221343994,1.1639349460601807
1788107462027665000,1.020664794921875,7.557292938232422,6.125968933105469,1.1831459999084473
1788107462047836700,1.040836669921875,7.551292896270752,6.125944137573242,1.220963954925537
1788107462057927000,1.050927001953125,7.550206184387207,6.123504161834717,1.2398070096969604
1788107462078098700,1.0710986328125,7.551415920257568,6.118537902832031,1.2568169832229614
1788107462088182500,1.0811826171875,7.551694869995117,6.1175217628479,1.2600979804992676
1788107462098274800,1.09127490234375,7.551469802856445,6.118262767791748,1.2578400373458862
1788107462108353500,1.101353515625,7.552167892456055,6.117984771728516,1.2549899816513062
1788107462118448000,1.1114482421875,7.554811000823975,6.115406036376953,1.2516629695892334
1788107462128546300,1.12154638671875,7.559316158294678,6.109527111053467,1.2531579732894897
1788107462138636500,1.131636474609375,7.563982963562012,6.10382604598999,1.2527660131454468
1788107462148716000,1.141716064453125,7.570120811462402,6.096851825714111,1.2496639490127563
1788107462158813000,1.15181298828125,7.575907230377197,6.09102201461792,1.2429909706115723
1788107462168898000,1.16189794921875,7.580416202545166,6.086586952209473,1.237218976020813
1788107462178991000,1.1719912109375,7.583949089050293,6.082897186279297,1.2337260246276855
1788107462189076500,1.182076416015625,7.584910869598389,6.081148147583008,1.2364259958267212
1788107462199169500,1.19216943359375,7.580689907073975,6.085488796234131,1.2409470081329346
1788107462209254000,1.20225390625,7.570827007293701,6.096806049346924,1.2455999851226807
1788107462219355000,1.21235498046875,7.553959846496582,6.117303848266602,1.2474969625473022
1788107462229446000,1.22244580078125,7.5291218757629395,6.147584915161133,1.2488269805908203
1788107462239545000,1.232545166015625,7.498137950897217,6.183938026428223,1.2557259798049927
1788107462249627400,1.24262744140625,7.464678764343262,6.2198100090026855,1.2777290344238281
1788107462259718100,1.25271826171875,7.429242134094238,6.255899906158447,1.3077030181884766
1788107462269804300,1.26280419921875,7.392716884613037,6.290870189666748,1.346371054649353
1788107462279897300,1.2728974609375,7.3562421798706055,6.323275089263916,1.3935199975967407
1788107462289988000,1.282988037109375,7.319660186767578,6.352688789367676,1.451166033744812
1788107462300078300,1.293078369140625,7.287746906280518,6.374137878417969,1.5162819623947144
1788107462310163000,1.303162841796875,7.258924961090088,6.389688968658447,1.5874049663543701
1788107462320253000,1.3132529296875,7.230771064758301,6.40352201461792,1.6585570573806763
1788107462330333400,1.32333349609375,7.204513072967529,6.419380187988281,1.7107239961624146
1788107462340420600,1.333420654296875,7.183811187744141,6.4341840744018555,1.7418880462646484
1788107462350505200,1.343505126953125,7.166748046875,6.44553279876709,1.7699730396270752
1788107462360586500,1.35358642578125,7.148731231689453,6.455366134643555,1.8066259622573853
1788107462370672000,1.363672119140625,7.127294063568115,6.469305992126465,1.8411240577697754
1788107462380758800,1.3737587890625,7.104558944702148,6.487617015838623,1.8644219636917114
1788107462390839600,1.383839599609375,7.083687782287598,6.506539821624756,1.8778400421142578
1788107462400922400,1.39392236328125,7.063587188720703,6.524396896362305,1.8915719985961914
1788107462411009800,1.404009765625,7.04656982421875,6.542059898376465,1.8940379619598389
1788107462421097700,1.41409765625,7.03079080581665,6.559956073760986,1.8907489776611328
1788107462431176000,1.424176025390625,7.015243053436279,6.578824996948242,1.8829339742660522
1788107462441264000,1.43426416015625,6.998219966888428,6.598575115203857,1.8771419525146484
1788107462451348000,1.444347900390625,6.977534770965576,6.619201183319092,1.8815410137176514
1788107462461441300,1.454441162109375,6.955838203430176,6.640745162963867,1.8859540224075317
1788107462471524000,1.464524169921875,6.933012962341309,6.662699222564697,1.892564058303833
1788107462481613800,1.47461376953125,6.908204078674316,6.687301158905029,1.8965129852294922
1788107462491698000,1.484697998046875,6.882696151733398,6.713280200958252,1.8974590301513672
1788107462501782300,1.4947822265625,6.856928825378418,6.740334987640381,1.894840955734253
1788107462511867100,1.5048671875,6.832339763641357,6.76489782333374,1.896136999130249
1788107462521957600,1.51495751953125,6.809549808502197,6.787230968475342,1.898306965827942
1788107462532042200,1.525042236328125,6.7872419357299805,6.808228969573975,1.9029920101165771
1788107462542125800,1.535125732421875,6.763521194458008,6.829502105712891,1.9111989736557007
1788107462552215300,1.54521533203125,6.737269878387451,6.851992130279541,1.9233839511871338
1788107462562309400,1.555309326171875,6.710432052612305,6.87428092956543,1.937620997428894
1788107462572399000,1.565399169921875,6.68531608581543,6.895120143890381,1.9503439664840698
1788107462582483000,1.57548291015625,6.663379192352295,6.9130778312683105,1.9618279933929443
1788107462592577800,1.585577880859375,6.644993782043457,6.927877902984619,1.9719409942626953
1788107462602668500,1.59566845703125,6.628448009490967,6.941277027130127,1.9804890155792236
1788107462612757800,1.6057578125,6.612184047698975,6.9543681144714355,1.9889060258865356
1788107462622847700,1.61584765625,6.594736099243164,6.9685211181640625,1.9972809553146362
1788107462632935700,1.625935791015625,6.576056957244873,6.984333038330078,2.0036439895629883
1788107462643023400,1.6360234375,6.555764198303223,7.00188684463501,2.008857011795044
1788107462653107000,1.64610693359375,6.537219047546387,7.019921779632568,2.0063540935516357
1788107462663199200,1.65619921875,6.524016857147217,7.0346760749816895,1.9976160526275635
1788107462673286000,1.666285888671875,6.514657974243164,7.047465801239014,1.9830529689788818
1788107462683375000,1.676375,6.507040023803711,7.057840824127197,1.9711170196533203
1788107462693458000,1.6864580078125,6.4989848136901855,7.066106796264648,1.9680789709091187
1788107462703545300,1.69654541015625,6.486639976501465,7.0777411460876465,1.9669950008392334
1788107462713632500,1.706632568359375,6.470324993133545,7.092958927154541,1.9659210443496704
1788107462723722200,1.71672216796875,6.451474189758301,7.110326766967773,1.9651299715042114
1788107462733807400,1.726807373046875,6.430570125579834,7.128788948059082,1.966770052909851
1788107462743897300,1.7368974609375,6.410252094268799,7.147482872009277,1.9652459621429443
1788107462753986300,1.746986328125,6.39038610458374,7.166082859039307,1.9621930122375488
1788107462764091000,1.7570908203125,6.371565818786621,7.182888031005859,1.961961030960083
1788107462774168000,1.76716796875,6.355316162109375,7.196341037750244,1.9653669595718384
1788107462784260400,1.77726025390625,6.341994762420654,7.206110000610352,1.9725830554962158
1788107462794340400,1.78734033203125,6.330782890319824,7.212210178375244,1.9862560033798218
1788107462804426200,1.79742626953125,6.322488784790039,7.214508056640625,2.0042409896850586
1788107462814516700,1.807516845703125,6.317138195037842,7.213724136352539,2.023829936981201
1788107462824603600,1.817603759765625,6.316006183624268,7.210279941558838,2.039591073989868
1788107462834687700,1.827687744140625,6.320003986358643,7.2029547691345215,2.0530529022216797
1788107462844775000,1.83777490234375,6.329284191131592,7.191726207733154,2.0637919902801514
1788107462854864000,1.84786376953125,6.343287944793701,7.177289009094238,2.071047067642212
1788107462864970200,1.85797021484375,6.360527992248535,7.161056041717529,2.0743589401245117
1788107462875058200,1.86805810546875,6.3797287940979,7.144077777862549,2.073931932449341
1788107462885149000,1.87814892578125,6.399156093597412,7.127718925476074,2.070369005203247
1788107462895235300,1.8882353515625,6.417555809020996,7.112454891204834,2.065898895263672
1788107462905314000,1.89831396484375,6.434401035308838,7.098626136779785,2.061069965362549
1788107462915405000,1.908405029296875,6.449380874633789,7.086737155914307,2.05515193939209
1788107462925507600,1.918507568359375,6.463478088378906,7.076010227203369,2.0478110313415527
1788107462935599600,1.928599609375,6.47694206237793,7.065937042236328,2.0400359630584717
1788107462945689600,1.938689697265625,6.489838123321533,7.055641174316406,2.034672975540161
1788107462955776000,1.94877587890625,6.502297878265381,7.0443830490112305,2.0339059829711914
1788107462965873200,1.958873046875,6.513245105743408,7.0334858894348145,2.036597967147827
1788107462975969500,1.968969482421875,6.522743225097656,7.023589134216309,2.040354013442993
1788107462986057000,1.979056884765625,6.531096935272217,7.014695167541504,2.044214963912964
1788107462996143600,1.9891435546875,6.539147853851318,7.006400108337402,2.0469279289245605
1788107463006233900,1.99923388671875,6.548285007476807,6.9972639083862305,2.0489630699157715
1788107463016319200,2.0093193359375,6.5597028732299805,6.985683917999268,2.051961898803711
1788107463026418000,2.01941796875,6.571294784545898,6.974606037139893,2.0525500774383545
1788107463036504300,2.02950439453125,6.581812858581543,6.964314937591553,2.053795099258423
1788107463046590500,2.039590576171875,6.589363098144531,6.956527233123779,2.055967092514038
1788107463056675000,2.049675048828125,6.5929179191589355,6.951911926269531,2.0601840019226074
1788107463066761200,2.05976123046875,6.592482089996338,6.950636863708496,2.0658750534057617
1788107463076841200,2.06984130859375,6.589306831359863,6.952328205108643,2.0703020095825195
1788107463086935000,2.07993505859375,6.58448600769043,6.955759048461914,2.0741119384765625
1788107463097015000,2.09001513671875,6.578585147857666,6.960564136505127,2.0767149925231934
1788107463107098600,2.1000986328125,6.571691036224365,6.9667158126831055,2.0779149532318115
1788107463117178600,2.1101787109375,6.563517093658447,6.974437236785889,2.0778510570526123
1788107463127264800,2.1202646484375,6.554248809814453,6.983543872833252,2.0765230655670166
1788107463137353000,2.13035302734375,6.5451340675354,6.992160797119141,2.0762720108032227
1788107463147441700,2.140441650390625,6.536447048187256,6.99903678894043,2.08046293258667
1788107463157521400,2.150521484375,6.528977870941162,7.003402233123779,2.089211940765381
1788107463167606000,2.16060595703125,6.524957180023193,7.004609107971191,2.0977139472961426
1788107463177690400,2.1706904296875,6.524383068084717,7.003273963928223,2.1039369106292725
1788107463187779800,2.18077978515625,6.52657413482666,7.000514984130859,2.106339931488037
1788107463197858800,2.19085888671875,6.537234783172607,6.99472713470459,2.0924410820007324
1788107463207952400,2.200952392578125,6.560558795928955,6.981067180633545,2.0648889541625977
1788107463218035000,2.211034912109375,6.588854789733887,6.956078052520752,2.059112071990967
1788107463228128300,2.221128173828125,6.617876052856445,6.9266581535339355,2.065201997756958
1788107463248294700,2.241294677734375,6.671611785888672,6.873366832733154,2.070378065109253
1788107463258368500,2.251368408203125,6.691781044006348,6.854634761810303,2.0673770904541016
1788107463268458800,2.261458740234375,6.710515975952148,6.840229034423828,2.054335117340088
1788107463278537200,2.271537109375,6.7323408126831055,6.8274970054626465,2.025062084197998
1788107463288623900,2.281623779296875,6.7577290534973145,6.816013813018799,1.9786319732666016
1788107463298716000,2.2917158203125,6.78337287902832,6.8077311515808105,1.9184889793395996
1788107463308802000,2.301802001953125,6.805233001708984,6.8044610023498535,1.8515100479125977
1788107463318897400,2.3118974609375,6.819906234741211,6.807100772857666,1.7866729497909546
1788107463328990000,2.321989990234375,6.825014114379883,6.816769123077393,1.7294189929962158
1788107463339080000,2.332079833984375,6.821602821350098,6.833372116088867,1.6765249967575073
1788107463349169400,2.34216943359375,6.812653064727783,6.853100776672363,1.631796956062317
1788107463359263500,2.352263427734375,6.8000807762146,6.873905181884766,1.5963259935379028
1788107463369357800,2.36235791015625,6.786263942718506,6.893633842468262,1.5698529481887817
1788107463379455700,2.372455810546875,6.774458885192871,6.911577224731445,1.5416820049285889
1788107463389544000,2.3825439453125,6.766351222991943,6.9265828132629395,1.5096240043640137
1788107463399629300,2.39262939453125,6.76175594329834,6.937893867492676,1.4779349565505981
1788107463409720800,2.402720947265625,6.761804103851318,6.943278789520264,1.4522130489349365
1788107463419814100,2.412814208984375,6.768037796020508,6.942240238189697,1.4279329776763916
1788107463429903000,2.422903076171875,6.77896785736084,6.936245918273926,1.4050359725952148
1788107463439995100,2.4329951171875,6.795201778411865,6.923720836639404,1.3882850408554077
1788107463450076700,2.44307666015625,6.816788196563721,6.904620170593262,1.3775240182876587
1788107463460169000,2.4531689453125,6.842038154602051,6.88091516494751,1.3709379434585571
1788107463470259200,2.46325927734375,6.8691229820251465,6.854481220245361,1.3679200410842896
1788107463480350200,2.47335009765625,6.896346092224121,6.827474117279053,1.3660249710083008
1788107463490436600,2.4834365234375,6.923721790313721,6.800039768218994,1.3643800020217896
1788107463500531000,2.493531005859375,6.952783107757568,6.770571231842041,1.363144040107727
1788107463510624000,2.5036240234375,6.984187126159668,6.7388410568237305,1.3598380088806152
1788107463520707000,2.51370703125,7.017282962799072,6.705417156219482,1.354660987854004
1788107463530792700,2.523792724609375,7.051183223724365,6.671203136444092,1.3475450277328491
1788107463540880100,2.533880126953125,7.084660053253174,6.63700008392334,1.3408089876174927
1788107463550975200,2.543975341796875,7.116916179656982,6.603391170501709,1.3359260559082031
1788107463561068000,2.554068115234375,7.1475419998168945,6.570886135101318,1.3327109813690186
1788107463571154200,2.564154296875,7.1770339012146,6.538675785064697,1.3326319456100464
1788107463581249300,2.574249267578125,7.204981803894043,6.507368087768555,1.3350679874420166
1788107463591326200,2.584326171875,7.230424880981445,6.478509902954102,1.3378649950027466
1788107463601417700,2.594417724609375,7.25209903717041,6.453782081604004,1.3400720357894897
1788107463611499800,2.604499755859375,7.27057409286499,6.43261194229126,1.341737985610962
1788107463621590300,2.61459033203125,7.286133766174316,6.414590835571289,1.3435930013656616
1788107463631678700,2.6246787109375,7.2989702224731445,6.3994269371032715,1.3462419509887695
1788107463641763800,2.634763916015625,7.309216022491455,6.387041091918945,1.3494549989700317
1788107463651850200,2.644850341796875,7.31720495223999,6.377600193023682,1.3508180379867554
1788107463661934300,2.654934326171875,7.322965145111084,6.371581077575684,1.3480050563812256
1788107463672017700,2.665017578125,7.326152801513672,6.369556903839111,1.3402539491653442
1788107463682105300,2.675105224609375,7.326848983764648,6.371041774749756,1.329332947731018
1788107463692196400,2.6851962890625,7.323513031005859,6.377682209014893,1.3158060312271118
1788107463702293000,2.69529296875,7.318278789520264,6.386325836181641,1.3029279708862305
1788107463712382200,2.70538232421875,7.311896800994873,6.395707130432129,1.2927119731903076
1788107463722472700,2.71547265625,7.304933071136475,6.40505313873291,1.285776972770691
1788107463732552400,2.725552490234375,7.297573089599609,6.414422035217285,1.280864953994751
1788107463742640400,2.735640380859375,7.290291786193848,6.423165798187256,1.2785099744796753
1788107463752720400,2.745720458984375,7.28373384475708,6.4313201904296875,1.2748819589614868
1788107463762804500,2.755804443359375,7.276021957397461,6.440861225128174,1.2707489728927612
1788107463782974000,2.775973876953125,7.254279136657715,6.468233108520508,1.2559419870376587
1788107463793054200,2.78605419921875,7.241689205169678,6.484681129455566,1.243738055229187
1788107463803140400,2.796140380859375,7.229193210601807,6.501144886016846,1.2303860187530518
1788107463813226200,2.806226318359375,7.215424060821533,6.518322944641113,1.220278024673462
1788107463823320300,2.8163203125,7.2042012214660645,6.532776832580566,1.2092679738998413
1788107463833391000,2.82639111328125,7.196469783782959,6.542786121368408,1.201158046722412
1788107463843485200,2.836485107421875,7.192464828491211,6.548101902008057,1.1961820125579834
1788107463853570000,2.846570068359375,7.1912078857421875,6.55014181137085,1.1925480365753174
1788107463863664400,2.856664306640625,7.192605972290039,6.5496649742126465,1.1867300271987915
1788107463873750000,2.86675,7.196136951446533,6.547153949737549,1.179137945175171
1788107463883842800,2.8768427734375,7.200979232788086,6.543577194213867,1.1693949699401855
1788107463893929200,2.88692919921875,7.2048540115356445,6.541431903839111,1.1574560403823853
1788107463904021200,2.897021240234375,7.206345081329346,6.542367935180664,1.1427780389785767
1788107463914106000,2.907106201171875,7.205799102783203,6.545753002166748,1.1267540454864502
1788107463924194600,2.917194580078125,7.2047438621521,6.549339771270752,1.1125630140304565
1788107463934283300,2.927283203125,7.204410076141357,6.551292896270752,1.1031709909439087
1788107463944367600,2.93736767578125,7.20618200302124,6.550591945648193,1.0957659482955933
1788107463954446000,2.947446044921875,7.211641788482666,6.545604228973389,1.0896470546722412
1788107463964539600,2.95753955078125,7.218441009521484,6.538340091705322,1.0881999731063843
1788107463974618400,2.967618408203125,7.223875045776367,6.532492160797119,1.0872750282287598
1788107463984698600,2.97769873046875,7.227384090423584,6.528834819793701,1.0859140157699585
1788107463994783500,2.987783447265625,7.228723049163818,6.527064800262451,1.0876359939575195
1788107464004875500,2.99787548828125,7.228312969207764,6.526591777801514,1.0931949615478516
1788107464014966800,3.007966796875,7.226346969604492,6.527103900909424,1.1031030416488647
1788107464025059300,3.018059326171875,7.2237467765808105,6.528054237365723,1.1144429445266724
1788107464035142700,3.028142578125,7.223368167877197,6.526587963104248,1.1254390478134155
1788107464045234700,3.038234619140625,7.226556777954102,6.521722793579102,1.1331419944763184
1788107464055319300,3.0483193359375,7.233829021453857,6.51295280456543,1.1371580362319946
1788107464065409300,3.0584091796875,7.2445831298828125,6.50093412399292,1.1374889612197876
1788107464075502600,3.068502685546875,7.258721828460693,6.485654830932617,1.134585976600647
1788107464085588700,3.078588623046875,7.27495813369751,6.4682512283325195,1.1298949718475342
1788107464095673600,3.088673583984375,7.291822910308838,6.450419902801514,1.1231039762496948
1788107464105762300,3.09876220703125,7.307604789733887,6.43396520614624,1.114874005317688
1788107464115855000,3.108855224609375,7.320584774017334,6.42083215713501,1.1054140329360962
1788107464125950000,3.118949951171875,7.328774929046631,6.413302898406982,1.0947870016098022
1788107464136044300,3.129044189453125,7.330330848693848,6.413692951202393,1.0820039510726929
1788107464146138400,3.139138427734375,7.325590133666992,6.420903205871582,1.0712929964065552
1788107464156228400,3.149228271484375,7.315532207489014,6.433073997497559,1.06700599193573
1788107464166306000,3.15930615234375,7.30101203918457,6.449429988861084,1.0677490234375
1788107464176396300,3.169396240234375,7.283933162689209,6.46863317489624,1.0682480335235596
1788107464186482400,3.179482421875,7.26718282699585,6.487868785858154,1.0656479597091675
1788107464196572700,3.18957275390625,7.252756118774414,6.505133152008057,1.0586570501327515
1788107464206658600,3.199658447265625,7.241481781005859,6.51947021484375,1.0476000308990479
1788107464216738600,3.209738525390625,7.232390880584717,6.5315260887146,1.0352189540863037
1788107464226825700,3.21982568359375,7.224603176116943,6.541885852813721,1.0241379737854004
1788107464236907800,3.22990771484375,7.216465950012207,6.5520830154418945,1.0162849426269531
1788107464246995700,3.23999560546875,7.207820892333984,6.562294006347656,1.0117160081863403
1788107464257081900,3.250081787109375,7.199185848236084,6.572119235992432,1.0094239711761475
1788107464267167700,3.260167724609375,7.190928936004639,6.581236839294434,1.008890986442566
1788107464277259000,3.270259033203125,7.183946132659912,6.588779926300049,1.009384036064148
1788107464287344000,3.28034423828125,7.178808212280273,6.594594955444336,1.0079679489135742
1788107464297432000,3.29043212890625,7.175558090209961,6.598505020141602,1.005537986755371
1788107464307527400,3.30052734375,7.174747943878174,6.599414825439453,1.0053110122680664
1788107464317617000,3.310616943359375,7.175955772399902,6.597568035125732,1.0088260173797607
1788107464327698700,3.32069873046875,7.17907190322876,6.593235969543457,1.0149439573287964
1788107464337788200,3.3307880859375,7.184142112731934,6.586597919464111,1.0221890211105347
1788107464347870500,3.340870361328125,7.190464973449707,6.578873157501221,1.0274540185928345
1788107464357951700,3.35095166015625,7.197502136230469,6.570860862731934,1.0294220447540283
1788107464368037000,3.361037109375,7.204742908477783,6.563065052032471,1.028520941734314
1788107464378125300,3.371125244140625,7.2121710777282715,6.555302143096924,1.0259829759597778
1788107464388210700,3.381210693359375,7.219933032989502,6.5473408699035645,1.0221840143203735
1788107464398297600,3.391297607421875,7.2278032302856445,6.539344787597656,1.0177329778671265
1788107464408381400,3.40138134765625,7.235591888427734,6.531482219696045,1.0128860473632812
1788107464418472400,3.411472412109375,7.243515968322754,6.523349761962891,1.0086499452590942
1788107464428550000,3.4215498046875,7.251911163330078,6.514410018920898,1.0061149597167969
1788107464438642400,3.431642333984375,7.260768890380859,6.504703998565674,1.005012035369873
1788107464448718000,3.441718017578125,7.270505905151367,6.493515968322754,1.0069890022277832
1788107464458819300,3.4518193359375,7.2809271812438965,6.481348991394043,1.0100610256195068
1788107464468908500,3.461908447265625,7.292171001434326,6.467887878417969,1.0152109861373901
1788107464479006200,3.472006103515625,7.30446720123291,6.452797889709473,1.0228040218353271
1788107464489092000,3.482092041015625,7.317895889282227,6.4362969398498535,1.0307689905166626
1788107464499185200,3.49218505859375,7.333227157592773,6.417413234710693,1.0395209789276123
1788107464509260300,3.50226025390625,7.350803852081299,6.395688056945801,1.0491989850997925
1788107464519349000,3.512348876953125,7.371009826660156,6.370830059051514,1.0586459636688232
1788107464529436000,3.522435791015625,7.393331050872803,6.3435211181640625,1.0669679641723633
1788107464539535400,3.532535400390625,7.41740083694458,6.314228057861328,1.0736140012741089
1788107464549621500,3.54262158203125,7.442231178283691,6.28410005569458,1.0785499811172485
1788107464559725000,3.55272509765625,7.4664411544799805,6.254505157470703,1.083245038986206
1788107464569811000,3.56281103515625,7.488880157470703,6.226356029510498,1.0904840230941772
1788107464579906000,3.572906005859375,7.508731842041016,6.200613021850586,1.1006289720535278
1788107464589992700,3.58299267578125,7.525999069213867,6.177271842956543,1.1138449907302856
1788107464600083200,3.593083251953125,7.540884971618652,6.156228065490723,1.1295709609985352
1788107464610172200,3.603172119140625,7.552886962890625,6.138350963592529,1.1465189456939697
1788107464620270000,3.61327001953125,7.562819004058838,6.123143196105957,1.1622899770736694
1788107464630356200,3.623356201171875,7.570939064025879,6.110515117645264,1.1757930517196655
1788107464640449000,3.633448974609375,7.577233791351318,6.10089111328125,1.1851730346679688
1788107464650531000,3.643531005859375,7.581554889678955,6.0945868492126465,1.1899689435958862
1788107464660620500,3.65362060546875,7.583775043487549,6.091550827026367,1.1913599967956543
1788107464670706700,3.663706787109375,7.583871841430664,6.091537952423096,1.190816044807434
1788107464680803800,3.673803955078125,7.582633018493652,6.093410968780518,1.1891380548477173
1788107464690904000,3.683904052734375,7.580839157104492,6.096114158630371,1.1867109537124634
1788107464700998000,3.693997802734375,7.579552173614502,6.098429203033447,1.1830129623413086
1788107464711084000,3.704083984375,7.579229831695557,6.099966049194336,1.1771379709243774
1788107464721176600,3.714176513671875,7.580014228820801,6.100437164306641,1.1696369647979736
1788107464731254300,3.724254150390625,7.581803798675537,6.099695205688477,1.1618859767913818
1788107464741345000,3.734344970703125,7.584146976470947,6.098269939422607,1.1540590524673462
1788107464751429600,3.7444296875,7.585349082946777,6.098076820373535,1.1471370458602905
1788107464761517800,3.754517822265625,7.5830841064453125,6.10191011428833,1.1417269706726074
1788107464771606800,3.764606689453125,7.5755720138549805,6.111869812011719,1.1383179426193237
1788107464781690000,3.774690185546875,7.5625319480896,6.128267765045166,1.136849045753479
1788107464791772700,3.784772705078125,7.545237064361572,6.149415016174316,1.1375839710235596
1788107464801864200,3.7948642578125,7.524491786956787,6.174042224884033,1.141584038734436
1788107464811948300,3.8049482421875,7.501112937927246,6.2012939453125,1.1477240324020386
1788107464822037200,3.815037353515625,7.476302146911621,6.2297210693359375,1.1556349992752075
1788107464832127000,3.825126953125,7.450527191162109,6.258752822875977,1.165202021598816
1788107464842219000,3.835218994140625,7.424507141113281,6.287574768066406,1.176056981086731
1788107464852315100,3.845315185546875,7.398889064788818,6.3152570724487305,1.1890790462493896
1788107464862408000,3.855407958984375,7.374730110168457,6.340527057647705,1.2046259641647339
1788107464872494300,3.865494384765625,7.352996826171875,6.362698078155518,1.2204619646072388
1788107464882594000,3.875593994140625,7.334108829498291,6.381865978240967,1.233947992324829
1788107464892680400,3.885680419921875,7.318496227264404,6.398097038269043,1.242563009262085
1788107464902770000,3.89577001953125,7.305991172790527,6.411927223205566,1.2448710203170776
1788107464912854500,3.9058544921875,7.296741962432861,6.42319393157959,1.2410160303115845
1788107464922946300,3.9159462890625,7.2901811599731445,6.432216167449951,1.2328250408172607
1788107464933033700,3.92603369140625,7.285685062408447,6.439533233642578,1.2211350202560425
1788107464943124700,3.936124755859375,7.282112121582031,6.446685791015625,1.2046220302581787
1788107464953211400,3.94621142578125,7.277723789215088,6.455451011657715,1.1840050220489502
1788107464963311400,3.956311279296875,7.271774768829346,6.466197967529297,1.1617189645767212
1788107464973395200,3.966395263671875,7.263576030731201,6.479443073272705,1.1389720439910889
1788107464983489800,3.97648974609375,7.253098011016846,6.495451927185059,1.1143139600753784
1788107464993577200,3.9865771484375,7.240513801574707,6.514136791229248,1.08673894405365
1788107465003663400,3.996663330078125,7.2272539138793945,6.533907890319824,1.0558580160140991
1788107465013750500,4.00675048828125,7.214057922363281,6.553744792938232,1.0226349830627441
1788107465023849000,4.016848876953125,7.200467109680176,6.57360315322876,0.990460991859436
1788107465033936000,4.026935791015625,7.186258792877197,6.59344482421875,0.9612929821014404
1788107465044027400,4.03702734375,7.171820163726807,6.612806797027588,0.935824990272522
1788107465054107100,4.047107177734375,7.157619953155518,6.631319046020508,0.9132959842681885
1788107465064200400,4.057200439453125,7.144120216369629,6.648806095123291,0.8915820121765137
1788107465074285800,4.067285888671875,7.132311820983887,6.664394855499268,0.8695129752159119
1788107465084373000,4.077373046875,7.123776912689209,6.676533222198486,0.8459799885749817
1788107465094461400,4.08746142578125,7.119507789611816,6.684196949005127,0.8210499882698059
1788107465104558600,4.09755859375,7.11894416809082,6.688208103179932,0.7927510142326355
1788107465114641000,4.107640869140625,7.123363018035889,6.687195777893066,0.7609779834747314
1788107465124726500,4.1177265625,7.1321210861206055,6.6815900802612305,0.7274379730224609
1788107465134821000,4.127821044921875,7.1448822021484375,6.6714701652526855,0.6944180130958557
1788107465144913000,4.137912841796875,7.161427974700928,6.656989097595215,0.6621389985084534
1788107465154997500,4.14799755859375,7.180862903594971,6.639166831970215,0.6297979950904846
1788107465165088300,4.158088134765625,7.201303005218506,6.620026111602783,0.5970420241355896
1788107465175175400,4.168175537109375,7.220887184143066,6.601500034332275,0.5648519992828369
1788107465185272000,4.17827197265625,7.237858772277832,6.585391998291016,0.5347579717636108
1788107465195358500,4.1883583984375,7.251420974731445,6.5723958015441895,0.5104449987411499
1788107465205456400,4.198456298828125,7.262211799621582,6.561767101287842,0.49341198801994324
1788107465215544300,4.20854443359375,7.270277976989746,6.553557872772217,0.4836449921131134
1788107465225633000,4.218633056640625,7.276275157928467,6.547216892242432,0.4793109893798828
1788107465235732200,4.228732177734375,7.280066967010498,6.543155193328857,0.47721201181411743
1788107465245822700,4.23882275390625,7.280801773071289,6.542472839355469,0.4753679931163788
1788107465255910000,4.248909912109375,7.277702808380127,6.546110153198242,0.4727419912815094
1788107465265999400,4.258999267578125,7.270086765289307,6.554994106292725,0.4668479859828949
1788107465276090000,4.269090087890625,7.258959770202637,6.56804084777832,0.45644399523735046
1788107465286176800,4.2791767578125,7.246184825897217,6.583215236663818,0.4405890107154846
1788107465296255000,4.2892548828125,7.233548164367676,6.598408222198486,0.4204069972038269
1788107465306345200,4.29934521484375,7.223164081573486,6.611163139343262,0.39799201488494873
1788107465316430000,4.30943017578125,7.216786861419678,6.619466781616211,0.3750329911708832
1788107465326520300,4.319520263671875,7.215347766876221,6.6223249435424805,0.351610004901886
1788107465336600600,4.3296005859375,7.2189860343933105,6.6195478439331055,0.3284359872341156
1788107465346690300,4.339690185546875,7.226285934448242,6.612671852111816,0.3055889904499054
1788107465356772400,4.3497724609375,7.235816955566406,6.603200912475586,0.28411200642585754
1788107465366860300,4.3598603515625,7.2464599609375,6.592318058013916,0.2648569941520691
1788107465376939000,4.36993896484375,7.258008003234863,6.580264091491699,0.24797700345516205
1788107465387036200,4.3800361328125,7.269956111907959,6.567667007446289,0.2312600016593933
1788107465397120000,4.3901201171875,7.28196907043457,6.554941177368164,0.2137179970741272
1788107465407206400,4.400206298828125,7.292741775512695,6.543549060821533,0.19458900392055511
1788107465417291500,4.41029150390625,7.300617218017578,6.5353617668151855,0.17329399287700653
1788107465427387600,4.4203876953125,7.304535865783691,6.531531810760498,0.15100200474262238
1788107465437468000,4.430468017578125,7.302698135375977,6.534064769744873,0.12888500094413757
1788107465447556000,4.44055615234375,7.294710159301758,6.5433349609375,0.1093360036611557
1788107465457638000,4.450637939453125,7.282485008239746,6.557151794433594,0.0959319993853569
1788107465467718700,4.46071875,7.26760196685791,6.573671817779541,0.09370099753141403
1788107465477800200,4.47080029296875,7.251583099365234,6.591115951538086,0.10807999968528748
1788107465487888100,4.48088818359375,7.230865955352783,6.613539218902588,0.1253570020198822
1788107465497975300,4.490975341796875,7.210815906524658,6.634882926940918,0.14971700310707092
1788107465508063500,4.5010634765625,7.190540790557861,6.6561150550842285,0.17941699922084808
1788107465518143000,4.51114306640625,7.168588161468506,6.678894996643066,0.20892299711704254
1788107465528232200,4.521232177734375,7.1446709632873535,6.703542232513428,0.23704999685287476
1788107465538320100,4.531320068359375,7.118572235107422,6.730302810668945,0.26259899139404297
1788107465548408300,4.541408203125,7.09104585647583,6.758285045623779,0.2875800132751465
1788107465558492000,4.551491943359375,7.063290119171143,6.786120891571045,0.31386300921440125
1788107465568571400,4.5615712890625,7.036925792694092,6.812140941619873,0.3412489891052246
1788107465578662000,4.571661865234375,7.01450777053833,6.833755970001221,0.3694170117378235
1788107465588745200,4.5817451171875,6.997163772583008,6.849853992462158,0.3989199995994568
1788107465598836200,4.591836181640625,6.985013008117676,6.860439777374268,0.428956001996994
1788107465608925700,4.60192578125,6.977101802825928,6.86668586730957,0.4567820131778717
1788107465619016400,4.612016357421875,6.973552227020264,6.868497848510742,0.48302000761032104
1788107465629106000,4.62210595703125,6.972663879394531,6.867605209350586,0.507839024066925
1788107465639191300,4.63219140625,6.973081111907959,6.865372180938721,0.5317909717559814
1788107465649273900,4.64227392578125,6.97411584854126,6.862489223480225,0.5549039840698242
1788107465659367200,4.6523671875,6.97444486618042,6.86015510559082,0.5791559815406799
1788107465669458400,4.66245849609375,6.973280906677246,6.859263896942139,0.6031649708747864
1788107465679550200,4.67255029296875,6.9699201583862305,6.860692024230957,0.6253979802131653
1788107465689630500,4.68263037109375,6.963024139404297,6.865910053253174,0.6446520090103149
1788107465699720400,4.692720458984375,6.952063083648682,6.875387191772461,0.6616939902305603
1788107465709810400,4.702810546875,6.937743186950684,6.8882880210876465,0.6776649951934814
1788107465719895300,4.712895263671875,6.922624111175537,6.901680946350098,0.6957780122756958
1788107465729988600,4.722988525390625,6.908773899078369,6.9133429527282715,0.7173349857330322
1788107465740083200,4.733083251953125,6.897441864013672,6.921951770782471,0.7429090142250061
1788107465750176500,4.743176513671875,6.8885650634765625,6.927560806274414,0.7723780274391174
1788107465760262100,4.75326220703125,6.8829522132873535,6.929378032684326,0.8053799867630005
1788107465770349300,4.763349365234375,6.881272792816162,6.9266438484191895,0.8424540162086487
1788107465780440800,4.77344091796875,6.884138107299805,6.918797016143799,0.8825139999389648
1788107465790527500,4.783527587890625,6.891507148742676,6.906184196472168,0.9228950142860413
1788107465800613600,4.793613525390625,6.90309476852417,6.889463901519775,0.9604759812355042
1788107465810705400,4.803705322265625,6.917777061462402,6.869998931884766,0.9937419891357422
1788107465820795000,4.813794921875,6.933618068695068,6.850007057189941,1.020946979522705
1788107465830882000,4.823882080078125,6.948208808898926,6.832101821899414,1.0415539741516113
1788107465840972000,4.833971923828125,6.960377216339111,6.817588806152344,1.0552849769592285
1788107465851053300,4.84405322265625,6.9685959815979,6.807651042938232,1.0651350021362305
1788107465861147100,4.854147216796875,6.973055839538574,6.8016557693481445,1.074234962463379
1788107465871238700,4.86423876953125,6.973328113555908,6.800033092498779,1.0827009677886963
1788107465881324800,4.87432470703125,6.969034194946289,6.803379058837891,1.0893150568008423
1788107465891409000,4.884408935546875,6.959558010101318,6.812600135803223,1.0922600030899048
1788107465901502500,4.89450244140625,6.943859100341797,6.829028129577637,1.0895999670028687
1788107465911591000,4.9045908203125,6.923456192016602,6.8510518074035645,1.0811350345611572
1788107465921682000,4.914681884765625,6.900918006896973,6.875621795654297,1.06918203830719
1788107465931771600,4.924771728515625,6.880108833312988,6.897037029266357,1.0653350353240967
1788107465941859000,4.934859130859375,6.851946830749512,6.92545223236084,1.0625250339508057
1788107465951948000,4.944947998046875,6.826099872589111,6.9522857666015625,1.053637981414795
1788107465962040000,4.9550400390625,6.799977779388428,6.9775919914245605,1.055230975151062
1788107465972133600,4.965133544921875,6.772593021392822,7.001612186431885,1.0721180438995361
1788107465982224600,4.975224609375,6.742311954498291,7.026247024536133,1.1014139652252197
1788107465992305700,4.9853056640625,6.712346076965332,7.051258087158203,1.124377965927124
1788107466002400300,4.995400146484375,6.683550834655762,7.076693058013916,1.136036992073059
1788107466012489200,5.0054892578125,6.656472206115723,7.10087776184082,1.144081950187683
1788107466022574300,5.01557421875,6.628458023071289,7.126142978668213,1.1496249437332153
1788107466032651300,5.0256513671875,6.597458839416504,7.155095100402832,1.1481139659881592
1788107466042738400,5.035738525390625,6.5657148361206055,7.18596076965332,1.1372599601745605
1788107466052822500,5.045822509765625,6.53584623336792,7.216206073760986,1.1176300048828125
1788107466062916600,5.05591650390625,6.508664131164551,7.244494915008545,1.0929629802703857
1788107466073016600,5.0660166015625,6.480906009674072,7.271734237670898,1.076920986175537
1788107466083106800,5.07610693359375,6.450081825256348,7.30176305770874,1.058616042137146
1788107466093193500,5.086193359375,6.411856174468994,7.338152885437012,1.0390169620513916
1788107466103291100,5.096291015625,6.366908073425293,7.379964828491211,1.0191080570220947
1788107466113385200,5.10638525390625,6.318049907684326,7.424039840698242,1.0029339790344238
1788107466123469000,5.116468994140625,6.2651238441467285,7.46982479095459,0.9949659705162048
1788107466133555500,5.126555419921875,6.209878921508789,7.516397953033447,0.9905189871788025
1788107466143643000,5.136642822265625,6.1668901443481445,7.553030014038086,0.9804180264472961
1788107466153735400,5.1467353515625,6.1564412117004395,7.562164783477783,0.9756230115890503
1788107466163827500,5.156827392578125,6.163389205932617,7.553246974945068,1.000553011894226
1788107466173911600,5.16691162109375,6.173122882843018,7.540186882019043,1.0383249521255493
1788107466184010000,5.177010009765625,6.174468040466309,7.53236198425293,1.0860459804534912
1788107466194095600,5.187095703125,6.169341087341309,7.527785778045654,1.1452679634094238
1788107466204181200,5.19718115234375,6.162476062774658,7.524252891540527,1.203935980796814
1788107466214267100,5.20726708984375,6.152295112609863,7.524808883666992,1.251600980758667
1788107466224352800,5.217352783203125,6.1371750831604,7.530298233032227,1.2921420335769653
1788107466234433800,5.227433837890625,6.1205902099609375,7.5383758544921875,1.3233309984207153
1788107466244532700,5.23753271484375,6.106258869171143,7.547836780548096,1.3355729579925537
1788107466254610200,5.247610107421875,6.094688892364502,7.558897972106934,1.325840950012207
1788107466264705800,5.257705810546875,6.086765766143799,7.569396018981934,1.3021080493927002
1788107466274793000,5.26779296875,6.081309795379639,7.579060077667236,1.2710249423980713
1788107466284887800,5.2778876953125,6.076563835144043,7.588507175445557,1.236909031867981
1788107466294969900,5.287969970703125,6.072917938232422,7.59617280960083,1.207401990890503
1788107466305067800,5.29806787109375,6.066978931427002,7.603937149047852,1.1882610321044922
1788107466315150800,5.30815087890625,6.0569047927856445,7.612475872039795,1.1849639415740967
1788107466325242400,5.318242431640625,6.046951770782471,7.618556022644043,1.1966559886932373
1788107466335328000,5.328327880859375,6.04185676574707,7.619247913360596,1.2178139686584473
1788107466345418800,5.338418701171875,6.043682098388672,7.614037036895752,1.241081953048706
1788107466355514000,5.34851416015625,6.052389144897461,7.603859901428223,1.2609319686889648
1788107466365611000,5.358611083984375,6.0639967918396,7.591966152191162,1.2767080068588257
1788107466375689200,5.368689208984375,6.075878143310547,7.580169200897217,1.2902439832687378
1788107466385785300,5.378785400390625,6.095292091369629,7.562777042388916,1.3007019758224487
1788107466395870700,5.38887060546875,6.114675045013428,7.543696880340576,1.3203799724578857
1788107466405957400,5.398957275390625,6.130105018615723,7.526079177856445,1.3490819931030273
1788107466416056300,5.409056396484375,6.141287803649902,7.510307788848877,1.3855760097503662
1788107466426152400,5.41915234375,6.145899772644043,7.498592853546143,1.427935004234314
1788107466436231000,5.42923095703125,6.144653797149658,7.490775108337402,1.4736160039901733
1788107466446321400,5.4393212890625,6.138638973236084,7.486889839172363,1.5177509784698486
1788107466456413400,5.449413330078125,6.1284308433532715,7.4879231452941895,1.5534939765930176
1788107466466502400,5.45950244140625,6.114690780639648,7.493659973144531,1.5797510147094727
1788107466476580600,5.46958056640625,6.099967002868652,7.5020952224731445,1.5965559482574463
1788107466486675700,5.47967578125,6.085179805755615,7.5124359130859375,1.6043399572372437
1788107466496767700,5.489767822265625,6.072419166564941,7.523309230804443,1.6017370223999023
1788107466506854400,5.4998544921875,6.064241886138916,7.531545162200928,1.5939879417419434
1788107466516941600,5.509941650390625,6.061117172241211,7.5351738929748535,1.5887119770050049
1788107466527029500,5.520029541015625,6.0615739822387695,7.534639835357666,1.5894850492477417
1788107466537103000,5.53010302734375,6.063442230224609,7.531739234924316,1.596119999885559
1788107466547192300,5.5401923828125,6.066525936126709,7.527400970458984,1.6048320531845093
1788107466557272000,5.55027197265625,6.072508811950684,7.519744873046875,1.6180449724197388
1788107466567358200,5.560358154296875,6.0810627937316895,7.512797832489014,1.618190050125122
1788107466577447400,5.570447509765625,6.093105792999268,7.503612995147705,1.6154999732971191
1788107466587527200,5.580527099609375,6.108290195465088,7.490487098693848,1.6190749406814575
1788107466597613300,5.59061328125,6.125035762786865,7.475581169128418,1.6247049570083618
1788107466607693300,5.600693359375,6.143136024475098,7.461001873016357,1.62336003780365
1788107466617778000,5.61077783203125,6.163188934326172,7.44598388671875,1.6162999868392944
1788107466627865900,5.620865966796875,6.184402942657471,7.4301581382751465,1.608070969581604
1788107466637952500,5.630952392578125,6.20621395111084,7.41384220123291,1.5993289947509766
1788107466648036900,5.641036865234375,6.228418827056885,7.397202968597412,1.5900280475616455
1788107466658122500,5.65112255859375,6.251407146453857,7.378129005432129,1.5884259939193726
1788107466668208600,5.661208740234375,6.278533935546875,7.353725910186768,1.594596028327942
1788107466678295800,5.6712958984375,6.306430816650391,7.329925060272217,1.5940899848937988
1788107466688381200,5.681381103515625,6.332369804382324,7.31037712097168,1.580957055091858
1788107466698469000,5.69146923828125,6.356162071228027,7.293379783630371,1.5639050006866455
1788107466708548900,5.701548828125,6.376729965209961,7.278634071350098,1.548807978630066
1788107466718646000,5.71164599609375,6.396604061126709,7.2632598876953125,1.5390030145645142
1788107466728729000,5.72172900390625,6.419356822967529,7.242753982543945,1.5408869981765747
1788107466738824400,5.731824462890625,6.45261287689209,7.209005832672119,1.5601329803466797
1788107466748903700,5.741903564453125,6.492732048034668,7.168316841125488,1.5810409784317017
1788107466758997200,5.751997314453125,6.534963130950928,7.126570224761963,1.595687985420227
1788107466769083100,5.762083251953125,6.575080871582031,7.087357044219971,1.6055129766464233
1788107466779178500,5.772178466796875,6.61053991317749,7.051299095153809,1.6186100244522095
1788107466789262300,5.782262451171875,6.640511989593506,7.018727779388428,1.6373900175094604
1788107466799359200,5.792359130859375,6.665933132171631,6.990536212921143,1.6546169519424438
1788107466809447400,5.802447509765625,6.687376022338867,6.9669880867004395,1.6673500537872314
1788107466819541000,5.812541015625,6.706293106079102,6.946937084197998,1.675022006034851
1788107466829634600,5.822634521484375,6.7203168869018555,6.93161678314209,1.6822600364685059
1788107466839729000,5.83272900390625,6.7320637702941895,6.919910907745361,1.6834800243377686
1788107466849813500,5.8428134765625,6.7411651611328125,6.913512229919434,1.6733410358428955
1788107466859908600,5.85290869140625,6.743828773498535,6.916578769683838,1.6497540473937988
1788107466870007600,5.863007568359375,6.737775802612305,6.928363800048828,1.6248459815979004
1788107466880102000,5.873101806640625,6.721491813659668,6.950376033782959,1.5980689525604248
1788107466890184200,5.88318408203125,6.697216987609863,6.977423191070557,1.5820430517196655
1788107466900284400,5.893284423828125,6.668363094329834,7.005390167236328,1.580314040184021
1788107466910375200,5.903375244140625,6.639286041259766,7.031662940979004,1.586074948310852
1788107466920471600,5.913471435546875,6.611423969268799,7.0565409660339355,1.5919649600982666
1788107466930561800,5.923561767578125,6.586618900299072,7.079880237579346,1.5911329984664917
1788107466940645400,5.933645263671875,6.567340850830078,7.096932888031006,1.5948599576950073
1788107466950723800,5.943723876953125,6.553843975067139,7.113077163696289,1.5783740282058716
1788107466960818700,5.953818603515625,6.538013935089111,7.1338419914245605,1.5500409603118896
1788107466970903800,5.96390380859375,6.519029140472412,7.156798839569092,1.523972988128662
1788107466980999200,5.973999267578125,6.492832183837891,7.184493064880371,1.5054110288619995
1788107466991090700,5.984090576171875,6.450593948364258,7.2233500480651855,1.5010089874267578
1788107467001187300,5.994187255859375,6.386447906494141,7.277295112609863,1.5146830081939697
1788107467011274500,6.0042744140625,6.303631782531738,7.34207820892334,1.5485910177230835
1788107467021375700,6.014375732421875,6.206874847412109,7.412686824798584,1.602113962173462
1788107467031466200,6.02446630859375,6.1026201248168945,7.483743190765381,1.670807957649231
1788107467041563000,6.03456298828125,5.995729923248291,7.5526628494262695,1.7459880113601685
1788107467051650600,6.044650634765625,5.889719009399414,7.6182098388671875,1.8204549551010132
1788107467061737700,6.05473779296875,5.788177967071533,7.679218769073486,1.8885300159454346
1788107467071821300,6.0648212890625,5.6948771476745605,7.733335018157959,1.9503530263900757
1788107467081905700,6.07490576171875,5.61359977722168,7.777510166168213,2.0094239711761475
1788107467091992800,6.084992919921875,5.546022891998291,7.810554027557373,2.0680599212646484
1788107467102091800,6.095091796875,5.491473197937012,7.83354377746582,2.125870943069458
1788107467112183000,6.10518310546875,5.4477128982543945,7.84869909286499,2.181818962097168
1788107467122280000,6.115280029296875,5.41326904296875,7.857375144958496,2.2356679439544678
1788107467132369000,6.125368896484375,5.385548114776611,7.861118793487549,2.288825035095215
1788107467142468400,6.13546826171875,5.364559173583984,7.859830856323242,2.341913938522339
1788107467152553200,6.14555322265625,5.352493762969971,7.852550983428955,2.3933799266815186
1788107467162644500,6.15564453125,5.350555896759033,7.838596820831299,2.4429430961608887
1788107467172732700,6.165732666015625,5.357697010040283,7.817893981933594,2.4931180477142334
1788107467182823200,6.1758232421875,5.372183799743652,7.7909159660339355,2.545835018157959
1788107467192908300,6.185908203125,5.391111850738525,7.759890079498291,2.6000049114227295
1788107467202997800,6.195997802734375,5.41801118850708,7.723465919494629,2.652010917663574
1788107467213084700,6.206084716796875,5.456243991851807,7.686524868011475,2.6808059215545654
1788107467223176000,6.216176025390625,5.504039764404297,7.642543792724609,2.7087008953094482
1788107467233264600,6.2262646484375,5.558426856994629,7.597930908203125,2.7231099605560303
1788107467243358200,6.236358154296875,5.617496013641357,7.5547099113464355,2.7221479415893555
1788107467253446700,6.24644677734375,5.680478096008301,7.51148796081543,2.71104097366333
1788107467263532000,6.256531982421875,5.7440409660339355,7.470057964324951,2.6915149688720703
1788107467273619700,6.26661962890625,5.80398416519165,7.431933879852295,2.668346881866455
1788107467283710700,6.276710693359375,5.8578667640686035,7.397477149963379,2.646277904510498
1788107467293784000,6.2867841796875,5.904675006866455,7.366633892059326,2.628216028213501
1788107467303871200,6.296871337890625,5.9430131912231445,7.340404987335205,2.6151580810546875
1788107467313952800,6.306952880859375,5.969024181365967,7.322504997253418,2.606084108352661
1788107467324050000,6.3170498046875,5.984830856323242,7.312110900878906,2.599004030227661
1788107467334134800,6.327134765625,5.9914422035217285,7.30929708480835,2.5916800498962402
1788107467344214000,6.337214111328125,5.9914140701293945,7.312294960021973,2.5832769870758057
1788107467354302700,6.347302734375,5.986967086791992,7.319040775299072,2.574465036392212
1788107467364390100,6.35739013671875,5.982110977172852,7.326244831085205,2.565246105194092
1788107467374482000,6.36748193359375,5.981804847717285,7.3299970626831055,2.555217981338501
1788107467384572400,6.377572509765625,5.986684799194336,7.329516887664795,2.5451478958129883
1788107467394652200,6.387652099609375,5.996103763580322,7.324904918670654,2.536236047744751
1788107467404743400,6.397743408203125,6.008252143859863,7.3177947998046875,2.5279979705810547
1788107467414833000,6.4078330078125,6.020993232727051,7.310348987579346,2.519213914871216
1788107467424925200,6.41792529296875,6.033987045288086,7.302856922149658,2.5098350048065186
1788107467435006200,6.428006103515625,6.047476768493652,7.294498920440674,2.5016579627990723
1788107467445101000,6.43810107421875,6.06202507019043,7.284661769866943,2.4951040744781494
1788107467455186400,6.4481865234375,6.0774078369140625,7.2746381759643555,2.4869229793548584
1788107467465277700,6.458277587890625,6.093547821044922,7.265608787536621,2.4737799167633057
1788107467475358500,6.4683583984375,6.108499050140381,7.259160995483398,2.4557740688323975
1788107467485454000,6.4784541015625,6.120237827301025,7.257024765014648,2.432749032974243
1788107467495549400,6.488549560546875,6.127027988433838,7.259984016418457,2.406683921813965
1788107467505634600,6.498634521484375,6.128962993621826,7.267244815826416,2.3796980381011963
1788107467515740400,6.508740478515625,6.1271281242370605,7.277328968048096,2.3534600734710693
1788107467525836800,6.5188369140625,6.125189781188965,7.286344051361084,2.3304989337921143
1788107467535926800,6.5289267578125,6.124145030975342,7.293490886688232,2.3108069896698
1788107467546024700,6.539024658203125,6.124288082122803,7.298597812652588,2.2942419052124023
1788107467556113400,6.549113525390625,6.125908851623535,7.301368236541748,2.2810680866241455
1788107467566207500,6.55920751953125,6.1276397705078125,7.303390026092529,2.2699201107025146
1788107467576306200,6.56930615234375,6.129500865936279,7.3051228523254395,2.259291887283325
1788107467586397000,6.57939697265625,6.131750106811523,7.306718826293945,2.2480030059814453
1788107467596481500,6.5894814453125,6.133978843688965,7.308707237243652,2.235416889190674
1788107467606574800,6.599574951171875,6.134303092956543,7.3128862380981445,2.2208120822906494
1788107467616653300,6.6096533203125,6.132069110870361,7.320755958557129,2.200968027114868
1788107467626745900,6.619745849609375,6.125552177429199,7.3333330154418945,2.177117109298706
1788107467636877300,6.629877197265625,6.113184928894043,7.350326061248779,2.154442071914673
1788107467646966000,6.639966064453125,6.096114158630371,7.369805812835693,2.1362059116363525
1788107467657051100,6.650051025390625,6.07663106918335,7.389270782470703,2.124433994293213
1788107467667141000,6.66014111328125,6.0594987869262695,7.405367851257324,2.117311954498291
1788107467677222700,6.67022265625,6.051817893981934,7.414906024932861,2.105860948562622
1788107467687302000,6.680302001953125,6.057697772979736,7.415609836578369,2.0863840579986572
1788107467697382000,6.6903818359375,6.076695919036865,7.40849494934082,2.056195020675659
1788107467707477200,6.700477294921875,6.103425979614258,7.395773887634277,2.022545099258423
1788107467717552600,6.710552734375,6.132657051086426,7.37964391708374,1.9928250312805176
1788107467727646700,6.720646728515625,6.161540985107422,7.362454891204834,1.967147946357727
1788107467737726700,6.730726806640625,6.189225196838379,7.345400810241699,1.9438459873199463
1788107467747816400,6.74081640625,6.217100143432617,7.327452182769775,1.9225250482559204
1788107467757890000,6.75089013671875,6.2454352378845215,7.308159828186035,1.9040340185165405
1788107467767981300,6.760981201171875,6.273812770843506,7.2881598472595215,1.8873200416564941
1788107467778062000,6.77106201171875,6.304591178894043,7.265923023223877,1.8704169988632202
1788107467788145200,6.781145263671875,6.332965850830078,7.245767116546631,1.8526699542999268
1788107467798230800,6.791230712890625,6.3590850830078125,7.227749824523926,1.8334720134735107
1788107467808321300,6.8013212890625,6.382232189178467,7.213212013244629,1.8101500272750854
1788107467818405400,6.8114052734375,6.401447772979736,7.202539920806885,1.7846189737319946
1788107467828497700,6.82149755859375,6.4156270027160645,7.196783065795898,1.7567059993743896
1788107467838584300,6.831584228515625,6.424006938934326,7.1963210105896,1.7277400493621826
1788107467848664300,6.841664306640625,6.424858093261719,7.202066898345947,1.7004270553588867
1788107467858754300,6.85175439453125,6.417516231536865,7.214804172515869,1.6739519834518433
1788107467868839200,6.861839111328125,6.405029773712158,7.230974197387695,1.6518570184707642
1788107467878928000,6.871927978515625,6.391178131103516,7.246148109436035,1.6389579772949219
1788107467889015600,6.882015625,6.38021993637085,7.256229877471924,1.6370489597320557
1788107467899100700,6.8921005859375,6.373104095458984,7.261682987213135,1.6405830383300781
1788107467909182700,6.9021826171875,6.367886066436768,7.266395092010498,1.639963984489441
1788107467919260700,6.9122607421875,6.363108158111572,7.2734479904174805,1.6272130012512207
1788107467929356800,6.922356689453125,6.357885837554932,7.283628940582275,1.601876974105835
1788107467939455200,6.932455322265625,6.351709842681885,7.296724796295166,1.5663889646530151
1788107467949550600,6.942550537109375,6.343889236450195,7.311823844909668,1.5271849632263184
1788107467959636000,6.952635986328125,6.332529067993164,7.329041004180908,1.4914040565490723
1788107467969770800,6.962770751953125,6.316338062286377,7.349119186401367,1.4609099626541138
1788107467979864000,6.972864013671875,6.294297218322754,7.372793197631836,1.4365589618682861
1788107467989949000,6.982948974609375,6.266241073608398,7.400191783905029,1.4182490110397339
1788107468000044000,6.9930439453125,6.234496116638184,7.43021821975708,1.4010549783706665
1788107468010137900,7.003137939453125,6.201999187469482,7.460733890533447,1.3829779624938965
1788107468020228000,7.01322802734375,6.1732587814331055,7.487472057342529,1.366994023323059
1788107468030311700,7.023311767578125,6.152301788330078,7.507597923278809,1.350978970527649
1788107468040402400,7.03340234375,6.140818119049072,7.519789218902588,1.3353179693222046
1788107468050489000,7.043489013671875,6.138434886932373,7.524127960205078,1.3217860460281372
1788107468060575500,7.053575439453125,6.142629146575928,7.522481918334961,1.3116350173950195
1788107468070669000,7.0636689453125,6.149415969848633,7.518580913543701,1.302150011062622
1788107468080761300,7.07376123046875,6.1560797691345215,7.514793872833252,1.2924840450286865
1788107468090853600,7.083853515625,6.1615447998046875,7.512354850769043,1.2805860042572021
1788107468100946200,7.0939462890625,6.16481876373291,7.512069225311279,1.2664060592651367
1788107468111039000,7.1040390625,6.166015148162842,7.513686180114746,1.2509139776229858
1788107468121132800,7.1141328125,6.165853977203369,7.5162811279296875,1.2360270023345947
1788107468131225900,7.124225830078125,6.165342807769775,7.518579006195068,1.2245409488677979
1788107468141314600,7.134314453125,6.16492223739624,7.5200982093811035,1.2173219919204712
1788107468151404500,7.144404541015625,6.164813995361328,7.520708084106445,1.214100956916809
1788107468161497000,7.1544970703125,6.165345191955566,7.520130157470703,1.2149670124053955
1788107468171580700,7.16458056640625,6.165381908416748,7.519683837890625,1.2175610065460205
1788107468181670000,7.174669921875,6.163762092590332,7.520708084106445,1.219419002532959
1788107468191754500,7.18475439453125,6.158717155456543,7.525137901306152,1.217576026916504
1788107468201846800,7.1948466796875,6.150478839874268,7.5330681800842285,1.2101589441299438
1788107468211936500,7.2049365234375,6.140026092529297,7.543306827545166,1.1994190216064453
1788107468222028300,7.2150283203125,6.130128860473633,7.552799224853516,1.1902669668197632
1788107468232119300,7.225119384765625,6.12188196182251,7.559965133666992,1.1872190237045288
1788107468242215700,7.235215576171875,6.114851951599121,7.5648579597473145,1.1922739744186401
1788107468252307700,7.2453076171875,6.107891082763672,7.568336009979248,1.2057950496673584
1788107468262398700,7.255398681640625,6.099780082702637,7.5715508460998535,1.2265169620513916
1788107468272484400,7.265484375,6.091444969177246,7.574318885803223,1.2505810260772705
1788107468282567700,7.275567626953125,6.084980010986328,7.575920104980469,1.2721649408340454
1788107468292647200,7.285647216796875,6.0814127922058105,7.576444149017334,1.286018967628479
1788107468302733800,7.29573388671875,6.082150936126709,7.575160026550293,1.2901170253753662
1788107468312814000,7.30581396484375,6.086792945861816,7.572126865386963,1.2860130071640015
1788107468322905600,7.315905517578125,6.093441963195801,7.568411827087402,1.2763609886169434
1788107468332989400,7.325989501953125,6.099849224090576,7.564894199371338,1.266569972038269
1788107468343079200,7.3360791015625,6.103431224822998,7.563116073608398,1.2599200010299683
1788107468353162500,7.34616259765625,6.102884769439697,7.563766956329346,1.2586669921875
1788107468363247900,7.356247802734375,6.09882116317749,7.565826892852783,1.2659399509429932
1788107468373331700,7.366331787109375,6.092615127563477,7.56849479675293,1.2798199653625488
1788107468383426600,7.376426513671875,6.084111213684082,7.572824954986572,1.294569969177246
1788107468393510400,7.386510498046875,6.074668884277344,7.577676773071289,1.3104310035705566
1788107468403598300,7.396598388671875,6.065138816833496,7.582917213439941,1.3241859674453735
1788107468413684000,7.40668408203125,6.054993152618408,7.590391159057617,1.3277920484542847
1788107468423774200,7.416774169921875,6.0447998046875,7.599305152893066,1.323233962059021
1788107468433853200,7.426853271484375,6.035488128662109,7.6075358390808105,1.3184449672698975
1788107468443943700,7.436943603515625,6.028563976287842,7.612758159637451,1.3199609518051147
1788107468454033000,7.447032958984375,6.02420711517334,7.614363193511963,1.3305449485778809
1788107468464117800,7.45711767578125,6.021702766418457,7.612802982330322,1.3506699800491333
1788107468474209300,7.467209228515625,6.019228935241699,7.610748767852783,1.3730950355529785
1788107468484300300,7.47730029296875,6.014817237854004,7.611666202545166,1.3872770071029663
1788107468494381600,7.487381591796875,6.008951187133789,7.6162028312683105,1.3877769708633423
1788107468504481500,7.4974814453125,6.00380277633667,7.621889114379883,1.37882399559021
1788107468514574300,7.50757421875,6.0021867752075195,7.624939918518066,1.3689459562301636
1788107468524658200,7.517658203125,6.005492210388184,7.623085021972656,1.3647749423980713
1788107468534745000,7.5277451171875,6.0118818283081055,7.6168999671936035,1.3711849451065063
1788107468544831500,7.53783154296875,6.020273208618164,7.606701850891113,1.3908239603042603
1788107468554918400,7.54791845703125,6.030561923980713,7.593939781188965,1.4157739877700806
1788107468565011500,7.558011474609375,6.043041229248047,7.579521179199219,1.439605951309204
1788107468575097300,7.568097412109375,6.059132099151611,7.563276767730713,1.4573240280151367
1788107468585183700,7.578183837890625,6.080657958984375,7.544321060180664,1.465878963470459
1788107468595272700,7.588272705078125,6.107842922210693,7.522072792053223,1.467195987701416
1788107468605357000,7.598357177734375,6.139339923858643,7.496926784515381,1.4644440412521362
1788107468615448300,7.6084482421875,6.171616077423096,7.47157621383667,1.4583040475845337
1788107468625542100,7.618542236328125,6.201880931854248,7.447300910949707,1.454097032546997
1788107468635625200,7.628625244140625,6.226174831390381,7.427167892456055,1.4532510042190552
1788107468645715700,7.6387158203125,6.243357181549072,7.412424087524414,1.4548059701919556
1788107468655807000,7.648806884765625,6.254358768463135,7.402174949645996,1.459725022315979
1788107468665895400,7.6588955078125,6.261353015899658,7.395005226135254,1.4660580158233643
1788107468675988000,7.668988037109375,6.2665228843688965,7.389650821685791,1.4709750413894653
1788107468686083600,7.67908349609375,6.270784854888916,7.385561943054199,1.4733320474624634
1788107468696170000,7.689169921875,6.273047924041748,7.384329795837402,1.469884991645813
1788107468706253800,7.69925390625,6.271615982055664,7.387416839599609,1.4604419469833374
1788107468716344300,7.70934423828125,6.2647929191589355,7.395723819732666,1.4476319551467896
1788107468726431700,7.719431640625,6.251890182495117,7.40958309173584,1.4324710369110107
1788107468736521500,7.729521484375,6.237611770629883,7.422264099121094,1.4290560483932495
1788107468746602800,7.739602783203125,6.219979763031006,7.439428806304932,1.4165780544281006
1788107468756690200,7.749690185546875,6.197022914886475,7.4604878425598145,1.406417965888977
1788107468766785300,7.759785400390625,6.174174785614014,7.479187965393066,1.4075839519500732
1788107468776875500,7.76987548828125,6.153474807739258,7.494283199310303,1.4179270267486572
1788107468786952700,7.77995263671875,6.1345438957214355,7.50699520111084,1.432636022567749
1788107468797044700,7.790044677734375,6.115180015563965,7.520464897155762,1.4446970224380493
1788107468807129600,7.800129638671875,6.094510078430176,7.536660194396973,1.44765305519104
1788107468817220600,7.810220703125,6.073474884033203,7.555275917053223,1.4389979839324951
1788107468827307000,7.82030712890625,6.050961017608643,7.576886177062988,1.4201120138168335
1788107468837398300,7.830398193359375,6.026548862457275,7.600633144378662,1.3968110084533691
1788107468847480000,7.84047998046875,5.997389793395996,7.628043174743652,1.3726880550384521
1788107468857568800,7.85056884765625,5.960505962371826,7.661147117614746,1.3487730026245117
1788107468867659300,7.8606591796875,5.915647983551025,7.699848175048828,1.325692057609558
1788107468877747700,7.870747802734375,5.864260196685791,7.742565155029297,1.3050220012664795
1788107468887830300,7.880830322265625,5.809762954711914,7.786133766174316,1.2894790172576904
1788107468897914600,7.89091455078125,5.757680892944336,7.825858116149902,1.282593011856079
1788107468907998200,7.900998291015625,5.712562084197998,7.858451843261719,1.2850509881973267
1788107468918086400,7.91108642578125,5.676029205322266,7.883285045623779,1.2947880029678345
1788107468928165600,7.92116552734375,5.649548053741455,7.90036678314209,1.3064340353012085
1788107468938253800,7.93125390625,5.632626056671143,7.911833763122559,1.3101129531860352
1788107468948332500,7.94133251953125,5.624680042266846,7.919503211975098,1.297868013381958
1788107468958421000,7.9514208984375,5.623805999755859,7.9248738288879395,1.2685329914093018
1788107468968510500,7.961510498046875,5.62794303894043,7.928677082061768,1.2257020473480225
1788107468978597600,7.97159765625,5.635043144226074,7.930743217468262,1.1788100004196167
1788107468988677600,7.981677734375,5.644658088684082,7.928912162780762,1.144629955291748
1788107468998759200,7.99175927734375,5.65741491317749,7.9235520362854,1.1184420585632324
1788107469008850700,8.0018505859375,5.667290210723877,7.91896390914917,1.1008340120315552
1788107469018941000,8.01194091796875,5.679612159729004,7.9097418785095215,1.1036219596862793
1788107469029031400,8.022031494140625,5.695517063140869,7.896975994110107,1.1130340099334717
1788107469039122700,8.032122802734374,5.716726779937744,7.880796909332275,1.1189559698104858
1788107469049215500,8.042215576171875,5.744444847106934,7.860846042633057,1.1173570156097412
1788107469059303700,8.0523037109375,5.778145790100098,7.838006973266602,1.1039249897003174
1788107469069394200,8.062394287109376,5.816571235656738,7.812868118286133,1.0800939798355103
1788107469079491800,8.072491943359376,5.856896877288818,7.787028789520264,1.0482770204544067
1788107469089581300,8.082581298828124,5.892337799072266,7.765329837799072,1.0099539756774902
1788107469099675600,8.092675537109375,5.919858932495117,7.749417781829834,0.9704790115356445
1788107469109772300,8.102772216796875,5.940089225769043,7.738183975219727,0.9358350038528442
1788107469119861200,8.112861328125,5.952270030975342,7.731882095336914,0.9102420210838318
1788107469129950000,8.122949951171876,5.959339141845703,7.728097915649414,0.8959869742393494
1788107469140033300,8.133033203125,5.965747833251953,7.723674774169922,0.8914790153503418
1788107469150126300,8.143126220703126,5.975771903991699,7.715779781341553,0.8926849961280823
1788107469160220400,8.153220458984375,5.992669105529785,7.702356815338135,0.8953030109405518
1788107469170308600,8.16330859375,6.016473770141602,7.683631896972656,0.8965520262718201
1788107469180399000,8.173399169921876,6.045090198516846,7.6615681648254395,0.8928999900817871
1788107469190493700,8.18349365234375,6.07617712020874,7.63843297958374,0.8800320029258728
1788107469200575700,8.19357568359375,6.109535217285156,7.613859176635742,0.8618389964103699
1788107469210669600,8.203669677734375,6.144786834716797,7.58742618560791,0.8441060185432434
1788107469220755700,8.213755615234374,6.178181171417236,7.562057971954346,0.8278449773788452
1788107469230850800,8.223850830078124,6.208127021789551,7.538876056671143,0.8151829838752747
1788107469240946000,8.23394580078125,6.232529163360596,7.519931793212891,0.8038979768753052
1788107469251031800,8.24403173828125,6.247834205627441,7.509002208709717,0.7870370149612427
1788107469261118700,8.25411865234375,6.252665042877197,7.50750207901001,0.762628972530365
1788107469271204600,8.26420458984375,6.247056007385254,7.514790058135986,0.7363569736480713
1788107469281301000,8.274301025390624,6.228982925415039,7.532162189483643,0.7115470170974731
1788107469291391000,8.284390869140625,6.198696136474609,7.559160232543945,0.6893939971923828
1788107469301477400,8.294477294921874,6.156459808349609,7.595122814178467,0.6724050045013428
1788107469311571500,8.304571533203125,6.10284423828125,7.63955020904541,0.6577110290527344
1788107469321659400,8.314659423828125,6.040246963500977,7.6904449462890625,0.6422119736671448
1788107469331751200,8.324751220703124,5.975086212158203,7.742387771606445,0.627498984336853
1788107469341835800,8.334835693359375,5.916040897369385,7.788319110870361,0.6185020208358765
1788107469351920400,8.34492041015625,5.866978168487549,7.8253560066223145,0.6183680295944214
1788107469362005200,8.355005126953126,5.824203968048096,7.856407165527344,0.6288999915122986
1788107469372091100,8.365091064453125,5.77899694442749,7.887993812561035,0.650193989276886
1788107469382183000,8.375182861328126,5.721321105957031,7.927914142608643,0.6742830276489258
1788107469392276500,8.3852763671875,5.64754581451416,7.979261875152588,0.6903470158576965
1788107469402361600,8.395361572265625,5.55955696105957,8.041145324707031,0.6865389943122864
1788107469412464000,8.405464111328126,5.461524963378906,8.109821319580078,0.6652479767799377
1788107469422554000,8.41555419921875,5.3566999435424805,8.181774139404297,0.6358739733695984
1788107469432641000,8.42564111328125,5.248556137084961,8.25369644165039,0.6075789928436279
1788107469442727700,8.435727783203125,5.143229961395264,8.321105003356934,0.588575005531311
1788107469452818700,8.445818603515624,5.050718784332275,8.377959251403809,0.5830990076065063
1788107469462904800,8.45590478515625,4.981481075286865,8.419198989868164,0.5847610235214233
1788107469472989400,8.465989501953125,4.938176155090332,8.444774627685547,0.5832589864730835
1788107469483070700,8.47607080078125,4.918863773345947,8.456716537475586,0.5733669996261597
1788107469493162800,8.486162841796874,4.917603015899658,8.458806037902832,0.5529360175132751
1788107469503253500,8.49625341796875,4.93059778213501,8.453028678894043,0.5248540043830872
1788107469513339600,8.506339599609374,4.952672004699707,8.442072868347168,0.49241700768470764
1788107469533505300,8.52650537109375,5.005856037139893,8.413405418395996,0.4427109956741333
1788107469543596800,8.5365966796875,5.033905982971191,8.3967924118042,0.44010400772094727
1788107469553688000,8.54668798828125,5.06376314163208,8.37806510925293,0.45423901081085205
1788107469563772700,8.556772705078124,5.101659774780273,8.353239059448242,0.48624399304389954
1788107469573859000,8.566859130859376,5.156477928161621,8.316452980041504,0.5360080003738403
1788107469583962400,8.57696240234375,5.233201026916504,8.264364242553711,0.5948939919471741
1788107469594054000,8.587053955078124,5.325331211090088,8.201170921325684,0.6493170261383057
1788107469604141300,8.597141357421876,5.422324180603027,8.134183883666992,0.6880840063095093
1788107469614230800,8.607230712890624,5.512311935424805,8.07164192199707,0.7092599868774414
1788107469624311800,8.617311767578125,5.589486122131348,8.017560005187988,0.7185590267181396
1788107469634403300,8.6274033203125,5.65268611907959,7.972835063934326,0.7218030095100403
1788107469644491000,8.637490966796875,5.700384140014648,7.938622951507568,0.7237690091133118
1788107469654585900,8.6475859375,5.730382919311523,7.916696071624756,0.7270690202713013
1788107469664673300,8.65767333984375,5.744102954864502,7.906132221221924,0.733718991279602
1788107469674764800,8.667764892578125,5.745734214782715,7.903926849365234,0.7446140050888062
1788107469684850200,8.67785009765625,5.740133762359619,7.906844139099121,0.7567499876022339
1788107469694939400,8.687939453125,5.728999137878418,7.9142022132873535,0.7641900181770325
1788107469705025500,8.698025634765624,5.712814807891846,7.925795078277588,0.7651969790458679
1788107469715118800,8.708118896484375,5.691357135772705,7.9417948722839355,0.759177029132843
1788107469725204200,8.718204345703125,5.665531158447266,7.961565017700195,0.745123028755188
1788107469735297500,8.728297607421876,5.63831090927124,7.982550144195557,0.7268589735031128
1788107469745391400,8.738391357421875,5.612835884094238,8.001968383789062,0.7103440165519714
1788107469755485000,8.74848486328125,5.59186315536499,8.017075538635254,0.7053279876708984
1788107469765580000,8.758580078125,5.578486919403076,8.025762557983398,0.7124500274658203
1788107469775670300,8.768670166015625,5.571178913116455,8.030043601989746,0.7213510274887085
1788107469785755000,8.7787548828125,5.565517902374268,8.033750534057617,0.7237730026245117
1788107469795849700,8.788849609375,5.560011863708496,8.038643836975098,0.7116460204124451
1788107469805929700,8.7989296875,5.554160118103027,8.045063018798828,0.6843039989471436
1788107469816031500,8.809031494140624,5.547187805175781,8.052627563476562,0.6510530114173889
1788107469826110500,8.8191103515625,5.538111209869385,8.060897827148438,0.6255379915237427
1788107469836208000,8.8292080078125,5.529551982879639,8.067305564880371,0.6185659766197205
1788107469846298600,8.839298583984375,5.524064064025879,8.07060432434082,0.624550998210907
1788107469856390100,8.84939013671875,5.522459030151367,8.071097373962402,0.6323260068893433
1788107469866481700,8.859481689453125,5.5284810066223145,8.066302299499512,0.6408100128173828
1788107469876566000,8.86956591796875,5.5451250076293945,8.054126739501953,0.6501049995422363
1788107469886654500,8.879654541015626,5.572859764099121,8.034419059753418,0.6567630171775818
1788107469896733700,8.889733642578125,5.60890007019043,8.009515762329102,0.6541680097579956
1788107469906814700,8.899814697265626,5.652875900268555,7.97922420501709,0.6457700133323669
1788107469916899300,8.9098994140625,5.70423698425293,7.94334602355957,0.636339008808136
1788107469926983700,8.919983642578124,5.758619785308838,7.904839038848877,0.6259649991989136
1788107469937055500,8.930055419921874,5.811287879943848,7.867365837097168,0.6111369729042053
1788107469947143000,8.940142822265624,5.857791900634766,7.834425926208496,0.58992999792099
1788107469957231600,8.950231689453124,5.892254829406738,7.810484886169434,0.5635920166969299
1788107469967322400,8.960322265625,5.910854816436768,7.798443794250488,0.534841001033783
1788107469977404700,8.97040478515625,5.911685943603516,7.799434185028076,0.510703980922699
1788107469987490600,8.980490478515625,5.892601013183594,7.815122127532959,0.49099001288414
1788107469997576200,8.990576171875,5.855463027954102,7.84407377243042,0.4733229875564575
1788107470007658000,9.000657958984375,5.802194118499756,7.884549140930176,0.4565419852733612
1788107470017739000,9.010739013671875,5.7363691329956055,7.933644771575928,0.43744799494743347
1788107470027824400,9.020824462890625,5.664635181427002,7.986246109008789,0.4145030081272125
1788107470037906700,9.03090673828125,5.590685844421387,8.039373397827148,0.3908129930496216
1788107470047991800,9.04099169921875,5.518465995788574,8.090043067932129,0.37112700939178467
1788107470058072600,9.051072509765625,5.448894023895264,8.13778305053711,0.3550550043582916
1788107470068160800,9.061160888671875,5.380682945251465,8.183673858642578,0.34017300605773926
1788107470078246700,9.07124658203125,5.31459379196167,8.227462768554688,0.3224169909954071
1788107470088343800,9.08134375,5.249661922454834,8.269906044006348,0.29947999119758606
1788107470098429400,9.091429443359376,5.189195156097412,8.308833122253418,0.2748520076274872
1788107470108538400,9.101538330078125,5.136781215667725,8.342021942138672,0.2532469928264618
1788107470118622000,9.1116220703125,5.096357822418213,8.367263793945312,0.2368140071630478
1788107470128720600,9.121720703125,5.069190979003906,8.383987426757812,0.2282399982213974
1788107470138810400,9.131810302734374,5.059804916381836,8.389424324035645,0.2364400029182434
1788107470148911600,9.14191162109375,5.079881191253662,8.376260757446289,0.2702629864215851
1788107470158995700,9.15199560546875,5.1409759521484375,8.336873054504395,0.3270210027694702
1788107470169095000,9.162094970703125,5.2447829246521,8.268974304199219,0.39531901478767395
1788107470179180000,9.172179931640626,5.381190776824951,8.17715072631836,0.4657920002937317
1788107470189267700,9.182267822265626,5.5342512130737305,8.070070266723633,0.534820020198822
1788107470199357700,9.192357666015624,5.68494987487793,7.959610939025879,0.6049259901046753
1788107470209448200,9.2024482421875,5.817049026489258,7.857257843017578,0.6822519898414612
1788107470219533000,9.212532958984376,5.917636871337891,7.7740092277526855,0.7657189965248108
1788107470229628400,9.22262841796875,5.985246181488037,7.712784767150879,0.8542739748954773
1788107470239719400,9.232719482421874,6.030661106109619,7.666441917419434,0.946986973285675
1788107470249810400,9.242810546875,6.063343048095703,7.628896236419678,1.0371999740600586
1788107470259895800,9.252895751953124,6.088132858276367,7.597095966339111,1.1219780445098877
1788107470269991400,9.262991455078126,6.10867977142334,7.5685319900512695,1.2005590200424194
1788107470280081200,9.2730810546875,6.124179840087891,7.544034957885742,1.27354896068573
1788107470290174200,9.28317431640625,6.134358882904053,7.523624897003174,1.3433749675750732
1788107470300264200,9.29326416015625,6.137946128845215,7.5088701248168945,1.4080239534378052
1788107470310358800,9.30335888671875,6.132513999938965,7.502469062805176,1.4646589756011963
1788107470320449500,9.313449462890626,6.115795135498047,7.50620698928833,1.5145570039749146
1788107470330550300,9.32355029296875,6.086760997772217,7.520298957824707,1.5609179735183716
1788107470340632000,9.333632080078125,6.047514915466309,7.542568206787109,1.6053739786148071
1788107470350716700,9.343716552734374,6.0009589195251465,7.570700168609619,1.6471049785614014
1788107470360801500,9.353801513671876,5.950229167938232,7.602694988250732,1.683398962020874
1788107470370891300,9.363891357421876,5.8988189697265625,7.636159896850586,1.7125910520553589
1788107470380978400,9.373978515625,5.851044178009033,7.66816520690918,1.7333699464797974
1788107470391069700,9.384069580078124,5.810892105102539,7.696342945098877,1.7435230016708374
1788107470401158100,9.394158203125,5.779905796051025,7.719689846038818,1.7432960271835327
1788107470411252000,9.404251953125,5.755691051483154,7.739723205566406,1.734557032585144
1788107470421329000,9.414328857421875,5.732813835144043,7.759745121002197,1.7208189964294434
1788107470431418000,9.424418212890625,5.70911979675293,7.780500888824463,1.7057950496673584
1788107470441504000,9.43450390625,5.68271017074585,7.803102016448975,1.69069504737854
1788107470451600600,9.4446005859375,5.652306079864502,7.8282928466796875,1.676103949546814
1788107470461691000,9.45469091796875,5.617504119873047,7.856505870819092,1.6610130071640015
1788107470471778600,9.464778564453125,5.579953193664551,7.886778831481934,1.6440370082855225
1788107470481862400,9.4748623046875,5.542704105377197,7.917415142059326,1.6226309537887573
1788107470491951900,9.484951904296874,5.508528232574463,7.946366786956787,1.5973080396652222
1788107470502038000,9.4950380859375,5.47978401184082,7.971789836883545,1.5692520141601562
1788107470512127500,9.50512744140625,5.458454132080078,7.99196720123291,1.5406969785690308
1788107470522217000,9.515217041015624,5.445979118347168,8.006060600280762,1.5113860368728638
1788107470532310300,9.525310302734376,5.439912796020508,8.0161771774292,1.479261040687561
1788107470542400300,9.535400146484376,5.437675952911377,8.024170875549316,1.4437270164489746
1788107470552492800,9.545492919921875,5.435760021209717,8.031570434570312,1.4093949794769287
1788107470562576000,9.555575927734376,5.430890083312988,8.039767265319824,1.3811570405960083
1788107470572666000,9.565666015625,5.420760154724121,8.049873352050781,1.3619489669799805
1788107470582753300,9.575753173828126,5.403103828430176,8.063154220581055,1.3535159826278687
1788107470592848100,9.58584814453125,5.385279178619385,8.074263572692871,1.3583070039749146
1788107470602933800,9.595933837890625,5.37875509262085,8.07512378692627,1.3788950443267822
1788107470613029400,9.606029296875,5.392937183380127,8.059318542480469,1.4154679775238037
1788107470623114500,9.616114501953126,5.429190158843994,8.027277946472168,1.458333969116211
1788107470633209300,9.626209228515625,5.481941223144531,7.983570098876953,1.5003019571304321
1788107470643302000,9.636302001953124,5.5374908447265625,7.937423229217529,1.5406299829483032
1788107470653393700,9.6463935546875,5.58438777923584,7.897761821746826,1.574802041053772
1788107470663484200,9.656484130859376,5.616311073303223,7.870175838470459,1.599195957183838
1788107470673570800,9.66657080078125,5.638500213623047,7.848810195922852,1.625857949256897
1788107470683655400,9.676655517578125,5.673174858093262,7.815087795257568,1.6671899557113647
1788107470693748000,9.686748046875,5.739189147949219,7.757328033447266,1.71042001247406
1788107470703834000,9.696834228515625,5.841038227081299,7.676197052001953,1.7315419912338257
1788107470713924600,9.706924560546875,5.98128604888916,7.570919990539551,1.7162200212478638
1788107470724006700,9.717006591796874,6.155933856964111,7.442123889923096,1.6611080169677734
1788107470734098400,9.727098388671875,6.3451948165893555,7.29987096786499,1.5780960321426392
1788107470744183000,9.73718310546875,6.5223259925842285,7.161426067352295,1.4876970052719116
1788107470754270200,9.747270263671876,6.664154052734375,7.045975208282471,1.4082889556884766
1788107470764361200,9.757361328125,6.753460884094238,6.971938133239746,1.3501379489898682
1788107470774448600,9.76744873046875,6.785733222961426,6.9465131759643555,1.3190300464630127
1788107470784535600,9.77753564453125,6.7665510177612305,6.9658589363098145,1.3155230283737183
1788107470794630000,9.7876298828125,6.707540988922119,7.019075870513916,1.334733009338379
1788107470804716500,9.797716552734375,6.623542785644531,7.091485977172852,1.3709429502487183
1788107470814811000,9.807810791015624,6.533091068267822,7.165809154510498,1.4177240133285522
1788107470824897800,9.817897705078124,6.4555888175964355,7.226552963256836,1.4636540412902832
1788107470835000000,9.828,6.402214050292969,7.266696929931641,1.4989240169525146
1788107470845077800,9.838077880859375,6.374420166015625,7.28568696975708,1.5249650478363037
1788107470855169500,9.84816943359375,6.369215965270996,7.285918235778809,1.545462965965271
1788107470865244200,9.858244140625,6.380654811859131,7.272027015686035,1.5636030435562134
1788107470875336400,9.86833642578125,6.400139808654785,7.250850200653076,1.582211971282959
1788107470885426000,9.878426025390626,6.4197258949279785,7.229287147521973,1.601415991783142
1788107470895524900,9.88852490234375,6.434123992919922,7.212512969970703,1.6191649436950684
1788107470905614800,9.89861474609375,6.439459800720215,7.203993797302246,1.6357920169830322
1788107470915721000,9.908720947265625,6.433516025543213,7.206161022186279,1.6495720148086548
1788107470925808000,9.91880810546875,6.417757034301758,7.217337131500244,1.6620539426803589
1788107470935911400,9.928911376953126,6.395689010620117,7.233291149139404,1.6777069568634033
1788107470945995300,9.938995361328125,6.370613098144531,7.251306056976318,1.6952389478683472
1788107470956089900,9.94908984375,6.346488952636719,7.2678141593933105,1.7149120569229126
1788107470966172400,9.95917236328125,6.327610015869141,7.278387069702148,1.7396700382232666
1788107470976266800,9.969266845703125,6.315968990325928,7.283307075500488,1.7612429857254028
1788107470986354200,9.979354248046874,6.313697814941406,7.2815470695495605,1.776581048965454
1788107470996446200,9.9894462890625,6.320778846740723,7.273115158081055,1.7859220504760742
1788107471006525400,9.999525390625,6.335166931152344,7.25960111618042,1.7899260520935059
1788107471016618000,10.009617919921874,6.353662967681885,7.242792129516602,1.7924519777297974
1788107471026702300,10.019702392578125,6.37235689163208,7.225916862487793,1.7941969633102417
1788107471036787500,10.029787353515625,6.390015125274658,7.210349082946777,1.7940419912338257
1788107471046875400,10.03987548828125,6.406494140625,7.196009159088135,1.7928329706192017
1788107471056965600,10.049965576171875,6.420450210571289,7.184363842010498,1.7896159887313843
1788107471067047200,10.060047119140625,6.4305419921875,7.176535129547119,1.784796953201294
1788107471077134800,10.070134765625,6.435898780822754,7.173449993133545,1.7778700590133667
1788107471087215400,10.08021533203125,6.434642791748047,7.176558017730713,1.7698570489883423
1788107471097305900,10.090305908203124,6.4264068603515625,7.185429096221924,1.7637759447097778
1788107471107390000,10.100389892578125,6.413045883178711,7.198191165924072,1.760354995727539
1788107471117482500,10.110482421875,6.396450042724609,7.212756156921387,1.76112699508667
1788107471127559400,10.120559326171875,6.377626895904541,7.227816104888916,1.7676589488983154
1788107471137647900,10.13064794921875,6.357809066772461,7.242222785949707,1.7800209522247314
1788107471147735300,10.1407353515625,6.338720798492432,7.254967212677002,1.7961349487304688
1788107471157824000,10.150823974609375,6.322587013244629,7.265315055847168,1.8110849857330322
1788107471167906600,10.160906494140624,6.310433864593506,7.272696018218994,1.823820948600769
1788107471177990000,10.170989990234375,6.3022780418396,7.277377128601074,1.8333230018615723
1788107471188066300,10.18106640625,6.298155784606934,7.278862953186035,1.84158194065094
1788107471198156000,10.191156005859375,6.298123836517334,7.276537895202637,1.8508540391921997
1788107471208235000,10.201235107421875,6.300867080688477,7.27185583114624,1.859889030456543
1788107471218311000,10.211310791015626,6.304893970489502,7.265581130981445,1.8707280158996582
1788107471228398600,10.221398681640625,6.310058116912842,7.257360935211182,1.8851699829101562
1788107471238487000,10.231487060546876,6.317422866821289,7.246983051300049,1.9003750085830688
1788107471248567800,10.24156787109375,6.328918933868408,7.233191967010498,1.9146089553833008
1788107471258656000,10.251656005859376,6.34626579284668,7.214712142944336,1.9268670082092285
1788107471268746200,10.261746337890624,6.366812229156494,7.195249080657959,1.9318649768829346
1788107471278835500,10.27183544921875,6.387969970703125,7.1767048835754395,1.9309849739074707
1788107471288926200,10.28192626953125,6.407851219177246,7.1596832275390625,1.9283039569854736
1788107471299021000,10.29202099609375,6.425088882446289,7.144454002380371,1.9274389743804932
1788107471309115400,10.302115478515624,6.4380950927734375,7.132162094116211,1.9295660257339478
1788107471319197400,10.312197509765625,6.4454569816589355,7.124794006347656,1.9321980476379395
1788107471329279700,10.32227978515625,6.447065830230713,7.123384952545166,1.9320369958877563
1788107471339377000,10.332376953125,6.444665908813477,7.126245021820068,1.929487943649292
1788107471349474600,10.342474609375,6.440249919891357,7.130974769592285,1.9267539978027344
1788107471359554000,10.352553955078125,6.437189102172852,7.1338701248168945,1.926265001296997
1788107471369645000,10.36264501953125,6.438162803649902,7.133062839508057,1.9260040521621704
1788107471379736000,10.372736083984375,6.443500995635986,7.129247188568115,1.9222830533981323
1788107471389828400,10.382828369140626,6.4536871910095215,7.121956825256348,1.9151149988174438
1788107471399914000,10.3929140625,6.46592903137207,7.113142967224121,1.9065580368041992
1788107471410001200,10.403001220703125,6.4781389236450195,7.103422164916992,1.9013309478759766
1788107471420091600,10.413091552734375,6.49067497253418,7.092466831207275,1.8994829654693604
1788107471430180900,10.423180908203125,6.503594875335693,7.08160400390625,1.8958239555358887
1788107471440267000,10.43326708984375,6.516007900238037,7.071710109710693,1.8901220560073853
1788107471450354000,10.44335400390625,6.527120113372803,7.063200950622559,1.8836029767990112
1788107471460437800,10.453437744140626,6.536200046539307,7.056021213531494,1.8790199756622314
1788107471470525700,10.463525634765626,6.541833877563477,7.051177978515625,1.8775889873504639
1788107471480617000,10.473616943359374,6.54083776473999,7.0518388748168945,1.8785649538040161
1788107471490703400,10.483703369140626,6.531044006347656,7.0603132247924805,1.880797028541565
1788107471500789200,10.493789306640625,6.514029026031494,7.075656890869141,1.8821539878845215
1788107471510876400,10.50387646484375,6.493032932281494,7.09452486038208,1.8836840391159058
1788107471520962300,10.51396240234375,6.47235107421875,7.112345218658447,1.887637972831726
1788107471531053300,10.52405322265625,6.454269886016846,7.127777099609375,1.8913429975509644
1788107471541137700,10.5341376953125,6.44031286239624,7.139886856079102,1.8932360410690308
1788107471551229000,10.54422900390625,6.430669784545898,7.149427890777588,1.890015959739685
1788107471561315000,10.554315185546875,6.424172878265381,7.158061981201172,1.8794039487838745
1788107471571406000,10.564406005859375,6.41910982131958,7.166187763214111,1.8656820058822632
1788107471581496600,10.57449658203125,6.414709091186523,7.173350811004639,1.8532559871673584
1788107471591583700,10.584583740234375,6.4110212326049805,7.178977012634277,1.8442130088806152
1788107471601663500,10.59466357421875,6.407823085784912,7.18297004699707,1.8397639989852905
1788107471611756000,10.604756103515625,6.404047012329102,7.186648845672607,1.8385640382766724
1788107471621844500,10.614844482421875,6.399849891662598,7.1901140213012695,1.8396259546279907
1788107471631937500,10.6249375,6.39650821685791,7.19331693649292,1.8387229442596436
1788107471642024000,10.63502392578125,6.395675182342529,7.1950788497924805,1.8347079753875732
1788107471652118500,10.645118408203125,6.397278785705566,7.195711135864258,1.826625943183899
1788107471662212600,10.655212646484374,6.4014739990234375,7.194994926452637,1.814708948135376
1788107471672298500,10.665298583984375,6.407430171966553,7.193357944488525,1.800117015838623
1788107471682389200,10.67538916015625,6.414609909057617,7.190552234649658,1.785709023475647
1788107471692487200,10.685487060546874,6.422770977020264,7.186418056488037,1.772976040840149
1788107471702580200,10.695580322265625,6.43173885345459,7.181491851806641,1.7603670358657837
1788107471712671200,10.705671142578124,6.441926956176758,7.175755023956299,1.746461033821106
1788107471722747000,10.715746826171875,6.453869819641113,7.168882846832275,1.7304960489273071
1788107471732837400,10.72583740234375,6.467845916748047,7.160467147827148,1.7130869626998901
1788107471742914600,10.73591455078125,6.48435115814209,7.149910926818848,1.6946690082550049
1788107471753008400,10.74600830078125,6.502991199493408,7.137354850769043,1.6760720014572144
1788107471763099400,10.756099365234375,6.522892951965332,7.123578071594238,1.6572459936141968
1788107471773194200,10.7661943359375,6.544051170349121,7.108598232269287,1.638064980506897
1788107471783274200,10.776274169921875,6.5654168128967285,7.093754768371582,1.616760015487671
1788107471793365000,10.786364990234375,6.587057113647461,7.078827857971191,1.5940120220184326
1788107471803450600,10.79645068359375,6.608163833618164,7.064000129699707,1.5722860097885132
1788107471813543000,10.80654296875,6.629051208496094,7.048669815063477,1.5530420541763306
1788107471823668500,10.81666845703125,6.649557113647461,7.032983779907227,1.5363810062408447
1788107471833761800,10.82676171875,6.6713409423828125,7.015754222869873,1.5206730365753174
1788107471843850800,10.836850830078125,6.693379878997803,6.998370170593262,1.5038299560546875
1788107471853946600,10.846946533203125,6.715683937072754,6.9809417724609375,1.4852770566940308
1788107471864024300,10.8570244140625,6.738297939300537,6.963499069213867,1.4645800590515137
1788107471874116400,10.867116455078126,6.760587215423584,6.946243762969971,1.4436639547348022
1788107471884206000,10.8772060546875,6.782334804534912,6.92860221862793,1.4263299703598022
1788107471894295600,10.887295654296874,6.80308723449707,6.911125183105469,1.4122270345687866
1788107471904393000,10.89739306640625,6.824192047119141,6.892395973205566,1.401893973350525
1788107471914481400,10.9074814453125,6.846085071563721,6.87238883972168,1.3933470249176025
1788107471924574700,10.91757470703125,6.869656085968018,6.8505377769470215,1.3848960399627686
1788107471934665000,10.9276650390625,6.8952460289001465,6.8262248039245605,1.3777680397033691
1788107471944743400,10.937743408203126,6.922611236572266,6.799570083618164,1.3723440170288086
1788107471954834700,10.947834716796875,6.949053764343262,6.773583889007568,1.367182970046997
1788107471964920800,10.9579208984375,6.972415924072266,6.751317977905273,1.3583589792251587
1788107471975014000,10.968013916015625,6.9899067878723145,6.736321926116943,1.3428469896316528
1788107471985102600,10.9781025390625,7.000333786010742,6.729435920715332,1.3228800296783447
1788107471995192800,10.98819287109375,7.004365921020508,6.728917121887207,1.3040529489517212
1788107472005277000,10.99827685546875,7.005259990692139,6.7309088706970215,1.2888599634170532
1788107472015360300,11.0083603515625,7.005523204803467,6.733121871948242,1.2758229970932007
1788107472035540700,11.028540771484375,7.010117053985596,6.731748104095459,1.2577320337295532
1788107472045630500,11.03863037109375,7.0176568031311035,6.724880218505859,1.2523930072784424
1788107472055724800,11.048724853515624,7.029047966003418,6.714282035827637,1.2453420162200928
1788107472065820200,11.058820068359376,7.043288230895996,6.7014570236206055,1.2339290380477905
1788107472075911400,11.068911376953125,7.058463096618652,6.688216209411621,1.2189619541168213
1788107472086001400,11.07900146484375,7.07322883605957,6.675685882568359,1.2019109725952148
1788107472096104200,11.089104248046874,7.086267948150635,6.665092945098877,1.1838070154190063
1788107472106195700,11.09919580078125,7.096762180328369,6.656676769256592,1.1681649684906006
1788107472116287000,11.109286865234376,7.105249881744385,6.649965763092041,1.1546920537948608
1788107472126375200,11.119375244140626,7.112189769744873,6.644367218017578,1.1442010402679443
1788107472136468700,11.12946875,7.118415832519531,6.639644145965576,1.1328339576721191
1788107472146552000,11.139552001953126,7.124386787414551,6.635706901550293,1.1182550191879272
1788107472156636400,11.149636474609375,7.129924774169922,6.63253116607666,1.10167396068573
1788107472166723000,11.15972314453125,7.136055946350098,6.628758907318115,1.0845630168914795
1788107472176808200,11.16980810546875,7.141322135925293,6.625847816467285,1.0675530433654785
1788107472186890800,11.179890869140625,7.143252849578857,6.626082897186279,1.0530630350112915
1788107472196976400,11.189976318359374,7.14107608795166,6.630070209503174,1.0426889657974243
1788107472207072000,11.200072021484376,7.135435104370117,6.6371002197265625,1.0365819931030273
1788107472217167000,11.2101669921875,7.1279730796813965,6.645617961883545,1.0333130359649658
1788107472227247000,11.2202470703125,7.119029998779297,6.655663013458252,1.030303955078125
1788107472237325300,11.2303251953125,7.109798908233643,6.666315078735352,1.0251940488815308
1788107472247417900,11.24041796875,7.101694107055664,6.67606782913208,1.0178769826889038
1788107472257505300,11.25050537109375,7.094857215881348,6.684560775756836,1.0097730159759521
1788107472267597300,11.260597412109375,7.089939117431641,6.690796852111816,1.0030180215835571
1788107472277681200,11.27068115234375,7.0874528884887695,6.694461822509766,0.9960790276527405
1788107472287765000,11.280764892578125,7.085906028747559,6.697178840637207,0.9888120293617249
1788107472297848000,11.29084814453125,7.083242893218994,6.701053142547607,0.9816089868545532
1788107472307928800,11.3009287109375,7.079623222351074,6.705851078033447,0.974901020526886
1788107472318013000,11.311012939453125,7.074978828430176,6.711489200592041,0.9698489904403687
1788107472328105500,11.32110546875,7.070312023162842,6.71659517288208,0.9685140252113342
1788107472338194000,11.33119384765625,7.067237854003906,6.719462871551514,0.9710540175437927
1788107472348282600,11.34128271484375,7.06633996963501,6.719720840454102,0.9758129715919495
1788107472358369500,11.35136962890625,7.068007946014404,6.717493057250977,0.9790729880332947
1788107472368466400,11.361466552734376,7.072288990020752,6.712861061096191,0.9798979759216309
1788107472378553600,11.3715537109375,7.07827091217041,6.706639766693115,0.9793180227279663
1788107472388649200,11.381649169921875,7.084999084472656,6.699718952178955,0.9780460000038147
1788107472398730200,11.391730224609375,7.091501235961914,6.692724227905273,0.9787920117378235
1788107472408830000,11.401829833984374,7.0966620445251465,6.687077045440674,0.9799950122833252
1788107472418911500,11.411911376953125,7.099221229553223,6.684308052062988,0.9803749918937683
1788107472439086800,11.4320869140625,7.0957770347595215,6.688276767730713,0.9781919717788696
1788107472449177900,11.442177734375,7.091954231262207,6.692461967468262,0.9773079752922058
1788107472469367800,11.462367919921874,7.085760116577148,6.698429107666016,0.9813560247421265
1788107472479454200,11.4724541015625,7.084478855133057,6.699440956115723,0.983680009841919
1788107472489547800,11.4825478515625,7.084045886993408,6.69976282119751,0.9846270084381104
1788107472499632400,11.49263232421875,7.0852861404418945,6.698300838470459,0.985630989074707
1788107472509728000,11.50272802734375,7.0875067710876465,6.695671081542969,0.9875079989433289
1788107472519808500,11.51280859375,7.090333938598633,6.692333221435547,0.9898430109024048
1788107472529900000,11.522900146484375,7.093660831451416,6.688490867614746,0.9919869899749756
1788107472539984600,11.532984619140626,7.096179962158203,6.685108184814453,0.9967550039291382
1788107472550082800,11.543082763671874,7.098775863647461,6.681309223175049,1.0037469863891602
1788107472560163600,11.55316357421875,7.0995941162109375,6.679411888122559,1.0105489492416382
1788107472570253000,11.563253173828125,7.098103046417236,6.680315017700195,1.0150680541992188
1788107472580326400,11.573326416015625,7.092939853668213,6.684996128082275,1.0203200578689575
1788107472590425600,11.583425537109376,7.083054065704346,6.69454288482666,1.0263659954071045
1788107472600516400,11.593516357421874,7.067500114440918,6.710227012634277,1.0311559438705444
1788107472610604800,11.603604736328125,7.044933795928955,6.733730792999268,1.0323760509490967
1788107472620684500,11.6136845703125,7.0162529945373535,6.763393878936768,1.0337820053100586
1788107472630771200,11.623771240234374,6.983588218688965,6.796229839324951,1.0395610332489014
1788107472640857300,11.633857421875,6.94962215423584,6.82942008972168,1.0496660470962524
1788107472650951400,11.643951416015625,6.917364120483398,6.860270977020264,1.0614919662475586
1788107472661034500,11.654034423828126,6.88897705078125,6.886752128601074,1.0745550394058228
1788107472671130600,11.664130615234376,6.865602016448975,6.908063888549805,1.0872639417648315
1788107472681217300,11.67421728515625,6.847990036010742,6.924016952514648,1.0968259572982788
1788107472691303200,11.68430322265625,6.8352952003479,6.935577869415283,1.1029540300369263
1788107472701388300,11.69438818359375,6.824892997741699,6.94547176361084,1.1051150560379028
1788107472711473400,11.704473388671875,6.815489768981934,6.954616069793701,1.1056159734725952
1788107472721570800,11.71457080078125,6.806070804595947,6.9639410972595215,1.1049489974975586
1788107472731660800,11.724660888671876,6.79633092880249,6.97345495223999,1.1049079895019531
1788107472741746200,11.73474609375,6.784921169281006,6.984365940093994,1.1061140298843384
1788107472751840000,11.744840087890625,6.771953105926514,6.996270179748535,1.110329031944275
1788107472761926400,11.754926513671874,6.758443832397461,7.008432865142822,1.1159249544143677
1788107472772032800,11.76503271484375,6.7457170486450195,7.0199761390686035,1.1203839778900146
1788107472782116900,11.775116943359375,6.733351230621338,7.031642913818359,1.1215870380401611
1788107472792214800,11.78521484375,6.720104217529297,7.045334815979004,1.1150970458984375
1788107472802297300,11.79529736328125,6.704723834991455,7.062078952789307,1.1016939878463745
1788107472812388900,11.805388916015625,6.687222003936768,7.081050872802734,1.0862079858779907
1788107472822475500,11.8154755859375,6.666985988616943,7.102129936218262,1.0728490352630615
1788107472832572400,11.825572509765625,6.645042896270752,7.124074935913086,1.0634620189666748
1788107472842655200,11.8356552734375,6.6219000816345215,7.146243095397949,1.0590840578079224
1788107472852743400,11.845743408203125,6.597890853881836,7.168641090393066,1.0575660467147827
1788107472862824700,11.85582470703125,6.575689792633057,7.189174175262451,1.0564279556274414
1788107472872914000,11.865913818359376,6.5572309494018555,7.2066497802734375,1.0521260499954224
1788107472883001600,11.876001708984376,6.543982028961182,7.219882011413574,1.0438350439071655
1788107472893091000,11.886091064453124,6.536649227142334,7.228285789489746,1.0315519571304321
1788107472903177000,11.896177001953125,6.5352559089660645,7.2311692237854,1.0201400518417358
1788107472913265700,11.906265625,6.538025856018066,7.229584217071533,1.0135639905929565
1788107472923351000,11.91635107421875,6.543259143829346,7.22498083114624,1.012634038925171
1788107472933436700,11.926436767578124,6.550100803375244,7.218443870544434,1.015017032623291
1788107472943520300,11.936520263671875,6.557450771331787,7.211484909057617,1.017029047012329
1788107472953609200,11.946609130859375,6.565884113311768,7.203861236572266,1.0166410207748413
1788107472963695400,11.9566953125,6.5760040283203125,7.195160865783691,1.0128200054168701
1788107472973782300,11.9667822265625,6.587614059448242,7.185422897338867,1.0064879655838013
1788107472983867600,11.97686767578125,6.599160194396973,7.175713062286377,1.0001089572906494
1788107472993952300,11.9869521484375,6.609195232391357,7.167360782623291,0.9936950206756592
1788107473004045300,11.99704541015625,6.615726947784424,7.162259101867676,0.9870060086250305
1788107473014139400,12.007139404296876,6.6182332038879395,7.160702228546143,0.9814950227737427
1788107473024225500,12.0172255859375,6.61686897277832,7.162075042724609,0.9806830286979675
1788107473034310400,12.027310302734374,6.613189220428467,7.164723873138428,0.98614901304245
1788107473044399000,12.037399169921875,6.609132766723633,7.167123794555664,0.9958130121231079
1788107473054492200,12.0474921875,6.605330944061279,7.169270992279053,1.0055919885635376
1788107473064587800,12.057587890625,6.601131916046143,7.172675132751465,1.0088590383529663
1788107473074677500,12.067677490234376,6.59377908706665,7.180016040802002,1.0046889781951904
1788107473084761300,12.07776123046875,6.585404872894287,7.18842077255249,0.9995089769363403
1788107473094858500,12.0878583984375,6.576501846313477,7.196609020233154,0.999206006526947
1788107473104938800,12.097938720703125,6.565624237060547,7.205833911895752,1.0042619705200195
1788107473115028700,12.10802880859375,6.551967144012451,7.217042922973633,1.0129059553146362
1788107473145292500,12.13829248046875,6.506189823150635,7.256219863891602,1.0279990434646606
1788107473155395300,12.148395263671874,6.490874767303467,7.270659923553467,1.0227830410003662
1788107473165485600,12.158485595703125,6.475549221038818,7.285370826721191,1.0151749849319458
1788107473175587600,12.168587646484376,6.458788871765137,7.301305770874023,1.0074529647827148
1788107473185674000,12.178674072265625,6.438746929168701,7.320394992828369,0.9971839785575867
1788107473195769900,12.188769775390625,6.414585113525391,7.3438920974731445,0.9799739718437195
1788107473205857000,12.19885693359375,6.387815952301025,7.369743824005127,0.9605439901351929
1788107473215947500,12.208947509765625,6.361952781677246,7.394136905670166,0.944625973701477
1788107473226034200,12.2190341796875,6.3405070304870605,7.413960933685303,0.9333639740943909
1788107473236132400,12.22913232421875,6.32618522644043,7.427095890045166,0.9261029958724976
1788107473246217200,12.23921728515625,6.322035789489746,7.431026935577393,0.9228640198707581
1788107473256308000,12.249307861328125,6.327179908752441,7.427000045776367,0.9200419783592224
1788107473266399000,12.25939892578125,6.34063720703125,7.4161529541015625,0.9148730039596558
1788107473276489700,12.26948974609375,6.361104965209961,7.399808883666992,0.9050469994544983
1788107473286575000,12.2795751953125,6.386532783508301,7.379533767700195,0.8914420008659363
1788107473296670200,12.289670166015625,6.415660858154297,7.356081962585449,0.8759940266609192
1788107473306750000,12.29975,6.446242809295654,7.331374168395996,0.8583920001983643
1788107473316840000,12.30983984375,6.475527763366699,7.307854175567627,0.8383510112762451
1788107473326923300,12.31992333984375,6.501614093780518,7.2868428230285645,0.819100022315979
1788107473337014800,12.330014892578125,6.523273944854736,7.269443035125732,0.8013010025024414
1788107473347099100,12.34009912109375,6.540040969848633,7.256162166595459,0.7848420143127441
1788107473357191200,12.350191162109375,6.551112174987793,7.247460842132568,0.7727929949760437
1788107473367272400,12.3602724609375,6.558692932128906,7.2412109375,0.7670729756355286
1788107473377366300,12.3703662109375,6.567134857177734,7.233640193939209,0.7662929892539978
1788107473387451600,12.38045166015625,6.579142093658447,7.222684860229492,0.7665969729423523
1788107473397532000,12.390531982421875,6.5941290855407715,7.209068775177002,0.7660290002822876
1788107473407616300,12.4006162109375,6.610107898712158,7.195009231567383,0.7604460120201111
1788107473417694200,12.410694091796875,6.623332977294922,7.184299945831299,0.7465329766273499
1788107473427776300,12.4207763671875,6.631094932556152,7.178743839263916,0.7309060096740723
1788107473437866000,12.430865966796874,6.632147789001465,7.178969860076904,0.7190260291099548
1788107473447945000,12.440945068359374,6.626267910003662,7.185033798217773,0.7126529812812805
1788107473458023400,12.4510234375,6.613836765289307,7.196433067321777,0.7130950093269348
1788107473468105200,12.461105224609375,6.595836162567139,7.212344169616699,0.7190529704093933
1788107473478194000,12.47119384765625,6.574059963226318,7.231489181518555,0.7261660099029541
1788107473488262700,12.4812626953125,6.549948215484619,7.252805233001709,0.7314419746398926
1788107473498347500,12.491347412109375,6.5257391929626465,7.27437686920166,0.7335600256919861
1788107473508441900,12.50144189453125,6.503223896026611,7.294696807861328,0.7317500114440918
1788107473518528000,12.511528076171874,6.483320236206055,7.31285285949707,0.7271720170974731
1788107473528618800,12.52161865234375,6.464931011199951,7.329722881317139,0.7209870219230652
1788107473538698800,12.53169873046875,6.447004795074463,7.346127986907959,0.7145519852638245
1788107473548781600,12.541781494140626,6.429218769073486,7.362102031707764,0.7103379964828491
1788107473558866400,12.551866455078125,6.411818027496338,7.377437114715576,0.7085390090942383
1788107473568960000,12.5619599609375,6.396317005157471,7.39072322845459,0.7101979851722717
1788107473579055400,12.572055419921876,6.383817195892334,7.401136875152588,0.7141410112380981
1788107473589144300,12.582144287109376,6.374704837799072,7.408614158630371,0.7180259823799133
1788107473599232800,12.592232666015626,6.368693828582764,7.41356897354126,0.7202579975128174
1788107473609330000,12.602329833984374,6.365606784820557,7.4162797927856445,0.7195929884910583
1788107473619420200,12.612420166015625,6.364654064178467,7.417440891265869,0.7160519957542419
1788107473629513200,12.62251318359375,6.365322113037109,7.417366981506348,0.7108569741249084
1788107473639608800,12.63260888671875,6.367196083068848,7.416134834289551,0.7069370150566101
1788107473649700600,12.64270068359375,6.368926048278809,7.4147868156433105,0.7054679989814758
1788107473659788300,12.652788330078126,6.368358135223389,7.415555953979492,0.7025200128555298
1788107473669878300,12.662878173828124,6.363612174987793,7.420170783996582,0.6967719793319702
1788107473679970300,12.67297021484375,6.354560852050781,7.428678035736084,0.6886799931526184
1788107473690062000,12.68306201171875,6.343955039978027,7.438351154327393,0.6820240020751953
1788107473700155000,12.69315478515625,6.335488796234131,7.445793151855469,0.6795039772987366
1788107473710241800,12.70324169921875,6.330359935760498,7.450223922729492,0.6787629723548889
1788107473720335000,12.713335205078126,6.328153133392334,7.452218055725098,0.6774430274963379
1788107473730430500,12.723430419921876,6.327639102935791,7.45302677154541,0.6733260154724121
1788107473740526800,12.73352685546875,6.327291011810303,7.453854084014893,0.6674450039863586
1788107473750618000,12.7436181640625,6.327146053314209,7.454380035400391,0.6628919839859009
1788107473760707600,12.75370751953125,6.327377796173096,7.454301834106445,0.6615710258483887
1788107473770794500,12.76379443359375,6.326454162597656,7.4551520347595215,0.6607829928398132
1788107473780891400,12.773891357421874,6.324495792388916,7.456934928894043,0.6594439744949341
1788107473790976300,12.783976318359375,6.322138786315918,7.458881855010986,0.6600090265274048
1788107473801073200,12.7940732421875,6.320281982421875,7.459938049316406,0.6658610105514526
1788107473811162400,12.804162353515625,6.320000171661377,7.458978176116943,0.6791679859161377
1788107473821247000,12.8142470703125,6.322522163391113,7.454949855804443,0.6996250152587891
1788107473831337200,12.824337158203125,6.3292927742004395,7.446396827697754,0.7288280129432678
1788107473841426200,12.83442626953125,6.34083890914917,7.433191776275635,0.7624949812889099
1788107473851516200,12.84451611328125,6.35630989074707,7.4164228439331055,0.7962080240249634
1788107473861601000,12.85460107421875,6.373770236968994,7.398219108581543,0.8254680037498474
1788107473871694800,12.86469482421875,6.3906731605529785,7.380990982055664,0.8486949801445007
1788107473881779500,12.874779541015625,6.404216766357422,7.366991996765137,0.8680400252342224
1788107473891871500,12.88487158203125,6.411122798919678,7.359012126922607,0.884548008441925
1788107473901951500,12.894951416015624,6.407577991485596,7.360326766967773,0.8991659879684448
1788107473912043500,12.90504345703125,6.393150806427002,7.371064186096191,0.9138190150260925
1788107473922135000,12.915135009765624,6.36945915222168,7.3894572257995605,0.9305329918861389
1788107473932232000,12.92523193359375,6.3399271965026855,7.412445068359375,0.9491980075836182
1788107473942320000,12.935320068359376,6.3078532218933105,7.437373161315918,0.9677309989929199
1788107473952412400,12.945412353515625,6.275692939758301,7.462168216705322,0.9857439994812012
1788107473962497000,12.9554970703125,6.244536876678467,7.48620080947876,1.0012760162353516
1788107473972607700,12.965607666015625,6.212996959686279,7.5111308097839355,1.0107179880142212
1788107473982693000,12.975693115234375,6.17915678024292,7.538747787475586,1.0125900506973267
1788107473992780800,12.98578076171875,6.140807151794434,7.570774078369141,1.0068999528884888
1788107474002865000,12.995864990234375,6.099178791046143,7.605652809143066,0.9970319867134094
1788107474012952300,13.005952392578125,6.058675765991211,7.638954162597656,0.9893479943275452
1788107474023034600,13.01603466796875,6.023975849151611,7.666513919830322,0.9880430102348328
1788107474033141000,13.02614111328125,5.997224807739258,7.6865949630737305,0.9947699904441833
1788107474043227400,13.036227294921876,5.978847026824951,7.698907852172852,1.0100480318069458
1788107474053315600,13.046315673828126,5.966897010803223,7.705776214599609,1.0281699895858765
1788107474063401000,13.05640087890625,5.959565162658691,7.709456920623779,1.0430059432983398
1788107474073493500,13.066493408203126,5.954981803894043,7.7121148109436035,1.049507975578308
1788107474083582200,13.076582275390624,5.953022003173828,7.714156150817871,1.0456349849700928
1788107474093672700,13.086672607421875,5.95419979095459,7.714718818664551,1.0347230434417725
1788107474103757300,13.09675732421875,5.958576202392578,7.712859153747559,1.0233169794082642
1788107474113850600,13.1068505859375,5.96559476852417,7.708150863647461,1.0178890228271484
1788107474123938800,13.116938720703125,5.973712921142578,7.701291084289551,1.0222049951553345
1788107474134045000,13.127044921875,5.982128143310547,7.693212985992432,1.0337539911270142
1788107474144122000,13.1371220703125,5.991884231567383,7.683856964111328,1.0467449426651
1788107474154213000,13.147213134765625,6.005745887756348,7.671706199645996,1.0563609600067139
1788107474164299000,13.157299072265625,6.026909828186035,7.654623031616211,1.0597649812698364
1788107474174392600,13.167392578125,6.057126998901367,7.631009101867676,1.0578019618988037
1788107474184482600,13.177482666015624,6.0952582359313965,7.601317882537842,1.0525189638137817
1788107474194576400,13.187576416015625,6.138774871826172,7.566950798034668,1.0472320318222046
1788107474204668200,13.197668212890624,6.184095859527588,7.530387878417969,1.0441160202026367
1788107474214757400,13.20775732421875,6.228384971618652,7.4935197830200195,1.046146035194397
1788107474224844800,13.2178447265625,6.268089771270752,7.45972204208374,1.050516963005066
1788107474234937900,13.227937744140625,6.299698829650879,7.432395935058594,1.0551470518112183
1788107474245028000,13.238028076171876,6.321075916290283,7.413631916046143,1.0592600107192993
1788107474255118000,13.2481181640625,6.3318610191345215,7.403628826141357,1.064797043800354
1788107474265200000,13.2582001953125,6.333858966827393,7.400778770446777,1.0727030038833618
1788107474275301000,13.268301025390626,6.325833797454834,7.406429767608643,1.0810329914093018
1788107474285389000,13.27838916015625,6.309254169464111,7.419290065765381,1.089697003364563
1788107474295484400,13.288484375,6.284979820251465,7.438934803009033,1.0960160493850708
1788107474305571600,13.298571533203125,6.254645824432373,7.464155197143555,1.0980859994888306
1788107474315658000,13.308657958984375,6.22255802154541,7.49068021774292,1.0997439622879028
1788107474325753600,13.318753662109375,6.193968772888184,7.513576030731201,1.104941964149475
1788107474335843300,13.32884326171875,6.173320770263672,7.528885841369629,1.1162480115890503
1788107474345929500,13.338929443359374,6.162565231323242,7.535480976104736,1.1310570240020752
1788107474356021500,13.349021484375,6.159107208251953,7.537024974822998,1.1395820379257202
1788107474366107100,13.359107177734375,6.159994125366211,7.536840915679932,1.1360000371932983
1788107474376200700,13.36920068359375,6.1631178855896,7.536575794219971,1.1207220554351807
