time,seconds_elapsed,z,y,x
1788107461059252000,0.052251953125,0.023237500339746475,-0.08208750188350677,0.11976250261068344
1788107461069342500,0.062342529296875,0.0170499999076128,-0.07961250096559525,0.12581250071525574
1788107461089546800,0.082546630859375,0.002474999986588955,-0.07108750194311142,0.11110000312328339
1788107461099637800,0.0926376953125,0.0037124999798834324,-0.06503749638795853,0.11481250077486038
1788107461109731000,0.10273095703125,0.002474999986588955,-0.07479999959468842,0.12333749979734421
1788107461139985400,0.1329853515625,-0.018287500366568565,-0.06984999775886536,0.19304999709129333
1788107461160160300,0.15316015625,-0.032999999821186066,-0.04661250114440918,0.25533750653266907
1788107461180310800,0.173310791015625,-0.04152499884366989,-0.04413750022649765,0.2895750105381012
1788107461190398000,0.18339794921875,-0.04152499884366989,-0.03684999793767929,0.2993375062942505
1788107461210568700,0.203568603515625,-0.03904999792575836,0.05967500060796738,0.28833749890327454
1788107461220659000,0.213658935546875,-0.037812501192092896,0.12319999933242798,0.26138749718666077
1788107461230736400,0.223736328125,-0.02928750030696392,0.179299995303154,0.22481249272823334
1788107461240826000,0.233826171875,-0.007287499960511923,0.22206249833106995,0.18081249296665192
1788107461250912300,0.243912353515625,0.0147124994546175,0.2502500116825104,0.13928750157356262
1788107461261002200,0.254002197265625,0.03671250119805336,0.2550624907016754,0.09652499854564667
1788107461271090400,0.26409033203125,0.0635249987244606,0.24296249449253082,0.054999999701976776
1788107461281175800,0.27417578125,0.08799999952316284,0.23196250200271606,0.0317624993622303
1788107461291274200,0.284274169921875,0.10628750175237656,0.21972499787807465,0.028049999848008156
1788107461311438800,0.30443896484375,0.12952500581741333,0.17572499811649323,0.018287500366568565
1788107461321523700,0.314523681640625,0.1405249983072281,0.15372499823570251,0.010999999940395355
1788107461331605500,0.32460546875,0.14657500386238098,0.1574375033378601,0.018287500366568565
1788107461341691100,0.334691162109375,0.14176249504089355,0.16224999725818634,0.030524998903274536
1788107461351774000,0.34477392578125,0.1368124932050705,0.16101250052452087,0.04028749838471413
1788107461361864200,0.3548642578125,0.13805000483989716,0.16472500562667847,0.04399999976158142
1788107461371947000,0.364947021484375,0.14409999549388885,0.1671999990940094,0.045237500220537186
1788107461382028800,0.37502880859375,0.14409999549388885,0.16472500562667847,0.04028749838471413
1788107461392123100,0.385123046875,0.14409999549388885,0.16596250236034393,0.02681249938905239
1788107461402217200,0.39521728515625,0.1405249983072281,0.17448750138282776,0.014574999921023846
1788107461412308000,0.405307861328125,0.13805000483989716,0.18177500367164612,0.0170499999076128
1788107461422391600,0.4153916015625,0.1307625025510788,0.17820000648498535,0.02928750030696392
1788107461432487000,0.42548681640625,0.12223749607801437,0.16843749582767487,0.04633750021457672
1788107461442580000,0.435580078125,0.11852499842643738,0.14396250247955322,0.047575000673532486
1788107461452662000,0.445662109375,0.11357499659061432,0.11096250265836716,0.04028749838471413
1788107461462749700,0.455749755859375,0.11233749985694885,0.07919999957084656,0.02681249938905239
1788107461472832300,0.465832275390625,0.10876250267028809,0.06696250289678574,0.00976249948143959
1788107461482922500,0.475922607421875,0.10381250083446503,0.05596249923110008,-0.01347499992698431
1788107461493008100,0.486008056640625,0.0989999994635582,0.040150001645088196,-0.03918749839067459
1788107461503095000,0.496094970703125,0.09404999762773514,0.027912499383091927,-0.06228749826550484
1788107461513181000,0.506180908203125,0.07823749631643295,0.022962499409914017,-0.07452499866485596
1788107461523273200,0.516273193359375,0.07699999958276749,0.0424874983727932,-0.08552499860525131
1788107461533362400,0.526362548828125,0.07452499866485596,0.037675000727176666,-0.10147500038146973
1788107461543456800,0.536456787109375,0.07204999774694443,0.022962499409914017,-0.10271249711513519
1788107461553543200,0.546543212890625,0.059812501072883606,0.018149999901652336,-0.06847500056028366
1788107461563634000,0.556634033203125,0.04152499884366989,0.009487500414252281,-0.020762499421834946
1788107461573726000,0.566725830078125,0.02447500079870224,-0.013612499460577965,0.023237500339746475
1788107461583810000,0.57681005859375,0.015812499448657036,-0.04661250114440918,0.06104999780654907
1788107461593900000,0.586900146484375,0.010999999940395355,-0.06861250102519989,0.08304999768733978
1788107461603984400,0.596984375,0.006049999967217445,-0.07232499867677689,0.10381250083446503
1788107461614077200,0.6070771484375,-0.0317624993622303,-0.09556250274181366,0.10628750175237656
1788107461624159700,0.61715966796875,-0.05128749832510948,-0.06132499873638153,0.12333749979734421
1788107461634250500,0.62725048828125,-0.06599999964237213,-0.03437500074505806,0.11110000312328339
1788107461644335000,0.637335205078125,-0.07947500050067902,-0.007562499959021807,0.08676250278949738
1788107461654430200,0.64743017578125,-0.08552499860525131,0.008387500420212746,0.06599999964237213
1788107461664516000,0.65751611328125,-0.08057499676942825,0.0034374999813735485,0.05004999786615372
1788107461674610000,0.66760986328125,-0.06599999964237213,-0.02956249937415123,0.028049999848008156
1788107461684701000,0.677700927734375,-0.05376249924302101,-0.030799999833106995,0.02199999988079071
1788107461694794200,0.687794189453125,-0.05623750016093254,0.02914999984204769,0.02928750030696392
1788107461704884000,0.697884033203125,-0.09281250089406967,0.15248750150203705,0.030524998903274536
1788107461714969900,0.707969970703125,-0.1685750037431717,0.20996250212192535,-0.01223750039935112
1788107461725061600,0.7180615234375,-0.21752500534057617,0.29548749327659607,-0.06104999780654907
1788107461735148300,0.728148193359375,-0.2223374992609024,0.33082500100135803,-0.09652499854564667
1788107461745242400,0.738242431640625,-0.13928750157356262,0.12925000488758087,-0.14300000667572021
1788107461755326500,0.748326416015625,-0.08304999768733978,0.1891999989748001,-0.16981250047683716
1788107461765439700,0.758439697265625,0.09404999762773514,0.07067500054836273,-0.24076250195503235
1788107461775523600,0.768523681640625,0.12581250071525574,-0.0002749999985098839,-0.36410000920295715
1788107461785612300,0.7786123046875,0.13557499647140503,-0.06132499873638153,-0.4923875033855438
1788107461795694800,0.78869482421875,0.22962500154972076,-0.19318750500679016,-0.6121500134468079
1788107461805786000,0.7987861328125,0.29438748955726624,-0.27871251106262207,-0.6914874911308289
1788107461815872000,0.8088720703125,0.3151499927043915,-0.23966249823570251,-0.7049624919891357
1788107461825957000,0.81895703125,0.3151499927043915,-0.17242500185966492,-0.669487476348877
1788107461836044500,0.82904443359375,0.282150000333786,-0.006324999965727329,-0.5974375009536743
1788107461846130400,0.83913037109375,0.26138749718666077,0.16843749582767487,-0.5314375162124634
1788107461856215300,0.84921533203125,0.21752500534057617,0.28558748960494995,-0.4801499843597412
1788107461866303700,0.8593037109375,0.17710000276565552,0.32106250524520874,-0.4349125027656555
1788107461876394800,0.869394775390625,0.1625249981880188,0.3443000018596649,-0.3713875114917755
1788107461886484500,0.879484375,0.13199999928474426,0.33082500100135803,-0.29809999465942383
1788107461896569300,0.8895693359375,0.11357499659061432,0.2465374916791916,-0.2320999950170517
1788107461906649600,0.899649658203125,0.1050499975681305,0.14643749594688416,-0.14423750340938568
1788107461916733400,0.9097333984375,0.10381250083446503,0.022962499409914017,-0.054999999701976776
1788107461926814500,0.919814453125,0.07204999774694443,-0.14190000295639038,-0.007287499960511923
1788107461946987800,0.93998779296875,0.00494999997317791,-0.1639000028371811,0.06476250290870667
1788107461957068000,0.950068115234375,0.03423750028014183,-0.13089999556541443,0.06104999780654907
1788107461967154000,0.96015380859375,0.09404999762773514,-0.12856249511241913,0.0317624993622303
1788107461977238300,0.97023828125,0.1270499974489212,-0.11261250078678131,0.006049999967217445
1788107461987321600,0.980321533203125,0.14300000667572021,-0.08937499672174454,-0.002474999986588955
1788107461997414100,0.9904140625,0.17710000276565552,-0.08689999580383301,0.0012374999932944775
1788107462007498200,1.000498291015625,0.210099995136261,-0.09184999763965607,0.007287499960511923
1788107462017580800,1.010580810546875,0.23457500338554382,-0.08084999769926071,0.02199999988079071
1788107462027665000,1.020664794921875,0.23938749730587006,-0.06984999775886536,0.03904999792575836
1788107462047836700,1.040836669921875,0.24062499403953552,-0.06861250102519989,0.02199999988079071
1788107462057927000,1.050927001953125,0.2358125001192093,-0.06613750010728836,0
1788107462078098700,1.0710986328125,0.1722874939441681,0.06201250106096268,-0.020762499421834946
1788107462088182500,1.0811826171875,0.13557499647140503,0.05472499877214432,0.004812499973922968
1788107462098274800,1.09127490234375,0.1845249980688095,0.17077499628067017,0.032999999821186066
1788107462108353500,1.101353515625,0.22110000252723694,0.20624999701976776,0.02681249938905239
1788107462118448000,1.1114482421875,0.2626250088214874,0.2563000023365021,0.00976249948143959
1788107462128546300,1.12154638671875,0.24433749914169312,0.17572499811649323,-0.045237500220537186
1788107462138636500,1.131636474609375,0.23704999685287476,0.18796250224113464,-0.042762499302625656
1788107462148716000,1.141716064453125,0.16981250047683716,0.18796250224113464,-0.0672374963760376
1788107462158813000,1.15181298828125,0.14533749222755432,0.19277499616146088,-0.057475000619888306
1788107462168898000,1.16189794921875,0.14657500386238098,0.18301250040531158,-0.04028749838471413
1788107462178991000,1.1719912109375,0.12457499653100967,0.13420000672340393,-0.032999999821186066
1788107462189076500,1.182076416015625,0.11233749985694885,0.0424874983727932,-0.0037124999798834324
1788107462199169500,1.19216943359375,0.09776250272989273,0.008387500420212746,0.07576250284910202
1788107462209254000,1.20225390625,0.03671250119805336,-0.025849999859929085,0.1625249981880188
1788107462219355000,1.21235498046875,-0.04399999976158142,-0.050324998795986176,0.2675749957561493
1788107462229446000,1.22244580078125,-0.13805000483989716,-0.12966249883174896,0.3750999867916107
1788107462239545000,1.232545166015625,-0.19910000264644623,-0.25437501072883606,0.44591251015663147
1788107462249627400,1.24262744140625,-0.21133749186992645,-0.466949999332428,0.43972501158714294
1788107462259718100,1.25271826171875,-0.19786250591278076,-0.5647125244140625,0.44591251015663147
1788107462269804300,1.26280419921875,-0.17710000276565552,-0.6672874689102173,0.4361499845981598
1788107462279897300,1.2728974609375,-0.12099999934434891,-0.7368624806404114,0.4129124879837036
1788107462289988000,1.282988037109375,-0.045237500220537186,-0.8175749778747559,0.38843750953674316
1788107462300078300,1.293078369140625,-0.01952499896287918,-0.9006249904632568,0.2870999872684479
1788107462310163000,1.303162841796875,-0.0147124994546175,-0.9824374914169312,0.20886249840259552
1788107462320253000,1.3132529296875,-0.015949999913573265,-0.987387478351593,0.18562500178813934
1788107462330333400,1.32333349609375,-0.007287499960511923,-0.7235249876976013,0.21615000069141388
1788107462340420600,1.333420654296875,0.12209999561309814,-0.320374995470047,0.23333749175071716
1788107462350505200,1.343505126953125,0.3273875117301941,-0.0943249985575676,0.23704999685287476
1788107462360586500,1.35358642578125,0.36410000920295715,-0.1798499971628189,0.22714999318122864
1788107462370672000,1.363672119140625,0.2700499892234802,-0.23485000431537628,0.2626250088214874
1788107462380758800,1.3737587890625,0.19786250591278076,-0.1443749964237213,0.30662500858306885
1788107462390839600,1.383839599609375,0.1551000028848648,-0.04179999977350235,0.29809999465942383
1788107462400922400,1.39392236328125,0.14904999732971191,-0.052799999713897705,0.282150000333786
1788107462411009800,1.404009765625,0.1270499974489212,0.08167500048875809,0.273624986410141
1788107462421097700,1.41409765625,0.10752499848604202,0.14643749594688416,0.28091248869895935
1788107462431176000,1.424176025390625,0.0672374963760376,0.1732500046491623,0.28462499380111694
1788107462441264000,1.43426416015625,0.047575000673532486,0.13296249508857727,0.2858625054359436
1788107462451348000,1.444347900390625,0.059812501072883606,-0.005087499972432852,0.30057498812675476
1788107462461441300,1.454441162109375,0.054999999701976776,-0.021037500351667404,0.3139125108718872
1788107462471524000,1.464524169921875,0.05623750016093254,-0.04427500069141388,0.32010000944137573
1788107462481613800,1.47461376953125,0.04028749838471413,-0.02708750031888485,0.3554374873638153
1788107462491698000,1.484697998046875,0.020762499421834946,0.008387500420212746,0.3713875114917755
1788107462501782300,1.4947822265625,0.006049999967217445,0.04743750020861626,0.3848625123500824
1788107462511867100,1.5048671875,0.02199999988079071,0.005912499967962503,0.3543374836444855
1788107462521957600,1.51495751953125,0.00494999997317791,-0.025849999859929085,0.3176249861717224
1788107462532042200,1.525042236328125,0.006049999967217445,-0.06503749638795853,0.2993375062942505
1788107462542125800,1.535125732421875,0.018287500366568565,-0.10779999941587448,0.3078624904155731
1788107462552215300,1.54521533203125,0.02447500079870224,-0.1541374921798706,0.3371500074863434
1788107462562309400,1.555309326171875,0.030524998903274536,-0.17861250042915344,0.3371500074863434
1788107462572399000,1.565399169921875,0.04028749838471413,-0.14685000479221344,0.32010000944137573
1788107462582483000,1.57548291015625,0.05252499878406525,-0.11756250262260437,0.273624986410141
1788107462592577800,1.585577880859375,0.05623750016093254,-0.09308750182390213,0.2283875048160553
1788107462602668500,1.59566845703125,0.05857500061392784,-0.06861250102519989,0.20886249840259552
1788107462612757800,1.6057578125,0.059812501072883606,-0.06613750010728836,0.20528750121593475
1788107462622847700,1.61584765625,0.057475000619888306,-0.06737499684095383,0.22110000252723694
1788107462632935700,1.625935791015625,0.04399999976158142,-0.04908749833703041,0.24310000240802765
1788107462643023400,1.6360234375,0.03671250119805336,-0.045375000685453415,0.2675749957561493
1788107462655126500,1.64812646484375,0.05004999786615372,0.10724999755620956,0.273624986410141
1788107462665218600,1.658218505859375,0.02447500079870224,0.1732500046491623,0.21504999697208405
1788107462675306200,1.66830615234375,0.032999999821186066,0.2563000023365021,0.1868624985218048
1788107462685395500,1.6783955078125,0.06104999780654907,0.21353749930858612,0.16005000472068787
1788107462695479000,1.68847900390625,0.0695749968290329,0.09872499853372574,0.15386250615119934
1788107462705564200,1.698564208984375,0.059812501072883606,0.06943749636411667,0.19538749754428864
1788107462715653400,1.7086533203125,0.04881250113248825,0.05472499877214432,0.2516250014305115
1788107462725743000,1.7187431640625,0.03423750028014183,0.037675000727176666,0.27486249804496765
1788107462735827200,1.7288271484375,0.030524998903274536,0.004674999974668026,0.2870999872684479
1788107462745917700,1.738917724609375,0.002474999986588955,0.030249999836087227,0.282150000333786
1788107462756007200,1.749007080078125,-0.00494999997317791,0.02419999986886978,0.2798124849796295
1788107462766111500,1.759111572265625,0.0012374999932944775,-0.013612499460577965,0.24557499587535858
1788107462776188400,1.7691884765625,0.00976249948143959,-0.06132499873638153,0.19304999709129333
1788107462786275600,1.779275634765625,0.018287500366568565,-0.11990000307559967,0.1368124932050705
1788107462796360200,1.789360107421875,0.0317624993622303,-0.2079000025987625,0.08799999952316284
1788107462806446800,1.79944677734375,0.032999999821186066,-0.2653749883174896,0.02928750030696392
1788107462816533500,1.809533447265625,0.02447500079870224,-0.2824249863624573,-0.01952499896287918
1788107462826618000,1.8196181640625,0.02199999988079071,-0.22384999692440033,-0.06228749826550484
1788107462836705300,1.829705322265625,0.02928750030696392,-0.18837499618530273,-0.12457499653100967
1788107462846791200,1.839791259765625,0.042762499302625656,-0.11990000307559967,-0.17723749577999115
1788107462856879600,1.849879638671875,0.0672374963760376,-0.043037500232458115,-0.21381250023841858
1788107462866986200,1.859986328125,0.08057499676942825,0.0364375002682209,-0.23457500338554382
1788107462877074200,1.87007421875,0.08676250278949738,0.10119999945163727,-0.23952500522136688
1788107462887166000,1.880166015625,0.09281250089406967,0.15125000476837158,-0.22481249272823334
1788107462897247700,1.890247802734375,0.10023749619722366,0.1695374995470047,-0.19910000264644623
1788107462907330300,1.900330322265625,0.10628750175237656,0.18053749203681946,-0.1722874939441681
1788107462917427000,1.910427001953125,0.10876250267028809,0.2012999951839447,-0.14300000667572021
1788107462927523600,1.920523681640625,0.10876250267028809,0.22206249833106995,-0.12952500581741333
1788107462937616600,1.93061669921875,0.11357499659061432,0.227012500166893,-0.12581250071525574
1788107462947700500,1.940700439453125,0.12099999934434891,0.1891999989748001,-0.12828749418258667
1788107462957793300,1.950793212890625,0.1368124932050705,0.13420000672340393,-0.13323749601840973
1788107462967889700,1.9608896484375,0.14781250059604645,0.09872499853372574,-0.12223749607801437
1788107462977983200,1.970983154296875,0.15386250615119934,0.09143749624490738,-0.10628750175237656
1788107462988069400,1.9810693359375,0.16376249492168427,0.1060125008225441,-0.08799999952316284
1788107462998161700,1.99116162109375,0.17476250231266022,0.13653749227523804,-0.07947500050067902
1788107463008243500,2.001243408203125,0.1625249981880188,0.10243749618530273,-0.11976250261068344
1788107463018341400,2.01134130859375,0.14781250059604645,0.10724999755620956,-0.13557499647140503
1788107463028430000,2.02143017578125,0.16005000472068787,0.15125000476837158,-0.12347500026226044
1788107463038521000,2.03152099609375,0.16981250047683716,0.14643749594688416,-0.10023749619722366
1788107463048602600,2.0416025390625,0.17352500557899475,0.1317249983549118,-0.06104999780654907
1788107463058691300,2.05169140625,0.19304999709129333,0.11701250076293945,-0.0012374999932944775
1788107463068772000,2.061772216796875,0.1905750036239624,0.10477499663829803,0.04881250113248825
1788107463078860000,2.071860107421875,0.18205000460147858,0.11467500030994415,0.08428750187158585
1788107463088946400,2.081946533203125,0.1845249980688095,0.12925000488758087,0.10876250267028809
1788107463099030500,2.092030517578125,0.18205000460147858,0.1451999992132187,0.12457499653100967
1788107463109109200,2.102109130859375,0.17476250231266022,0.16224999725818634,0.14657500386238098
1788107463119200300,2.1122001953125,0.18081249296665192,0.1989624947309494,0.17957499623298645
1788107463129282000,2.122281982421875,0.20652499794960022,0.23925000429153442,0.20281249284744263
1788107463139374300,2.132374267578125,0.23704999685287476,0.24777500331401825,0.20281249284744263
1788107463149459200,2.142459228515625,0.26510000228881836,0.2012999951839447,0.18205000460147858
1788107463159542000,2.1525419921875,0.2858625054359436,0.1671999990940094,0.14904999732971191
1788107463169623000,2.162623046875,0.29081249237060547,0.18796250224113464,0.1013374999165535
1788107463179711200,2.172711181640625,0.24681249260902405,0.18177500367164612,0.04399999976158142
1788107463189795300,2.18279541015625,0.1722874939441681,0.14272500574588776,0.0012374999932944775
1788107463199879000,2.19287890625,0.08799999952316284,0.39806249737739563,-0.08181250095367432
1788107463209968000,2.202968017578125,0.0635249987244606,0.45058751106262207,-0.2199999988079071
1788107463220057000,2.21305712890625,0.10628750175237656,0.13420000672340393,-0.3653374910354614
1788107463230143200,2.223143310546875,0.16733749210834503,0.08167500048875809,-0.39214998483657837
1788107463250309400,2.243309326171875,0.16733749210834503,0.16843749582767487,-0.29438748955726624
1788107463260389400,2.253389404296875,0.14176249504089355,0.2147749960422516,-0.22110000252723694
1788107463270473700,2.2634736328125,0.09652499854564667,0.33082500100135803,-0.17476250231266022
1788107463280558300,2.273558349609375,-0.0147124994546175,0.444537490606308,-0.18809999525547028
1788107463290643700,2.283643798828125,-0.0952875018119812,0.6338750123977661,-0.18809999525547028
1788107463300735700,2.29373583984375,-0.13557499647140503,0.7754999995231628,-0.14547500014305115
1788107463310822400,2.303822509765625,-0.16128750145435333,0.8305000066757202,-0.07699999958276749
1788107463320918300,2.313918212890625,-0.17833749949932098,0.7389249801635742,0.0085249999538064
1788107463331010300,2.32401025390625,-0.18205000460147858,0.6338750123977661,0.11604999750852585
1788107463341100000,2.33410009765625,-0.17104999721050262,0.5813499689102173,0.2125750035047531
1788107463351190300,2.344190185546875,-0.15152500569820404,0.46158748865127563,0.2516250014305115
1788107463361284000,2.3542841796875,-0.09157499670982361,0.39682498574256897,0.28091248869895935
1788107463371379000,2.36437890625,-0.0085249999538064,0.36877501010894775,0.2798124849796295
1788107463381471200,2.37447119140625,-0.002474999986588955,0.42611250281333923,0.25286251306533813
1788107463391564300,2.384564208984375,-0.025712499395012856,0.4456374943256378,0.2003374993801117
1788107463401649400,2.3946494140625,-0.018287500366568565,0.4248749911785126,0.14657500386238098
1788107463411740400,2.404740478515625,-0.04152499884366989,0.3235374987125397,0.04028749838471413
1788107463421834500,2.41483447265625,-0.08676250278949738,0.2685374915599823,-0.054999999701976776
1788107463431923500,2.42492333984375,-0.08428750187158585,0.2307250052690506,-0.13199999928474426
1788107463442015500,2.435015380859375,-0.04881250113248825,0.1695374995470047,-0.22357499599456787
1788107463452098000,2.44509814453125,-0.007287499960511923,0.1280124932527542,-0.30662500858306885
1788107463462189300,2.455189208984375,0.035475000739097595,0.11096250265836716,-0.35186249017715454
1788107463472279600,2.465279541015625,0.08057499676942825,0.11701250076293945,-0.3713875114917755
1788107463482365200,2.475365234375,0.11233749985694885,0.13653749227523804,-0.3665750026702881
1788107463492457000,2.48545703125,0.1368124932050705,0.15372499823570251,-0.3713875114917755
1788107463502551600,2.495551513671875,0.14781250059604645,0.1671999990940094,-0.3983374834060669
1788107463512644600,2.50564453125,0.14409999549388885,0.18796250224113464,-0.4288625121116638
1788107463522727400,2.5157275390625,0.12581250071525574,0.20019999146461487,-0.4496249854564667
1788107463532813000,2.52581298828125,0.10381250083446503,0.2012999951839447,-0.46309998631477356
1788107463542900200,2.535900146484375,0.09281250089406967,0.17572499811649323,-0.4618625044822693
1788107463552995600,2.54599560546875,0.08923749625682831,0.1451999992132187,-0.4483875036239624
1788107463563088400,2.55608837890625,0.07081250101327896,0.1036750003695488,-0.4361499845981598
1788107463573175000,2.566175048828125,0.057475000619888306,0.0424874983727932,-0.4349125027656555
1788107463583264500,2.576264404296875,0.05128749832510948,-0.002612499985843897,-0.4203374981880188
1788107463593346300,2.58634619140625,0.02681249938905239,-0.023375000804662704,-0.38362500071525574
1788107463603427600,2.596427490234375,-0.01952499896287918,-0.05637500062584877,-0.33605000376701355
1788107463613520400,2.606520263671875,-0.06599999964237213,-0.09308750182390213,-0.29205000400543213
1788107463623610600,2.616610595703125,-0.09157499670982361,-0.11879999935626984,-0.2540999948978424
1788107463633698800,2.62669873046875,-0.09776250272989273,-0.1358499974012375,-0.2125750035047531
1788107463643784700,2.63678466796875,-0.10381250083446503,-0.14561249315738678,-0.18081249296665192
1788107463653870800,2.646870849609375,-0.11852499842643738,-0.12484999746084213,-0.14657500386238098
1788107463663950600,2.65695068359375,-0.13557499647140503,-0.07713750004768372,-0.10147500038146973
1788107463674038800,2.667038818359375,-0.1588124930858612,-0.03203750029206276,-0.05004999786615372
1788107463684124400,2.67712451171875,-0.17104999721050262,0.007149999961256981,0.010999999940395355
1788107463694216400,2.687216552734375,-0.18205000460147858,0.025437500327825546,0.057337500154972076
1788107463704313300,2.697313232421875,-0.18205000460147858,0.0034374999813735485,0.07809999585151672
1788107463714403000,2.707403076171875,-0.1722874939441681,-0.023375000804662704,0.09033749997615814
1788107463724493300,2.717493408203125,-0.1685750037431717,-0.06613750010728836,0.08799999952316284
1788107463734572300,2.727572265625,-0.17476250231266022,-0.10037499666213989,0.08799999952316284
1788107463744661500,2.73766162109375,-0.14423750340938568,-0.09913749992847443,0.08057499676942825
1788107463754740200,2.747740234375,-0.13557499647140503,-0.06861250102519989,0.08057499676942825
1788107463764818700,2.757818603515625,-0.13928750157356262,-0.06613750010728836,0.10381250083446503
1788107463784994600,2.77799462890625,-0.1868624985218048,-0.02956249937415123,0.16981250047683716
1788107463795075000,2.788074951171875,-0.19676250219345093,-0.006324999965727329,0.18438750505447388
1788107463805160200,2.79816015625,-0.22110000252723694,-0.016087500378489494,0.18328750133514404
1788107463815246600,2.80824658203125,-0.18205000460147858,-0.038087498396635056,0.19304999709129333
1788107463825334500,2.81833447265625,-0.17104999721050262,-0.010037500411272049,0.15152500569820404
1788107463835411700,2.82841162109375,-0.14300000667572021,-0.02956249937415123,0.08910000324249268
1788107463845506000,2.838506103515625,-0.11976250261068344,-0.05403750017285347,0.03423750028014183
1788107463855590400,2.84859033203125,-0.11357499659061432,-0.050324998795986176,-0.007424999959766865
1788107463865685500,2.858685546875,-0.12457499653100967,-0.02956249937415123,-0.04152499884366989
1788107463875770000,2.86877001953125,-0.12333749979734421,-0.008799999952316284,-0.06847500056028366
1788107463885863400,2.878863525390625,-0.12333749979734421,0.0193875003606081,-0.07576250284910202
1788107463895949600,2.888949462890625,-0.14176249504089355,0.0424874983727932,-0.05376249924302101
1788107463906041300,2.899041259765625,-0.17710000276565552,0.05224999785423279,-0.0147124994546175
1788107463916126500,2.90912646484375,-0.19786250591278076,0.037675000727176666,0.010999999940395355
1788107463926215000,2.91921484375,-0.2040500044822693,-0.006324999965727329,0.00976249948143959
1788107463936299500,2.929299560546875,-0.2003374993801117,-0.07108750194311142,-0.018287500366568565
1788107463946388200,2.93938818359375,-0.20157499611377716,-0.07837499678134918,-0.06104999780654907
1788107463956466400,2.949466552734375,-0.18576249480247498,-0.10779999941587448,-0.11604999750852585
1788107463966555400,2.959555419921875,-0.16128750145435333,-0.14066250622272491,-0.13199999928474426
1788107463976636000,2.969635986328125,-0.1722874939441681,-0.14561249315738678,-0.10876250267028809
1788107463986715400,2.97971533203125,-0.18933749198913574,-0.16513749957084656,-0.08071249723434448
1788107463996800500,2.989800537109375,-0.18576249480247498,-0.20913749933242798,-0.054999999701976776
1788107464006890800,2.999890869140625,-0.17104999721050262,-0.2531374990940094,-0.035475000739097595
1788107464016985600,3.009985595703125,-0.1625249981880188,-0.2946625053882599,-0.020762499421834946
1788107464027075000,3.020074951171875,-0.1685750037431717,-0.31542500853538513,-0.023237500339746475
1788107464037157400,3.030157470703125,-0.17352500557899475,-0.29961249232292175,-0.05376249924302101
1788107464047250700,3.040250732421875,-0.16609999537467957,-0.24584999680519104,-0.10271249711513519
1788107464057335000,3.0503349609375,-0.15633749961853027,-0.19085000455379486,-0.15633749961853027
1788107464067424000,3.060424072265625,-0.15028749406337738,-0.13337500393390656,-0.20528750121593475
1788107464077519400,3.070519287109375,-0.14176249504089355,-0.0845625028014183,-0.2480500042438507
1788107464087599900,3.080599853515625,-0.13433749973773956,-0.05637500062584877,-0.26881250739097595
1788107464097689600,3.090689697265625,-0.13433749973773956,-0.03203750029206276,-0.26881250739097595
1788107464107774700,3.100774658203125,-0.14533749222755432,-0.02227500081062317,-0.24433749914169312
1788107464117877800,3.110877685546875,-0.16128750145435333,-0.025849999859929085,-0.19181250035762787
1788107464127963100,3.120963134765625,-0.18328750133514404,-0.023375000804662704,-0.11123749613761902
1788107464138066000,3.13106591796875,-0.22357499599456787,-0.03437500074505806,-0.01223750039935112
1788107464148149000,3.14114892578125,-0.2626250088214874,-0.10779999941587448,0.07081250101327896
1788107464158239200,3.1512392578125,-0.2895750105381012,-0.20913749933242798,0.1331000030040741
1788107464168317700,3.161317626953125,-0.3041499853134155,-0.281187504529953,0.18809999525547028
1788107464178414800,3.171414794921875,-0.3151499927043915,-0.27994999289512634,0.21738749742507935
1788107464188494300,3.181494384765625,-0.32381248474121094,-0.24089999496936798,0.21133749186992645
1788107464198590000,3.19158984375,-0.3371500074863434,-0.1956624984741211,0.17710000276565552
1788107464208671000,3.2016708984375,-0.35186249017715454,-0.15908749401569366,0.1405249983072281
1788107464218755800,3.211755859375,-0.36038750410079956,-0.15537500381469727,0.10752499848604202
1788107464228836000,3.221836181640625,-0.36162498593330383,-0.18466250598430634,0.08799999952316284
1788107464238924800,3.2319248046875,-0.36038750410079956,-0.22866250574588776,0.08910000324249268
1788107464249008600,3.242008544921875,-0.3543374836444855,-0.2653749883174896,0.08799999952316284
1788107464259098600,3.2520986328125,-0.3433375060558319,-0.28613749146461487,0.08676250278949738
1788107464269182500,3.262182373046875,-0.33838748931884766,-0.3068999946117401,0.07576250284910202
1788107464279275800,3.27227587890625,-0.3433375060558319,-0.31790000200271606,0.05252499878406525
1788107464289360400,3.2823603515625,-0.35791251063346863,-0.3031874895095825,0.025575000792741776
1788107464299453200,3.292453125,-0.3689124882221222,-0.3081375062465668,-0.006187499966472387
1788107464309545000,3.302544921875,-0.3665750026702881,-0.34347498416900635,-0.04647500067949295
1788107464319637200,3.31263720703125,-0.35557499527931213,-0.383899986743927,-0.08304999768733978
1788107464329715000,3.32271484375,-0.3445749878883362,-0.40700000524520874,-0.11604999750852585
1788107464339808500,3.33280859375,-0.33233749866485596,-0.4021874964237213,-0.14300000667572021
1788107464349888000,3.342887939453125,-0.32010000944137573,-0.3581874966621399,-0.1527625024318695
1788107464359973400,3.352973388671875,-0.3091000020503998,-0.3007124960422516,-0.1527625024318695
1788107464370056200,3.36305615234375,-0.29809999465942383,-0.25437501072883606,-0.15028749406337738
1788107464380148200,3.373148193359375,-0.28833749890327454,-0.22013749182224274,-0.14904999732971191
1788107464390227700,3.383227783203125,-0.2798124849796295,-0.1956624984741211,-0.14904999732971191
1788107464400318200,3.393318115234375,-0.26633748412132263,-0.17737500369548798,-0.14657500386238098
1788107464410398000,3.40339794921875,-0.2578125,-0.1676124930381775,-0.14300000667572021
1788107464420493000,3.4134931640625,-0.2516250014305115,-0.17366249859333038,-0.14657500386238098
1788107464430571000,3.423571044921875,-0.23086249828338623,-0.17737500369548798,-0.15757499635219574
1788107464440663300,3.433663330078125,-0.20157499611377716,-0.17008750140666962,-0.1625249981880188
1788107464450738700,3.44373876953125,-0.18205000460147858,-0.1933249980211258,-0.17833749949932098
1788107464460839200,3.453839111328125,-0.18081249296665192,-0.20418749749660492,-0.19181250035762787
1788107464470929200,3.46392919921875,-0.17476250231266022,-0.23237499594688416,-0.21133749186992645
1788107464481026800,3.47402685546875,-0.15633749961853027,-0.24461250007152557,-0.23086249828338623
1788107464491112700,3.48411279296875,-0.14423750340938568,-0.23966249823570251,-0.24928750097751617
1788107464501199600,3.49419970703125,-0.14657500386238098,-0.25066250562667847,-0.2858625054359436
1788107464511280600,3.50428076171875,-0.13928750157356262,-0.2531374990940094,-0.32381248474121094
1788107464521368800,3.514368896484375,-0.1270499974489212,-0.23485000431537628,-0.36162498593330383
1788107464531457300,3.524457275390625,-0.1270499974489212,-0.2176624983549118,-0.3909125030040741
1788107464541555500,3.534555419921875,-0.13199999928474426,-0.19813749194145203,-0.4129124879837036
1788107464551645700,3.544645751953125,-0.13433749973773956,-0.17489999532699585,-0.4203374981880188
1788107464561745700,3.55474560546875,-0.12581250071525574,-0.17489999532699585,-0.40933749079704285
1788107464571831800,3.564831787109375,-0.10999999940395355,-0.19813749194145203,-0.3811500072479248
1788107464581926100,3.574926025390625,-0.08428750187158585,-0.21037499606609344,-0.3445749878883362
1788107464592012800,3.5850126953125,-0.05128749832510948,-0.22618749737739563,-0.3091000020503998
1788107464602104000,3.59510400390625,-0.020762499421834946,-0.22866250574588776,-0.273624986410141
1788107464612192500,3.605192626953125,0.002474999986588955,-0.20913749933242798,-0.23333749175071716
1788107464622290400,3.61529052734375,0.01223750039935112,-0.18232500553131104,-0.19552500545978546
1788107464632376600,3.62537646484375,0.01223750039935112,-0.1480875015258789,-0.1588124930858612
1788107464642469400,3.635469482421875,0.007287499960511923,-0.0943249985575676,-0.11976250261068344
1788107464652552400,3.645552490234375,-0.0037124999798834324,-0.045375000685453415,-0.07947500050067902
1788107464662639600,3.6556396484375,-0.02447500079870224,-0.023375000804662704,-0.03918749839067459
1788107464672727000,3.66572705078125,-0.047712501138448715,-0.016087500378489494,-0.00494999997317791
1788107464682824000,3.675823974609375,-0.07204999774694443,-0.02461249940097332,0.00976249948143959
1788107464692920300,3.68592041015625,-0.08923749625682831,-0.028324998915195465,0.014574999921023846
1788107464703018200,3.696018310546875,-0.10257499665021896,-0.021037500351667404,0.006049999967217445
1788107464713101000,3.70610107421875,-0.10876250267028809,-0.002612499985843897,-0.007424999959766865
1788107464723196400,3.716196533203125,-0.11357499659061432,0.013199999928474426,-0.020762499421834946
1788107464733274400,3.7262744140625,-0.11123749613761902,0.020487500354647636,-0.037950001657009125
1788107464743365400,3.736365478515625,-0.10999999940395355,0.018149999901652336,-0.04152499884366989
1788107464753450200,3.7464501953125,-0.11357499659061432,-0.0002749999985098839,-0.018287500366568565
1788107464763538000,3.756537841796875,-0.1270499974489212,-0.033275000751018524,0.03904999792575836
1788107464773627100,3.766627197265625,-0.15028749406337738,-0.07356250286102295,0.11728750169277191
1788107464783706400,3.776706298828125,-0.1685750037431717,-0.11879999935626984,0.20157499611377716
1788107464793793300,3.786793212890625,-0.18328750133514404,-0.1676124930381775,0.26138749718666077
1788107464803884500,3.796884521484375,-0.18700000643730164,-0.21408750116825104,0.3041499853134155
1788107464813965300,3.80696533203125,-0.18933749198913574,-0.24089999496936798,0.33467498421669006
1788107464824058000,3.81705810546875,-0.19181250035762787,-0.26785001158714294,0.35062500834465027
1788107464834147000,3.82714697265625,-0.19304999709129333,-0.2946625053882599,0.35420000553131104
1788107464844237000,3.837237060546875,-0.19676250219345093,-0.31542500853538513,0.35062500834465027
1788107464854335700,3.847335693359375,-0.1979999989271164,-0.35089999437332153,0.33233749866485596
1788107464864428500,3.857428466796875,-0.18933749198913574,-0.37290000915527344,0.2993375062942505
1788107464874514700,3.8675146484375,-0.17957499623298645,-0.3679499924182892,0.26138749718666077
1788107464884614100,3.8776142578125,-0.16981250047683716,-0.320374995470047,0.22357499599456787
1788107464894700500,3.887700439453125,-0.16376249492168427,-0.24213749170303345,0.18328750133514404
1788107464904789800,3.897789794921875,-0.1625249981880188,-0.15166249871253967,0.14409999549388885
1788107464914875100,3.907875244140625,-0.16128750145435333,-0.06861250102519989,0.11357499659061432
1788107464924967000,3.917966796875,-0.1685750037431717,-0.023375000804662704,0.08181250095367432
1788107464935053800,3.9280537109375,-0.17104999721050262,0.02667500078678131,0.0635249987244606
1788107464945144600,3.93814453125,-0.17599999904632568,0.09019999951124191,0.06599999964237213
1788107464955228400,3.948228515625,-0.1845249980688095,0.12925000488758087,0.08910000324249268
1788107464965332000,3.95833203125,-0.19910000264644623,0.13296249508857727,0.10986249893903732
1788107464975416300,3.968416259765625,-0.20776249468326569,0.13296249508857727,0.14904999732971191
1788107464985511000,3.978510986328125,-0.2125750035047531,0.14877499639987946,0.1942874938249588
1788107464995598300,3.988598388671875,-0.2320999950170517,0.17820000648498535,0.22605000436306
1788107465005684000,3.99868408203125,-0.26028749346733093,0.19772499799728394,0.23333749175071716
1788107465015771600,4.008771728515625,-0.28462499380111694,0.20006249845027924,0.23333749175071716
1788107465025869300,4.018869384765625,-0.3030500113964081,0.15853749215602875,0.2320999950170517
1788107465035956200,4.028956298828125,-0.3151499927043915,0.10477499663829803,0.22962500154972076
1788107465046047500,4.039047607421875,-0.32133749127388,0.04743750020861626,0.2223374992609024
1788107465056127500,4.04912744140625,-0.33233749866485596,-0.0002749999985098839,0.210099995136261
1788107465066220500,4.059220458984375,-0.3568125069141388,-0.033275000751018524,0.1942874938249588
1788107465076306400,4.069306396484375,-0.38362500071525574,-0.047849997878074646,0.16128750145435333
1788107465086394000,4.07939404296875,-0.40191251039505005,-0.04427500069141388,0.10986249893903732
1788107465096481500,4.0894814453125,-0.4141499996185303,-0.033275000751018524,0.047575000673532486
1788107465106573800,4.09957373046875,-0.43367499113082886,-0.0038499999791383743,-0.0147124994546175
1788107465116657700,4.10965771484375,-0.45938751101493835,0.021724998950958252,-0.07576250284910202
1788107465126743600,4.11974365234375,-0.4703874886035919,0.022962499409914017,-0.1405249983072281
1788107465136838700,4.129838623046875,-0.4641999900341034,0.020487500354647636,-0.2003374993801117
1788107465146929400,4.139929443359375,-0.4618625044822693,0.014437500387430191,-0.25286251306533813
1788107465157013800,4.150013671875,-0.4666749835014343,0.01691249944269657,-0.29205000400543213
1788107465167105000,4.16010498046875,-0.4776749908924103,0.014437500387430191,-0.305525004863739
1788107465177193500,4.170193359375,-0.4959625005722046,-0.01732499897480011,-0.2895750105381012
1788107465187282200,4.1802822265625,-0.5033875107765198,-0.057612501084804535,-0.24928750097751617
1788107465197380400,4.19038037109375,-0.4959625005722046,-0.1358499974012375,-0.20899999141693115
1788107465207467300,4.20046728515625,-0.4776749908924103,-0.22384999692440033,-0.17104999721050262
1788107465217555500,4.210555419921875,-0.4581499993801117,-0.2971374988555908,-0.13805000483989716
1788107465227656000,4.220656005859375,-0.44591251015663147,-0.3544749915599823,-0.11247500032186508
1788107465237747700,4.230747802734375,-0.44110000133514404,-0.36918750405311584,-0.07452499866485596
1788107465247840000,4.240840087890625,-0.43738749623298645,-0.3704249858856201,-0.02694999985396862
1788107465257928000,4.250927978515625,-0.4446749985218048,-0.3581874966621399,0.035337500274181366
1788107465268014800,4.261014892578125,-0.45938751101493835,-0.3227125108242035,0.10257499665021896
1788107465278107600,4.271107666015625,-0.47891250252723694,-0.2763749957084656,0.15633749961853027
1788107465288187100,4.281187255859375,-0.4899125099182129,-0.21518750488758087,0.17833749949932098
1788107465298273000,4.29127294921875,-0.47891250252723694,-0.15289999544620514,0.1746249943971634
1788107465308354800,4.301354736328125,-0.4496249854564667,-0.10408750176429749,0.13928750157356262
1788107465318447600,4.311447509765625,-0.4081000089645386,-0.05884999781847,0.07933750003576279
1788107465328531200,4.32153125,-0.34814998507499695,-0.002612499985843897,-0.0037124999798834324
1788107465338616300,4.3316162109375,-0.29081249237060547,0.04496249929070473,-0.06971249729394913
1788107465348701700,4.34170166015625,-0.25052499771118164,0.07672499865293503,-0.12099999934434891
1788107465358788000,4.3517880859375,-0.23704999685287476,0.07067500054836273,-0.1527625024318695
1788107465368870100,4.3618701171875,-0.23828749358654022,0.040150001645088196,-0.1685750037431717
1788107465378973000,4.371972900390625,-0.23333749175071716,0.011962499469518661,-0.18081249296665192
1788107465389051600,4.3820517578125,-0.21504999697208405,0.02667500078678131,-0.18700000643730164
1788107465399136300,4.39213623046875,-0.18809999525547028,0.0644875019788742,-0.18328750133514404
1788107465409223200,4.40222314453125,-0.16609999537467957,0.1060125008225441,-0.16005000472068787
1788107465419316500,4.41231640625,-0.14904999732971191,0.15001249313354492,-0.11371249705553055
1788107465429403600,4.422403564453125,-0.13323749601840973,0.17820000648498535,-0.047712501138448715
1788107465439488800,4.43248876953125,-0.11976250261068344,0.18548749387264252,0.042762499302625656
1788107465449574100,4.44257421875,-0.11728750169277191,0.14396250247955322,0.13186250627040863
1788107465459658000,4.452657958984375,-0.11728750169277191,0.049912501126527786,0.18933749198913574
1788107465469736000,4.46273583984375,-0.11604999750852585,-0.1321374922990799,0.210099995136261
1788107465479821300,4.4728212890625,-0.07699999958276749,-0.2909500002861023,0.26510000228881836
1788107465489906200,4.48290625,-0.015949999913573265,-0.2579500079154968,0.30662500858306885
1788107465499994400,4.492994384765625,0.01223750039935112,-0.34718748927116394,0.2919124960899353
1788107465510081300,4.503081298828125,0.045237500220537186,-0.3704249858856201,0.29686251282691956
1788107465520162800,4.513162841796875,0.06104999780654907,-0.34966251254081726,0.32133749127388
1788107465530248200,4.523248291015625,0.06104999780654907,-0.3251875042915344,0.35062500834465027
1788107465540340200,4.53334033203125,0.05004999786615372,-0.3031874895095825,0.37619999051094055
1788107465550429000,4.543428955078125,0.047575000673532486,-0.3068999946117401,0.39214998483657837
1788107465560512300,4.55351220703125,0.05004999786615372,-0.3251875042915344,0.38967499136924744
1788107465570593000,4.563593017578125,0.0635249987244606,-0.3251875042915344,0.35667499899864197
1788107465580682200,4.57368212890625,0.08799999952316284,-0.3166624903678894,0.2956250011920929
1788107465590766300,4.583766357421875,0.1307625025510788,-0.2946625053882599,0.22110000252723694
1788107465600851200,4.593851318359375,0.17710000276565552,-0.24818749725818634,0.14657500386238098
1788107465610945800,4.60394580078125,0.21133749186992645,-0.18837499618530273,0.08057499676942825
1788107465621036500,4.61403662109375,0.22962500154972076,-0.14685000479221344,0.02681249938905239
1788107465631127000,4.624126953125,0.24186250567436218,-0.1163249984383583,-0.00976249948143959
1788107465641211400,4.63421142578125,0.24914999306201935,-0.10161250084638596,-0.020762499421834946
1788107465651294200,4.644294189453125,0.2503874897956848,-0.09790000319480896,-0.01718750037252903
1788107465661388000,4.654387939453125,0.24557499587535858,-0.10889999568462372,-0.002474999986588955
1788107465671479300,4.664479248046875,0.23938749730587006,-0.10532499849796295,0.01952499896287918
1788107465681570000,4.674570068359375,0.22714999318122864,-0.08084999769926071,0.05857500061392784
1788107465691650000,4.684650146484375,0.2063875049352646,-0.05637500062584877,0.11233749985694885
1788107465701740300,4.694740234375,0.17352500557899475,-0.04908749833703041,0.1648624986410141
1788107465711830500,4.70483056640625,0.14533749222755432,-0.07837499678134918,0.19910000264644623
1788107465721916000,4.714916015625,0.13186250627040863,-0.13832500576972961,0.19304999709129333
1788107465732009000,4.725009033203125,0.13186250627040863,-0.1896124929189682,0.1648624986410141
1788107465742102800,4.735102783203125,0.13805000483989716,-0.23842500150203705,0.13062499463558197
1788107465752191700,4.745191650390625,0.14533749222755432,-0.28613749146461487,0.08552499860525131
1788107465762282800,4.75528271484375,0.16005000472068787,-0.328900009393692,0.0317624993622303
1788107465772370400,4.765370361328125,0.17833749949932098,-0.3606624901294708,-0.032999999821186066
1788107465782457300,4.775457275390625,0.18933749198913574,-0.3899500072002411,-0.10271249711513519
1788107465792548000,4.785548095703125,0.19538749754428864,-0.38142499327659607,-0.16733749210834503
1788107465802633200,4.79563330078125,0.19538749754428864,-0.3349500000476837,-0.2223374992609024
1788107465812725800,4.805725830078125,0.1942874938249588,-0.2666124999523163,-0.25533750653266907
1788107465822815700,4.815815673828125,0.1942874938249588,-0.1798499971628189,-0.25533750653266907
1788107465832902000,4.82590185546875,0.19304999709129333,-0.08579999953508377,-0.2199999988079071
1788107465853074200,4.84607421875,0.1685750037431717,0.02667500078678131,-0.09652499854564667
1788107465863167500,4.85616748046875,0.1685750037431717,0.0364375002682209,-0.04028749838471413
1788107465873258200,4.86625830078125,0.1746249943971634,0.05596249923110008,0.028049999848008156
1788107465883341800,4.876341796875,0.17104999721050262,0.08401250094175339,0.0952875018119812
1788107465893429500,4.886429443359375,0.1588124930858612,0.1280124932527542,0.18205000460147858
1788107465903523600,4.896523681640625,0.13928750157356262,0.1891999989748001,0.2761000096797943
1788107465913611500,4.906611572265625,0.10381250083446503,0.23925000429153442,0.34209999442100525
1788107465923701500,4.916701416015625,0.0695749968290329,0.2404875010251999,0.3628624975681305
1788107465933791500,4.92679150390625,-0.02928750030696392,0.010724999941885471,0.31267499923706055
1788107465943879700,4.936879638671875,-0.006187499966472387,0.05596249923110008,0.4129124879837036
1788107465953968000,4.946968017578125,-0.05623750016093254,0.05719999969005585,0.3726249933242798
1788107465964060700,4.957060791015625,-0.04152499884366989,-0.11508750170469284,0.34814998507499695
1788107465974154200,4.967154296875,-0.006187499966472387,-0.29218751192092896,0.35062500834465027
1788107465984244700,4.97724462890625,0.04633750021457672,-0.3667125105857849,0.3676750063896179
1788107465994325200,4.9873251953125,0.04881250113248825,-0.25189998745918274,0.3786749839782715
1788107466004420900,4.9974208984375,0.0170499999076128,-0.1297999918460846,0.37386250495910645
1788107466014509600,5.007509521484375,0.002474999986588955,-0.10408750176429749,0.36162498593330383
1788107466024589300,5.01758935546875,-0.007287499960511923,-0.0906125009059906,0.39338749647140503
1788107466034672400,5.02767236328125,-0.05004999786615372,-0.0015124999918043613,0.4409624934196472
1788107466044759800,5.037759765625,-0.1050499975681305,0.07796250283718109,0.44591251015663147
1788107466054845000,5.047844970703125,-0.14781250059604645,0.15853749215602875,0.42762500047683716
1788107466064954000,5.0579541015625,-0.1845249980688095,0.16596250236034393,0.3946250081062317
1788107466075037000,5.068036865234375,-0.22605000436306,-0.010037500411272049,0.37386250495910645
1788107466085127200,5.078127197265625,-0.29809999465942383,-0.057612501084804535,0.428725004196167
1788107466095213300,5.08821337890625,-0.3371500074863434,-0.06613750010728836,0.5289624929428101
1788107466105311000,5.09831103515625,-0.3653374910354614,-0.11990000307559967,0.5985375046730042
1788107466115405800,5.10840576171875,-0.39214998483657837,-0.2311374992132187,0.6315374970436096
1788107466125490000,5.118489990234375,-0.4068624973297119,-0.38747498393058777,0.6645374894142151
1788107466135575000,5.128574951171875,-0.4006749987602234,-0.3899500072002411,0.6657750010490417
1788107466145662200,5.138662109375,-0.22728750109672546,-0.12856249511241913,0.4899125099182129
1788107466155756000,5.148756103515625,-0.0989999994635582,-0.16032500565052032,0.04633750021457672
1788107466165847800,5.158847900390625,0.07576250284910202,-0.3642374873161316,-0.16005000472068787
1788107466175932200,5.16893212890625,0.1905750036239624,-0.39489999413490295,-0.17352500557899475
1788107466186029300,5.179029296875,0.3628624975681305,-0.408237487077713,-0.030524998903274536
1788107466196116000,5.189115966796875,0.3811500072479248,-0.5035250186920166,-0.00494999997317791
1788107466206201600,5.19920166015625,0.340862512588501,-0.5097125172615051,0.02199999988079071
1788107466216282600,5.20928271484375,0.28338751196861267,-0.3959999978542328,0.08676250278949738
1788107466226372900,5.219372802734375,0.2503874897956848,-0.3251875042915344,0.15262499451637268
1788107466236454400,5.229454345703125,0.22714999318122864,-0.18108749389648438,0.18562500178813934
1788107466246547200,5.239547119140625,0.19304999709129333,0.12677499651908875,0.210099995136261
1788107466256627500,5.24962744140625,0.14781250059604645,0.39434999227523804,0.2125750035047531
1788107466266722300,5.259722412109375,0.12333749979734421,0.5715875029563904,0.19538749754428864
1788107466276809500,5.2698095703125,0.11481250077486038,0.6619250178337097,0.17957499623298645
1788107466286901200,5.2799013671875,0.11728750169277191,0.6973999738693237,0.1685750037431717
1788107466296987400,5.2899873046875,0.12457499653100967,0.6143500208854675,0.14781250059604645
1788107466307083000,5.3000830078125,0.1368124932050705,0.4395875036716461,0.15757499635219574
1788107466317167000,5.3101669921875,0.17833749949932098,0.21972499787807465,0.17104999721050262
1788107466327252700,5.320252685546875,0.25657498836517334,0.07919999957084656,0.12828749418258667
1788107466337350000,5.330349853515625,0.33838748931884766,0.04867500066757202,0.05128749832510948
1788107466347434200,5.340434326171875,0.3713875114917755,0.08772499859333038,-0.035475000739097595
1788107466357536000,5.350535888671875,0.3676750063896179,0.14877499639987946,-0.10023749619722366
1788107466367621600,5.36062158203125,0.345674991607666,0.18548749387264252,-0.1247124969959259
1788107466377711000,5.370711181640625,0.32133749127388,0.19030000269412994,-0.1344749927520752
1788107466387795700,5.380795654296875,0.33838748931884766,0.227012500166893,-0.22852499783039093
1788107466397885400,5.390885498046875,0.3713875114917755,0.11096250265836716,-0.22110000252723694
1788107466407973600,5.4009736328125,0.35186249017715454,-0.052799999713897705,-0.20652499794960022
1788107466418078500,5.411078369140625,0.3053874969482422,-0.23966249823570251,-0.17476250231266022
1788107466428162800,5.421162841796875,0.28462499380111694,-0.3521375060081482,-0.10876250267028809
1788107466438247700,5.43124755859375,0.28091248869895935,-0.3959999978542328,-0.050187498331069946
1788107466448334800,5.4413349609375,0.27486249804496765,-0.3606624901294708,0.018287500366568565
1788107466458430200,5.45143017578125,0.2320999950170517,-0.26413750648498535,0.09281250089406967
1788107466468513300,5.46151318359375,0.1868624985218048,-0.17008750140666962,0.15262499451637268
1788107466478603000,5.47160302734375,0.13805000483989716,-0.08332499861717224,0.19181250035762787
1788107466488692200,5.481692138671875,0.0695749968290329,0.022962499409914017,0.19538749754428864
1788107466498786600,5.49178662109375,0.042762499302625656,0.13048750162124634,0.17957499623298645
1788107466508870400,5.501870361328125,0.05004999786615372,0.18424999713897705,0.1270499974489212
1788107466518960000,5.511960205078125,0.08181250095367432,0.16101250052452087,0.05857500061392784
1788107466529040000,5.522039794921875,0.12457499653100967,0.1060125008225441,0.004812499973922968
1788107466539121000,5.532120849609375,0.15757499635219574,0.05843750014901161,-0.015949999913573265
1788107466549203500,5.542203369140625,0.18205000460147858,0.037675000727176666,-0.03671250119805336
1788107466559288300,5.552288330078125,0.20157499611377716,0.06091250106692314,-0.07204999774694443
1788107466569374700,5.562374755859375,0.17586250603199005,0.2367749959230423,-0.07576250284910202
1788107466579465000,5.57246484375,0.17104999721050262,0.2404875010251999,-0.11481250077486038
1788107466589545000,5.582544921875,0.17104999721050262,0.1317249983549118,-0.17833749949932098
1788107466599626000,5.5926259765625,0.1013374999165535,0.0644875019788742,-0.21876250207424164
1788107466609706800,5.602706787109375,0.015812499448657036,0.07796250283718109,-0.22605000436306
1788107466619798500,5.612798583984375,-0.032999999821186066,0.08896250277757645,-0.24557499587535858
1788107466629883100,5.622883056640625,-0.04152499884366989,0.07548750191926956,-0.2615250051021576
1788107466639974000,5.632973876953125,-0.04028749838471413,0.08043749630451202,-0.26881250739097595
1788107466650052900,5.643052978515625,-0.07947500050067902,0.06091250106692314,-0.2810499966144562
1788107466660143600,5.6531435546875,0.0170499999076128,-0.01732499897480011,-0.31652501225471497
1788107466670228500,5.663228515625,0.06833750009536743,-0.006324999965727329,-0.36038750410079956
1788107466680316400,5.67331640625,0.054999999701976776,0.0999625027179718,-0.3493874967098236
1788107466690401500,5.683401611328125,0.028049999848008156,0.2550624907016754,-0.28833749890327454
1788107466700488700,5.69348876953125,0.07933750003576279,0.3675374984741211,-0.2320999950170517
1788107466710569500,5.703569580078125,0.09404999762773514,0.32477501034736633,-0.20776249468326569
1788107466720668000,5.71366796875,0.0952875018119812,0.24901250004768372,-0.21876250207424164
1788107466730750000,5.72375,0.24062499403953552,0.15372499823570251,-0.30662500858306885
1788107466740838100,5.733838134765625,0.40562498569488525,0.1377750039100647,-0.45086249709129333
1788107466750923800,5.743923828125,0.467912495136261,0.2172500044107437,-0.515625
1788107466761017300,5.754017333984375,0.44343748688697815,0.28929999470710754,-0.520437479019165
1788107466771103000,5.76410302734375,0.4263874888420105,0.31735000014305115,-0.47891250252723694
1788107466781199400,5.774199462890625,0.48138749599456787,0.3125374913215637,-0.4081000089645386
1788107466791282400,5.784282470703125,0.5631999969482422,0.3137750029563904,-0.33605000376701355
1788107466801379300,5.79437939453125,0.598675012588501,0.38830000162124634,-0.2540999948978424
1788107466811467000,5.804467041015625,0.6132500171661377,0.46158748865127563,-0.18576249480247498
1788107466821561900,5.814561767578125,0.6364874839782715,0.5506874918937683,-0.1270499974489212
1788107466831654100,5.824654052734375,0.6914874911308289,0.6241124868392944,-0.04028749838471413
1788107466841744400,5.834744384765625,0.6291999816894531,0.652162492275238,-0.0037124999798834324
1788107466851834600,5.844834716796875,0.5656750202178955,0.7694500088691711,0.06833750009536743
1788107466861929200,5.85492919921875,0.4666749835014343,0.8452125191688538,0.18933749198913574
1788107466872028400,5.8650283203125,0.40191251039505005,0.7962625026702881,0.30291250348091125
1788107466882117400,5.875117431640625,0.30662500858306885,0.6936874985694885,0.42143750190734863
1788107466892204800,5.885204833984375,0.28833749890327454,0.4908750057220459,0.47519999742507935
1788107466902304300,5.89530419921875,0.3236750066280365,0.33701249957084656,0.4899125099182129
1788107466912396000,5.90539599609375,0.3628624975681305,0.28558748960494995,0.4727250039577484
1788107466922492200,5.9154921875,0.38843750953674316,0.34306249022483826,0.45938751101493835
1788107466932582000,5.925581787109375,0.41167500615119934,0.4786374866962433,0.44714999198913574
1788107466942664700,5.935664794921875,0.5741999745368958,0.5874000191688538,0.3713875114917755
1788107466952744200,5.945744140625,0.5229125022888184,0.880549967288971,0.38362500071525574
1788107466962838500,5.955838623046875,0.4641999900341034,0.936787486076355,0.43738749623298645
1788107466972924200,5.965924072265625,0.4824874997138977,0.9112125039100647,0.4703874886035919
1788107466983020300,5.976020263671875,0.5142499804496765,0.8146874904632568,0.5680124759674072
1788107466993111800,5.98611181640625,0.5436750054359436,0.6216375231742859,0.7684875130653381
1788107467003208700,5.996208740234375,0.5924875140190125,0.39806249737739563,1.015162467956543
1788107467013291300,6.006291259765625,0.6402000188827515,0.1451999992132187,1.1959749460220337
1788107467023395000,6.01639501953125,0.6829624772071838,-0.09556250274181366,1.3010250329971313
1788107467033487000,6.026487060546875,0.7060624957084656,-0.2824249863624573,1.3352625370025635
1788107467043583500,6.03658349609375,0.7110124826431274,-0.35571250319480896,1.3267375230789185
1788107467053671200,6.046671142578125,0.6927250027656555,-0.3423750102519989,1.293737530708313
1788107467063757600,6.056757568359375,0.6584874987602234,-0.26785001158714294,1.2314499616622925
1788107467073841700,6.066841552734375,0.6304374933242798,-0.20666250586509705,1.120212435722351
1788107467083925500,6.076925537109375,0.620537519454956,-0.1798499971628189,0.9578250050544739
1788107467094013200,6.08701318359375,0.6291999816894531,-0.16032500565052032,0.7793499827384949
1788107467104111900,6.09711181640625,0.6352499723434448,-0.12732499837875366,0.6230124831199646
1788107467114206000,6.1072060546875,0.6194375157356262,-0.11990000307559967,0.49720001220703125
1788107467124301300,6.11730126953125,0.5887749791145325,-0.1297999918460846,0.3823874890804291
1788107467134389500,6.127389404296875,0.559487521648407,-0.16637499630451202,0.28833749890327454
1788107467144483300,6.1374833984375,0.5339124798774719,-0.19442500174045563,0.18933749198913574
1788107467154574000,6.147573974609375,0.503250002861023,-0.2079000025987625,0.06599999964237213
1788107467164664800,6.157664794921875,0.4801499843597412,-0.21037499606609344,-0.0672374963760376
1788107467174752500,6.16775244140625,0.4824874997138977,-0.23361249268054962,-0.18933749198913574
1788107467184843000,6.177843017578125,0.48743748664855957,-0.2666124999523163,-0.28476250171661377
1788107467194928600,6.1879287109375,0.4824874997138977,-0.3166624903678894,-0.3628624975681305
1788107467205018000,6.19801806640625,0.32615000009536743,-0.35571250319480896,-0.4973374903202057
1788107467215104500,6.2081044921875,0.23333749175071716,-0.20308749377727509,-0.5889124870300293
1788107467225196300,6.2181962890625,0.20281249284744263,-0.18466250598430634,-0.7049624919891357
1788107467235286300,6.228286376953125,0.059812501072883606,-0.11508750170469284,-0.7612000107765198
1788107467245378300,6.23837841796875,-0.03918749839067459,0.005912499967962503,-0.7867749929428101
1788107467255460600,6.248460693359375,-0.08676250278949738,0.11453749984502792,-0.7929624915122986
1788107467265552400,6.258552490234375,-0.09404999762773514,0.2367749959230423,-0.7501999735832214
1788107467275640000,6.26864013671875,-0.0672374963760376,0.31735000014305115,-0.6707249879837036
1788107467285725200,6.27872509765625,0.006049999967217445,0.37482500076293945,-0.568149983882904
1788107467295800300,6.28880029296875,0.08057499676942825,0.3870624899864197,-0.4703874886035919
1788107467305892400,6.298892333984375,0.11110000312328339,0.3357749879360199,-0.3628624975681305
1788107467315973400,6.308973388671875,0.05252499878406525,0.20748749375343323,-0.24681249260902405
1788107467326070500,6.319070556640625,0.0085249999538064,0.12443749606609344,-0.13199999928474426
1788107467336156200,6.32915625,0.006049999967217445,0.13420000672340393,-0.015949999913573265
1788107467346235400,6.3392353515625,0.0085249999538064,0.15125000476837158,0.07686249911785126
1788107467356326000,6.349325927734375,0.004812499973922968,0.15248750150203705,0.12828749418258667
1788107467366410800,6.35941064453125,-0.002474999986588955,0.15248750150203705,0.11962500214576721
1788107467376503000,6.3695029296875,0,0.16472500562667847,0.05376249924302101
1788107467386588400,6.37958837890625,0.0085249999538064,0.17820000648498535,-0.010999999940395355
1788107467396664300,6.389664306640625,0.02199999988079071,0.17572499811649323,-0.06971249729394913
1788107467406759700,6.399759765625,0.028049999848008156,0.1695374995470047,-0.10023749619722366
1788107467416849000,6.409848876953125,0.0012374999932944775,0.15001249313354492,-0.11371249705553055
1788107467426941400,6.41994140625,-0.047712501138448715,0.09377499669790268,-0.1344749927520752
1788107467437022000,6.43002197265625,-0.09404999762773514,0.020487500354647636,-0.1685750037431717
1788107467447117300,6.440117431640625,-0.12347500026226044,-0.02956249937415123,-0.20528750121593475
1788107467457203700,6.45020361328125,-0.14176249504089355,-0.01251249946653843,-0.2125750035047531
1788107467467288300,6.460288330078125,-0.14657500386238098,0.05967500060796738,-0.19181250035762787
1788107467477379600,6.470379638671875,-0.14657500386238098,0.14272500574588776,-0.14423750340938568
1788107467487469600,6.480469482421875,-0.14657500386238098,0.2172500044107437,-0.0672374963760376
1788107467497565400,6.4905654296875,-0.13805000483989716,0.26977500319480896,0.0170499999076128
1788107467507653000,6.500653076171875,-0.12952500581741333,0.28806251287460327,0.08676250278949738
1788107467517758200,6.51075830078125,-0.13323749601840973,0.258774995803833,0.11481250077486038
1788107467527852800,6.520852783203125,-0.1405249983072281,0.19772499799728394,0.09404999762773514
1788107467537943300,6.530943359375,-0.14176249504089355,0.147537499666214,0.06599999964237213
1788107467548034600,6.54103466796875,-0.14781250059604645,0.09019999951124191,0.028049999848008156
1788107467558130200,6.551130126953125,-0.14423750340938568,0.04124999791383743,-0.0037124999798834324
1788107467568230100,6.561230224609375,-0.12347500026226044,0.03148749843239784,-0.006187499966472387
1788107467578323200,6.5713232421875,-0.10381250083446503,0.05843750014901161,-0.002474999986588955
1788107467588408300,6.581408203125,-0.09171249717473984,0.07919999957084656,-0.0012374999932944775
1788107467598499800,6.591499755859375,-0.10999999940395355,0.08277499675750732,0.004812499973922968
1788107467608585000,6.6015849609375,-0.15399999916553497,0.0742499977350235,0.030524998903274536
1788107467618669300,6.61166943359375,-0.23333749175071716,0.07672499865293503,0.06599999964237213
1788107467628762400,6.621762451171875,-0.31033748388290405,0.02667500078678131,0.11357499659061432
1788107467638897200,6.631897216796875,-0.340862512588501,-0.055275000631809235,0.1648624986410141
1788107467648983000,6.641983154296875,-0.32257500290870667,-0.11137499660253525,0.20514999330043793
1788107467659070500,6.652070556640625,-0.2798124849796295,-0.1676124930381775,0.21381250023841858
1788107467669151200,6.662151123046875,-0.23333749175071716,-0.17132499814033508,0.1648624986410141
1788107467679238700,6.67223876953125,-0.23100000619888306,-0.08332499861717224,0.045099999755620956
1788107467689319700,6.682319580078125,-0.25533750653266907,0.05224999785423279,-0.10876250267028809
1788107467699403800,6.69240380859375,-0.27252501249313354,0.18906250596046448,-0.22852499783039093
1788107467709494500,6.70249462890625,-0.23704999685287476,0.24901250004768372,-0.3030500113964081
1788107467719573200,6.7125732421875,-0.18576249480247498,0.2428250014781952,-0.3273875117301941
1788107467729664300,6.722664306640625,-0.14657500386238098,0.227012500166893,-0.3250499963760376
1788107467739748000,6.732748046875,-0.14176249504089355,0.20006249845027924,-0.32381248474121094
1788107467749827000,6.7428271484375,-0.15399999916553497,0.15001249313354492,-0.33838748931884766
1788107467759911200,6.7529111328125,-0.15152500569820404,0.11219999939203262,-0.35557499527931213
1788107467769997300,6.762997314453125,-0.13928750157356262,0.09501250088214874,-0.3713875114917755
1788107467780083200,6.773083251953125,-0.15028749406337738,0.09748750180006027,-0.39214998483657837
1788107467790161200,6.7831611328125,-0.1662375032901764,0.08896250277757645,-0.3592875003814697
1788107467800251400,6.79325146484375,-0.16128750145435333,0.12677499651908875,-0.3188624978065491
1788107467810342100,6.803342041015625,-0.16981250047683716,0.18177500367164612,-0.2638624906539917
1788107467820426200,6.81342626953125,-0.17723749577999115,0.20377500355243683,-0.2003374993801117
1788107467830519000,6.82351904296875,-0.18328750133514404,0.2330625057220459,-0.12347500026226044
1788107467840605400,6.83360546875,-0.18328750133514404,0.2465374916791916,-0.030524998903274536
1788107467850685400,6.843685546875,-0.18205000460147858,0.22206249833106995,0.07204999774694443
1788107467860774100,6.853774169921875,-0.18576249480247498,0.18906250596046448,0.16609999537467957
1788107467870859000,6.86385888671875,-0.19181250035762787,0.0999625027179718,0.20281249284744263
1788107467880948700,6.87394873046875,-0.19181250035762787,-0.060087498277425766,0.16733749210834503
1788107467891035600,6.88403564453125,-0.18205000460147858,-0.20308749377727509,0.08428750187158585
1788107467901120800,6.894120849609375,-0.1882375031709671,-0.2531374990940094,0.02928750030696392
1788107467911204000,6.9042041015625,-0.210099995136261,-0.18342499434947968,0.028049999848008156
1788107467921280800,6.91428076171875,-0.2517625093460083,-0.02956249937415123,0.05857500061392784
1788107467931377400,6.92437744140625,-0.2956250011920929,0.10477499663829803,0.09886249899864197
1788107467941475000,6.93447509765625,-0.31404998898506165,0.21353749930858612,0.13062499463558197
1788107467951564800,6.944564697265625,-0.31404998898506165,0.2465374916791916,0.16609999537467957
1788107467961656800,6.95465673828125,-0.3115749955177307,0.18301250040531158,0.2003374993801117
1788107467971792100,6.964792236328125,-0.3152875006198883,0.08896250277757645,0.25286251306533813
1788107467981884700,6.974884765625,-0.3152875006198883,-0.006324999965727329,0.31267499923706055
1788107467991970300,6.98497021484375,-0.3188624978065491,-0.09679999947547913,0.3726249933242798
1788107468002065000,6.99506494140625,-0.3250499963760376,-0.10903749614953995,0.40796250104904175
1788107468012158000,7.005157958984375,-0.32628750801086426,-0.10903749614953995,0.4067249894142151
1788107468022249000,7.0152490234375,-0.3273875117301941,-0.1443749964237213,0.3396250009536743
1788107468032332000,7.02533203125,-0.3091000020503998,-0.11990000307559967,0.2283875048160553
1788107468042423600,7.035423583984375,-0.2761000096797943,-0.09308750182390213,0.10862500220537186
1788107468052509700,7.045509765625,-0.2358125001192093,-0.09679999947547913,0
1788107468062595600,7.055595703125,-0.17599999904632568,-0.05884999781847,-0.0672374963760376
1788107468072690000,7.06568994140625,-0.15523749589920044,-0.033275000751018524,-0.08923749625682831
1788107468082781000,7.075781005859375,-0.14904999732971191,-0.01251249946653843,-0.08071249723434448
1788107468092873700,7.085873779296875,-0.16499999165534973,0.007149999961256981,-0.05871250107884407
1788107468102967800,7.0959677734375,-0.19304999709129333,0.008249999955296516,-0.030524998903274536
1788107468113059800,7.106059814453125,-0.2162874937057495,-0.0038499999791383743,-0.0037124999798834324
1788107468123149300,7.1161494140625,-0.22728750109672546,-0.038087498396635056,0.007287499960511923
1788107468133246000,7.126245849609375,-0.23704999685287476,-0.10779999941587448,-0.0037124999798834324
1788107468143335400,7.13633544921875,-0.24310000240802765,-0.18232500553131104,-0.02199999988079071
1788107468153425200,7.146425048828125,-0.24076250195503235,-0.25561249256134033,-0.04152499884366989
1788107468163517700,7.156517578125,-0.22605000436306,-0.2983750104904175,-0.057475000619888306
1788107468173601000,7.16660107421875,-0.2102375030517578,-0.2971374988555908,-0.04647500067949295
1788107468183690500,7.1766904296875,-0.2003374993801117,-0.25561249256134033,-0.00494999997317791
1788107468193774800,7.18677490234375,-0.19181250035762787,-0.18466250598430634,0.05252499878406525
1788107468203867000,7.196866943359375,-0.1979999989271164,-0.09184999763965607,0.1050499975681305
1788107468213956000,7.2069560546875,-0.18933749198913574,-0.04908749833703041,0.1368124932050705
1788107468224044500,7.21704443359375,-0.17476250231266022,-0.07232499867677689,0.11728750169277191
1788107468234139400,7.227139404296875,-0.1625249981880188,-0.16032500565052032,0.08181250095367432
1788107468244237000,7.237237060546875,-0.14547500014305115,-0.27994999289512634,0.04881250113248825
1788107468254328600,7.24732861328125,-0.12952500581741333,-0.40700000524520874,0.02928750030696392
1788107468264413200,7.2574130859375,-0.11976250261068344,-0.5024250149726868,0.025575000792741776
1788107468274505000,7.2675048828125,-0.12099999934434891,-0.5414749979972839,0.018287500366568565
1788107468284588300,7.27758837890625,-0.1344749927520752,-0.5011875033378601,-0.006187499966472387
1788107468294667500,7.28766748046875,-0.14904999732971191,-0.3704249858856201,-0.028187500312924385
1788107468304753200,7.297753173828125,-0.16981250047683716,-0.23485000431537628,-0.057475000619888306
1788107468314834200,7.307834228515625,-0.18933749198913574,-0.12856249511241913,-0.08676250278949738
1788107468324926000,7.317926025390625,-0.1882375031709671,-0.05637500062584877,-0.0952875018119812
1788107468335009500,7.328009521484375,-0.1662375032901764,-0.04908749833703041,-0.07947500050067902
1788107468345099300,7.338099365234375,-0.13805000483989716,-0.07108750194311142,-0.04028749838471413
1788107468355182600,7.3481826171875,-0.10876250267028809,-0.13956250250339508,0.0035749999806284904
1788107468365267700,7.358267822265625,-0.0929500013589859,-0.2591874897480011,0.025575000792741776
1788107468375353300,7.368353271484375,-0.08071249723434448,-0.328900009393692,0.04028749838471413
1788107468385446700,7.37844677734375,-0.06971249729394913,-0.32161250710487366,0.06710000336170197
1788107468395531300,7.38853125,-0.07095000147819519,-0.34113749861717224,0.07081250101327896
1788107468405617700,7.39861767578125,-0.07576250284910202,-0.28366249799728394,0.08057499676942825
1788107468415704800,7.408704833984375,-0.08923749625682831,-0.12113749980926514,0.11852499842643738
1788107468425794000,7.4187939453125,-0.10395000129938126,-0.03451250120997429,0.1270499974489212
1788107468435874000,7.4288740234375,-0.10876250267028809,-0.06984999775886536,0.09652499854564667
1788107468445965000,7.438965087890625,-0.08799999952316284,-0.15661250054836273,0.05004999786615372
1788107468456053200,7.44905322265625,-0.05376249924302101,-0.2628999948501587,0.0012374999932944775
1788107468466137900,7.459137939453125,-0.030524998903274536,-0.37894999980926514,-0.0317624993622303
1788107468476232700,7.469232666015625,-0.04152499884366989,-0.39118748903274536,-0.029424998909235
1788107468486314800,7.479314697265625,-0.07576250284910202,-0.2714250087738037,0.018287500366568565
1788107468496402000,7.48940185546875,-0.11481250077486038,-0.09803749620914459,0.06104999780654907
1788107468506502700,7.499502685546875,-0.14300000667572021,-0.008799999952316284,0.05376249924302101
1788107468516589800,7.50958984375,-0.13805000483989716,-0.03451250120997429,-0.006187499966472387
1788107468526674700,7.5196748046875,-0.11123749613761902,-0.11013749986886978,-0.08071249723434448
1788107468536761600,7.52976171875,-0.08304999768733978,-0.2689499855041504,-0.13805000483989716
1788107468546848300,7.53984814453125,-0.05871250107884407,-0.4241875112056732,-0.1942874938249588
1788107468556940800,7.54994091796875,-0.04028749838471413,-0.4657124876976013,-0.22481249272823334
1788107468567027700,7.56002783203125,-0.03918749839067459,-0.4241875112056732,-0.25052499771118164
1788107468577113600,7.570113525390625,-0.042762499302625656,-0.3129499852657318,-0.2835249900817871
1788107468587200300,7.5802001953125,-0.050187498331069946,-0.17256249487400055,-0.3335750102996826
1788107468597283600,7.59028369140625,-0.05376249924302101,-0.07356250286102295,-0.38609999418258667
1788107468607372300,7.600372314453125,-0.05376249924302101,0.002199999988079071,-0.4166249930858612
1788107468617465300,7.61046533203125,-0.050187498331069946,0.037675000727176666,-0.41786250472068787
1788107468627554000,7.620553955078125,-0.03671250119805336,0.011962499469518661,-0.37757501006126404
1788107468637645800,7.630645751953125,-0.02199999988079071,-0.016087500378489494,-0.3018124997615814
1788107468647728400,7.640728271484375,-0.0085249999538064,-0.04179999977350235,-0.2102375030517578
1788107468657824800,7.65082470703125,-0.00494999997317791,-0.0906125009059906,-0.14176249504089355
1788107468667907800,7.660907958984375,-0.018424998968839645,-0.11137499660253525,-0.10271249711513519
1788107468678010000,7.671010009765625,-0.03671250119805336,-0.10779999941587448,-0.08071249723434448
1788107468688094200,7.68109423828125,-0.054999999701976776,-0.07603749632835388,-0.06228749826550484
1788107468698185000,7.69118505859375,-0.07328750193119049,-0.002612499985843897,-0.01718750037252903
1788107468708272000,7.701272216796875,-0.08676250278949738,0.07301250100135803,0.05376249924302101
1788107468718355200,7.711355224609375,-0.08195000141859055,0.12072499841451645,0.13805000483989716
1788107468728448800,7.72144873046875,-0.07823749631643295,0.15619999170303345,0.22591249644756317
1788107468738532600,7.73153271484375,0.03657500073313713,0.10477499663829803,0.21615000069141388
1788107468748619300,7.741619384765625,-0.08071249723434448,0.13048750162124634,0.28338751196861267
1788107468758715100,7.751715087890625,-0.15399999916553497,-0.050324998795986176,0.3053874969482422
1788107468768801300,7.76180126953125,-0.13571250438690186,-0.22261250019073486,0.2576749920845032
1788107468778885400,7.771885498046875,-0.1405249983072281,-0.3581874966621399,0.19910000264644623
1788107468788970800,7.781970703125,-0.14904999732971191,-0.4204750061035156,0.17104999721050262
1788107468799065600,7.792065673828125,-0.15028749406337738,-0.35571250319480896,0.19304999709129333
1788107468809145900,7.802145751953125,-0.16005000472068787,-0.20542499423027039,0.23691250383853912
1788107468819237600,7.812237548828125,-0.16747500002384186,-0.023512499406933784,0.28091248869895935
1788107468829328000,7.822327880859375,-0.16747500002384186,0.12072499841451645,0.3176249861717224
1788107468839415300,7.832415283203125,-0.16128750145435333,0.18424999713897705,0.36162498593330383
1788107468849502000,7.842501953125,-0.16376249492168427,0.195250004529953,0.43367499113082886
1788107468859584500,7.85258447265625,-0.1845249980688095,0.15853749215602875,0.5264874696731567
1788107468869679400,7.862679443359375,-0.21752500534057617,0.09872499853372574,0.6144874691963196
1788107468879766500,7.8727666015625,-0.2480500042438507,0.009487500414252281,0.6719624996185303
1788107468889844700,7.8828447265625,-0.25052499771118164,-0.09308750182390213,0.6767749786376953
1788107468899932200,7.89293212890625,-0.22852499783039093,-0.22384999692440033,0.6107749938964844
1788107468910019600,7.90301953125,-0.1979999989271164,-0.344712495803833,0.49348750710487366
1788107468920102000,7.913101806640625,-0.17104999721050262,-0.42666250467300415,0.3651999831199646
1788107468930181600,7.923181640625,-0.1662375032901764,-0.4204750061035156,0.23691250383853912
1788107468940272600,7.933272705078125,-0.20281249284744263,-0.2934249937534332,0.13928750157356262
1788107468950354000,7.94335400390625,-0.26028749346733093,-0.07356250286102295,0.07328750193119049
1788107468960441600,7.953441650390625,-0.305525004863739,0.15853749215602875,0.020762499421834946
1788107468970530800,7.96353076171875,-0.3188624978065491,0.3320625126361847,-0.0085249999538064
1788107468980613000,7.973613037109375,-0.30428749322891235,0.3895374834537506,-0.035475000739097595
1788107468990697200,7.983697265625,-0.17723749577999115,0.258774995803833,-0.10271249711513519
1788107469000780300,7.9937802734375,-0.21752500534057617,0.15853749215602875,-0.12828749418258667
1788107469010870800,8.003870849609376,-0.23457500338554382,-0.09803749620914459,-0.13199999928474426
1788107469020960500,8.01396044921875,-0.1662375032901764,-0.3264249861240387,-0.20899999141693115
1788107469031046000,8.0240458984375,-0.14904999732971191,-0.3704249858856201,-0.2615250051021576
1788107469041144300,8.034144287109376,-0.16005000472068787,-0.3031874895095825,-0.3250499963760376
1788107469061324300,8.05432421875,-0.24433749914169312,-0.0625625029206276,-0.4496249854564667
1788107469071414500,8.06441455078125,-0.2700499892234802,0.07301250100135803,-0.4899125099182129
1788107469081511400,8.074511474609375,-0.27857500314712524,0.19401249289512634,-0.4801499843597412
1788107469091602000,8.084601806640626,-0.28833749890327454,0.27582499384880066,-0.3971000015735626
1788107469101696500,8.094696533203125,-0.2761000096797943,0.29301249980926514,-0.2957625091075897
1788107469111792600,8.104792724609375,-0.23952500522136688,0.2404875010251999,-0.20776249468326569
1788107469121881600,8.114881591796875,-0.20652499794960022,0.11948750168085098,-0.12223749607801437
1788107469131969800,8.1249697265625,-0.18081249296665192,-0.035612501204013824,-0.08071249723434448
1788107469142054000,8.135053955078124,-0.17352500557899475,-0.17132499814033508,-0.10023749619722366
1788107469152146400,8.145146484375,-0.18081249296665192,-0.2616625130176544,-0.17599999904632568
1788107469162238500,8.155238525390626,-0.19181250035762787,-0.2886124849319458,-0.2700499892234802
1788107469172328400,8.165328369140624,-0.19676250219345093,-0.2666124999523163,-0.3543374836444855
1788107469182420700,8.175420654296875,-0.2125750035047531,-0.1798499971628189,-0.39957499504089355
1788107469192514800,8.185514892578125,-0.23333749175071716,-0.05637500062584877,-0.41538751125335693
1788107469202595800,8.195595947265625,-0.23223750293254852,0.008249999955296516,-0.4386250078678131
1788107469212690000,8.20568994140625,-0.20899999141693115,0.02419999986886978,-0.45567500591278076
1788107469222776300,8.2157763671875,-0.18205000460147858,0.03272499889135361,-0.4263874888420105
1788107469232870000,8.225869873046875,-0.1588124930858612,-0.005087499972432852,-0.3848625123500824
1788107469242966800,8.235966796875,-0.17847499251365662,-0.02708750031888485,-0.3018124997615814
1788107469253052400,8.246052490234375,-0.22605000436306,0.03272499889135361,-0.16499999165534973
1788107469263138800,8.256138916015624,-0.2639999985694885,0.09748750180006027,-0.020762499421834946
1788107469273225000,8.266224853515626,-0.27857500314712524,0.09019999951124191,0.12086249887943268
1788107469283321300,8.2763212890625,-0.28228750824928284,0.04496249929070473,0.2723875045776367
1788107469293410600,8.28641064453125,-0.2870999872684479,-0.007562499959021807,0.42996248602867126
1788107469303498200,8.296498291015626,-0.28228750824928284,-0.08579999953508377,0.5754374861717224
1788107469313593000,8.306593017578125,-0.2957625091075897,-0.1260875016450882,0.7122499942779541
1788107469323680300,8.31668017578125,-0.32752498984336853,-0.16266250610351562,0.8100125193595886
1788107469333767400,8.326767333984375,-0.3385249972343445,-0.20432500541210175,0.8123499751091003
1788107469343856600,8.336856689453125,-0.305525004863739,-0.2751374840736389,0.7048249840736389
1788107469353935000,8.34693505859375,-0.23100000619888306,-0.3361875116825104,0.5754374861717224
1788107469364025300,8.357025390625,-0.11495000123977661,-0.37894999980926514,0.5044875144958496
1788107469374111000,8.367111083984375,-0.018424998968839645,-0.4119499921798706,0.559487521648407
1788107469384202500,8.377202392578125,-0.008662499487400055,-0.41442498564720154,0.7244874835014343
1788107469394296800,8.387296875,-0.0929500013589859,-0.35337498784065247,0.927299976348877
1788107469404381700,8.397381591796876,-0.23952500522136688,-0.20666250586509705,1.0994499921798706
1788107469414485000,8.407485107421875,-0.369049996137619,-0.11384999752044678,1.2119250297546387
1788107469424575500,8.417575439453126,-0.4618625044822693,-0.15661250054836273,1.272974967956543
1788107469434655500,8.427655517578126,-0.5106750130653381,-0.2886124849319458,1.281499981880188
1788107469444748800,8.437748779296875,-0.4996750056743622,-0.48647499084472656,1.2034000158309937
1788107469454839600,8.447839599609376,-0.42762500047683716,-0.6392375230789185,1.0053999423980713
1788107469464925400,8.457925537109375,-0.3470500111579895,-0.6159999966621399,0.7122499942779541
1788107469475009500,8.468009521484374,-0.3018124997615814,-0.45471251010894775,0.41772499680519104
1788107469485091300,8.47809130859375,-0.3030500113964081,-0.2788499891757965,0.1588124930858612
1788107469495183400,8.488183349609375,-0.32752498984336853,-0.11756250262260437,-0.037950001657009125
1788107469505274400,8.4982744140625,-0.36410000920295715,-0.03684999793767929,-0.18081249296665192
1788107469515359700,8.50835986328125,-0.41304999589920044,-0.050324998795986176,-0.27486249804496765
1788107469525443000,8.518443115234374,-0.4349125027656555,-0.15537500381469727,-0.31652501225471497
1788107469535525600,8.528525634765625,-0.4008125066757202,-0.3606624901294708,-0.3470500111579895
1788107469545617400,8.538617431640626,-0.3445749878883362,-0.5890499949455261,-0.36038750410079956
1788107469555708000,8.5487080078125,-0.2761000096797943,-0.8065750002861023,-0.40933749079704285
1788107469565786600,8.55878662109375,-0.16499999165534973,-0.9678624868392944,-0.5351499915122986
1788107469575880000,8.5688798828125,-0.007424999959766865,-1.0203875303268433,-0.7709624767303467
1788107469585983000,8.57898291015625,0.13062499463558197,-0.9140999913215637,-1.0262999534606934
1788107469596075500,8.589075439453126,0.21738749742507935,-0.6380000114440918,-1.1826374530792236
1788107469606161200,8.5991611328125,0.22714999318122864,-0.30195000767707825,-1.193637490272522
1788107469616248000,8.609248046875,0.19415000081062317,-0.043037500232458115,-1.0775874853134155
1788107469626332700,8.619332763671874,0.16609999537467957,0.10477499663829803,-0.9114875197410583
1788107469636425000,8.629425048828125,0.1428624987602234,0.15372499823570251,-0.734250009059906
1788107469646516000,8.639515869140626,0.11962500214576721,0.1317249983549118,-0.5388625264167786
1788107469656603000,8.649602783203125,0.1050499975681305,0.07919999957084656,-0.32133749127388
1788107469666690800,8.65969091796875,0.11110000312328339,0.030249999836087227,-0.1247124969959259
1788107469676781300,8.66978125,0.12581250071525574,-0.018562499433755875,0.006049999967217445
1788107469686867000,8.679866943359375,0.12209999561309814,-0.02227500081062317,0.08786249905824661
1788107469696956000,8.689955810546875,0.08428750187158585,0.022962499409914017,0.15757499635219574
1788107469707042800,8.700042724609375,0.035337500274181366,0.07177499681711197,0.22357499599456787
1788107469717135400,8.71013525390625,-0.018424998968839645,0.12072499841451645,0.2919124960899353
1788107469727222800,8.720222900390626,-0.06971249729394913,0.16472500562667847,0.34443750977516174
1788107469737314000,8.73031396484375,-0.1247124969959259,0.15372499823570251,0.35062500834465027
1788107469747413000,8.7404130859375,-0.14300000667572021,0.06077500060200691,0.31267499923706055
1788107469757506600,8.750506591796874,-0.10876250267028809,-0.12361250072717667,0.22591249644756317
1788107469767596300,8.76059619140625,-0.06847500056028366,-0.2494249939918518,0.11481250077486038
1788107469777682200,8.77068212890625,-0.08195000141859055,-0.2616625130176544,0.05128749832510948
1788107469797860400,8.7908603515625,-0.22123749554157257,-0.025849999859929085,0.0695749968290329
1788107469807947800,8.80094775390625,-0.29809999465942383,0.10477499663829803,0.08676250278949738
1788107469818040800,8.811040771484375,-0.3310999870300293,0.10353749990463257,0.0976250022649765
1788107469828133000,8.821133056640624,-0.2993375062942505,-0.05637500062584877,0.10752499848604202
1788107469838218200,8.83121826171875,-0.2358125001192093,-0.27994999289512634,0.07809999585151672
1788107469848316400,8.84131640625,-0.18328750133514404,-0.3984749913215637,0.02928750030696392
1788107469858404900,8.85140478515625,-0.17476250231266022,-0.39489999413490295,-0.025712499395012856
1788107469868499000,8.8614990234375,-0.16128750145435333,-0.39118748903274536,-0.1270499974489212
1788107469878578200,8.871578125,-0.13805000483989716,-0.36547499895095825,-0.26510000228881836
1788107469888670200,8.881670166015626,-0.14904999732971191,-0.3031874895095825,-0.38981249928474426
1788107469898744300,8.891744384765625,-0.20047499239444733,-0.21408750116825104,-0.48262500762939453
1788107469908832800,8.901832763671875,-0.22852499783039093,-0.16637499630451202,-0.5779125094413757
1788107469918917400,8.91191748046875,-0.21504999697208405,-0.13832500576972961,-0.6659125089645386
1788107469928999700,8.921999755859375,-0.20652499794960022,-0.09803749620914459,-0.6902499794960022
1788107469939072300,8.932072265625,-0.23223750293254852,-0.03684999793767929,-0.6561499834060669
1788107469949160700,8.94216064453125,-0.28228750824928284,0.0009624999947845936,-0.5608624815940857
1788107469959249000,8.952248779296875,-0.32257500290870667,0.030249999836087227,-0.3946250081062317
1788107469969337000,8.962337158203125,-0.3335750102996826,0.03148749843239784,-0.18700000643730164
1788107469979422000,8.972421875,-0.31033748388290405,-0.018562499433755875,0.04399999976158142
1788107469989512200,8.98251220703125,-0.27857500314712524,-0.045512501150369644,0.2870999872684479
1788107469999587800,8.992587890625,-0.26881250739097595,-0.06503749638795853,0.5094375014305115
1788107470009678800,9.002678955078125,-0.2750000059604645,-0.08332499861717224,0.7048249840736389
1788107470019754800,9.012754638671876,-0.30428749322891235,-0.07727500051259995,0.8405374884605408
1788107470029844000,9.022843994140626,-0.32862499356269836,-0.05156249925494194,0.9003499746322632
1788107470039924500,9.032924560546874,-0.32752498984336853,-0.06132499873638153,0.9076374769210815
1788107470050011600,9.04301171875,-0.305525004863739,-0.11013749986886978,0.8735374808311462
1788107470060089000,9.053089111328125,-0.28833749890327454,-0.14932499825954437,0.8392999768257141
1788107470070182000,9.063181884765624,-0.2773374915122986,-0.14190000295639038,0.8160625100135803
1788107470080265200,9.07326513671875,-0.29205000400543213,-0.10408750176429749,0.7928249835968018
1788107470090364000,9.083364013671876,-0.32628750801086426,-0.06379999965429306,0.7720624804496765
1788107470100443400,9.093443359375,-0.3433375060558319,-0.0845625028014183,0.7060624957084656
1788107470110559500,9.1035595703125,-0.3482874929904938,-0.1615625023841858,0.5912500023841858
1788107470120642600,9.113642578125,-0.34209999442100525,-0.2616625130176544,0.43972501158714294
1788107470130741000,9.123740966796875,-0.3018124997615814,-0.3764750063419342,0.2761000096797943
1788107470140830700,9.133830810546876,-0.18947499990463257,-0.5622375011444092,0.03657500073313713
1788107470150931500,9.143931396484374,0.0035749999806284904,-0.7613375186920166,-0.3493874967098236
1788107470161016800,9.154016845703126,0.22110000252723694,-0.7943375110626221,-0.856487512588501
1788107470171114800,9.16411474609375,0.41538751125335693,-0.6599999666213989,-1.3622125387191772
1788107470181200400,9.174200439453125,0.5460125207901001,-0.4657124876976013,-1.7323625087738037
1788107470191288800,9.184288818359375,0.6437749862670898,-0.29218751192092896,-1.9023125171661377
1788107470201377800,9.194377685546876,0.7463499903678894,-0.1933249980211258,-1.8496500253677368
1788107470211469300,9.20446923828125,0.8270624876022339,-0.22632500529289246,-1.6065499782562256
1788107470221553200,9.21455322265625,0.8343499898910522,-0.31418749690055847,-1.2205874919891357
1788107470231648500,9.2246484375,0.8013499975204468,-0.45100000500679016,-0.8430125117301941
1788107470241733600,9.234733642578124,0.7732999920845032,-0.5377625226974487,-0.6121500134468079
1788107470251830800,9.244830810546874,0.7537750005722046,-0.5084750056266785,-0.4655750095844269
1788107470261917000,9.2549169921875,0.7598249912261963,-0.41318750381469727,-0.3713875114917755
1788107470272012800,9.2650126953125,0.7880125045776367,-0.2763749957084656,-0.29809999465942383
1788107470282098400,9.275098388671875,0.822112500667572,-0.1541374921798706,-0.2162874937057495
1788107470292194800,9.28519482421875,0.8343499898910522,-0.09184999763965607,-0.1344749927520752
1788107470302284500,9.295284423828125,0.7855374813079834,-0.05637500062584877,-0.03671250119805336
1788107470312379000,9.30537890625,0.6852999925613403,-0.050324998795986176,0.09033749997615814
1788107470322470100,9.31547021484375,0.5717250108718872,-0.09184999763965607,0.2358125001192093
1788107470332570600,9.325570556640624,0.4641999900341034,-0.17613749206066132,0.3726249933242798
1788107470342653000,9.33565283203125,0.3726249933242798,-0.2591874897480011,0.48372501134872437
1788107470352737800,9.34573779296875,0.28462499380111694,-0.31542500853538513,0.555774986743927
1788107470362821400,9.3558212890625,0.2063875049352646,-0.31913748383522034,0.5974375009536743
1788107470372911600,9.36591162109375,0.14657500386238098,-0.27390000224113464,0.6010124683380127
1788107470382998500,9.37599853515625,0.1050499975681305,-0.18466250598430634,0.5607249736785889
1788107470393090300,9.38609033203125,0.057337500154972076,-0.055275000631809235,0.48496249318122864
1788107470403179300,9.39617919921875,0.007287499960511923,0.06201250106096268,0.39214998483657837
1788107470413268000,9.40626806640625,-0.04152499884366989,0.13048750162124634,0.3334375023841858
1788107470423349000,9.416348876953125,-0.05871250107884407,0.1634874939918518,0.3310999870300293
1788107470433438500,9.4264384765625,-0.05871250107884407,0.18424999713897705,0.34814998507499695
1788107470443525400,9.436525390625,-0.057475000619888306,0.18053749203681946,0.3848625123500824
1788107470453620700,9.446620849609374,-0.07218749821186066,0.15729999542236328,0.428725004196167
1788107470463711700,9.456711669921875,-0.09652499854564667,0.13420000672340393,0.4776749908924103
1788107470473799400,9.46679931640625,-0.12099999934434891,0.14396250247955322,0.5044875144958496
1788107470483882800,9.4768828125,-0.14176249504089355,0.1989624947309494,0.5020124912261963
1788107470493972500,9.486972412109376,-0.1405249983072281,0.2648249864578247,0.4702500104904175
1788107470504058400,9.497058349609375,-0.1247124969959259,0.32711249589920044,0.40796250104904175
1788107470514147600,9.507147705078125,-0.0952875018119812,0.3797749876976013,0.31638750433921814
1788107470524240100,9.517240234375,-0.08071249723434448,0.4248749911785126,0.21738749742507935
1788107470534331400,9.527331298828125,-0.07328750193119049,0.4908750057220459,0.15262499451637268
1788107470544421400,9.53742138671875,-0.0611874982714653,0.5605875253677368,0.12581250071525574
1788107470554513000,9.547512939453124,-0.0317624993622303,0.5593500137329102,0.12828749418258667
1788107470564596200,9.55759619140625,0.010999999940395355,0.5018749833106995,0.15757499635219574
1788107470574686000,9.56768603515625,0.07081250101327896,0.4188250005245209,0.21381250023841858
1788107470584773400,9.5777734375,0.13062499463558197,0.3040125072002411,0.2773374915122986
1788107470594869200,9.587869140625,0.2003374993801117,0.15372499823570251,0.22714999318122864
1788107470604954600,9.59795458984375,0.27486249804496765,-0.043037500232458115,0.023099999874830246
1788107470615049700,9.6080498046875,0.31638750433921814,-0.23718750476837158,-0.2700499892234802
1788107470625135400,9.61813525390625,0.34443750977516174,-0.27994999289512634,-0.5498625040054321
1788107470635229400,9.6282294921875,0.3737249970436096,-0.20542499423027039,-0.7122499942779541
1788107470645322000,9.638322021484376,0.4006749987602234,-0.13461250066757202,-0.7037249803543091
1788107470665499600,9.658499755859374,0.18205000460147858,-0.1578499972820282,-0.3946250081062317
1788107470675591400,9.66859130859375,-0.010999999940395355,-0.5292375087738037,-0.3946250081062317
1788107470685677000,9.678677001953124,-0.17476250231266022,-1.005674958229065,-0.7184374928474426
1788107470695769300,9.688769287109375,-0.35062500834465027,-1.1779625415802002,-1.188825011253357
1788107470705851100,9.69885107421875,-0.5181000232696533,-0.9373375177383423,-1.6152124404907227
1788107470715944700,9.70894482421875,-0.6194375157356262,-0.3984749913215637,-2.0194625854492188
1788107470726026800,9.71902685546875,-0.6329125165939331,0.23430000245571136,-2.3285624980926514
1788107470736118800,9.729118896484374,-0.5791500210762024,0.6814500093460083,-2.400749921798706
1788107470746203600,9.73920361328125,-0.4899125099182129,0.8256874680519104,-2.1917500495910645
1788107470756290300,9.749290283203125,-0.404387503862381,0.7009750008583069,-1.7115999460220337
1788107470766381600,9.759381591796876,-0.35062500834465027,0.41635000705718994,-1.0213500261306763
1788107470776469200,9.76946923828125,-0.2932874858379364,0.07301250100135803,-0.2932874858379364
1788107470786550800,9.77955078125,-0.22123749554157257,-0.25189998745918274,0.3529624938964844
1788107470796646700,9.789646728515624,-0.1405249983072281,-0.4877125024795532,0.8307750225067139
1788107470806727700,9.799727783203124,-0.05376249924302101,-0.6342874765396118,1.093400001525879
1788107470816828000,9.809827880859375,0.04028749838471413,-0.677049994468689,1.1044000387191772
1788107470826915600,9.81991552734375,0.10986249893903732,-0.5572875142097473,0.8955374956130981
1788107470837013800,9.830013671875,0.14162500202655792,-0.3484250009059906,0.5875374674797058
1788107470847094000,9.840093994140625,0.1611499935388565,-0.19813749194145203,0.26510000228881836
1788107470867257000,9.860257080078124,0.17710000276565552,-0.07603749632835388,-0.20899999141693115
1788107470877352200,9.870352294921876,0.1428624987602234,-0.1297999918460846,-0.3018124997615814
1788107470887446800,9.88044677734375,0.09157499670982361,-0.19085000455379486,-0.3030500113964081
1788107470897540400,9.890540283203125,0.035337500274181366,-0.2311374992132187,-0.22852499783039093
1788107470907655400,9.900655517578125,-0.02694999985396862,-0.27390000224113464,-0.09652499854564667
1788107470917732900,9.91073291015625,-0.08428750187158585,-0.2983750104904175,0.05004999786615372
1788107470927830500,9.92083056640625,-0.10518749803304672,-0.31418749690055847,0.16609999537467957
1788107470937921800,9.930921875,-0.08071249723434448,-0.34718748927116394,0.23457500338554382
1788107470948011800,9.94101171875,-0.07328750193119049,-0.3544749915599823,0.26510000228881836
1788107470958101500,9.9511015625,0.023099999874830246,-0.30195000767707825,0.24310000240802765
1788107470968189400,9.961189453125,0.09033749997615814,-0.28737500309944153,0.17338749766349792
1788107470978276900,9.97127685546875,0.12581250071525574,-0.1896124929189682,0.09033749997615814
1788107470988373200,9.981373291015625,0.15633749961853027,-0.056512501090765,-0.00976249948143959
1788107470998456300,9.991456298828124,0.16238750517368317,0.04496249929070473,-0.10752499848604202
1788107471008541200,10.001541259765625,0.15757499635219574,0.11343749612569809,-0.18576249480247498
1788107471018631200,10.011631103515626,0.15386250615119934,0.1414874941110611,-0.22123749554157257
1788107471028718000,10.021718017578126,0.15138749778270721,0.147537499666214,-0.2199999988079071
1788107471038800400,10.03180029296875,0.14781250059604645,0.17077499628067017,-0.19676250219345093
1788107471048891000,10.041890869140625,0.1428624987602234,0.16706250607967377,-0.17352500557899475
1788107471058977300,10.051977294921874,0.13186250627040863,0.19277499616146088,-0.12952500581741333
1788107471069062100,10.062062255859376,0.13186250627040863,0.2147749960422516,-0.06599999964237213
1788107471079146200,10.072146240234375,0.15015000104904175,0.2722499966621399,0.013337500393390656
1788107471089236700,10.08223681640625,0.17338749766349792,0.31501248478889465,0.11481250077486038
1788107471099322600,10.092322509765625,0.20514999330043793,0.3161124885082245,0.20886249840259552
1788107471109405000,10.102405029296875,0.23567499220371246,0.3040125072002411,0.2686749994754791
1788107471119499300,10.112499267578125,0.2638624906539917,0.26977500319480896,0.30291250348091125
1788107471129580300,10.122580322265625,0.29686251282691956,0.21353749930858612,0.31638750433921814
1788107471139668200,10.132668212890625,0.3334375023841858,0.17448750138282776,0.31267499923706055
1788107471149756200,10.142756103515625,0.36162498593330383,0.16596250236034393,0.29438748955726624
1788107471159841300,10.15284130859375,0.3591499924659729,0.18424999713897705,0.2540999948978424
1788107471169927700,10.162927734375,0.340862512588501,0.20377500355243683,0.20391249656677246
1788107471180007200,10.173007080078126,0.32615000009536743,0.22948749363422394,0.1551000028848648
1788107471190086400,10.18308642578125,0.31638750433921814,0.2367749959230423,0.10381250083446503
1788107471200171500,10.193171630859375,0.3139125108718872,0.21230000257492065,0.04152499884366989
1788107471210251000,10.2032509765625,0.2919124960899353,0.18301250040531158,-0.0012374999932944775
1788107471220327200,10.2133271484375,0.26633748412132263,0.11343749612569809,-0.030524998903274536
1788107471230419500,10.22341943359375,0.2540999948978424,0.04496249929070473,-0.06599999964237213
1788107471240508700,10.2335087890625,0.24310000240802765,0.03272499889135361,-0.1050499975681305
1788107471250587400,10.24358740234375,0.2503874897956848,0.05101250112056732,-0.1625249981880188
1788107471260676600,10.253676513671875,0.2626250088214874,0.12553749978542328,-0.21381250023841858
1788107471270766000,10.26376611328125,0.2723875045776367,0.2550624907016754,-0.21752500534057617
1788107471280856000,10.27385595703125,0.28943750262260437,0.3503499925136566,-0.19552500545978546
1788107471290946000,10.283946044921874,0.30662500858306885,0.38087499141693115,-0.16747500002384186
1788107471301042000,10.2940419921875,0.32243749499320984,0.36134999990463257,-0.13199999928474426
1788107471311136000,10.304135986328125,0.329862505197525,0.33082500100135803,-0.07699999958276749
1788107471321217300,10.31421728515625,0.31638750433921814,0.31501248478889465,0
1788107471331300600,10.324300537109375,0.282150000333786,0.32106250524520874,0.07576250284910202
1788107471341397000,10.33439697265625,0.24791249632835388,0.3161124885082245,0.12828749418258667
1788107471351489500,10.344489501953126,0.23457500338554382,0.2965874969959259,0.14038750529289246
1788107471361575400,10.354575439453125,0.2320999950170517,0.26124998927116394,0.10628750175237656
1788107471371666400,10.36466650390625,0.21738749742507935,0.24777500331401825,0.04152499884366989
1788107471381757200,10.374757080078124,0.1868624985218048,0.27101248502731323,-0.023237500339746475
1788107471391849000,10.384848876953125,0.16981250047683716,0.3040125072002411,-0.06847500056028366
1788107471401934000,10.39493408203125,0.17586250603199005,0.322299987077713,-0.08428750187158585
1788107471412021500,10.405021484375,0.21133749186992645,0.3003000020980835,-0.08923749625682831
1788107471422112000,10.415112060546875,0.24543750286102295,0.29906249046325684,-0.0952875018119812
1788107471432201700,10.42520166015625,0.2564375102519989,0.34306249022483826,-0.08923749625682831
1788107471442288000,10.4352880859375,0.24791249632835388,0.3601124882698059,-0.07452499866485596
1788107471452373800,10.445373779296874,0.24433749914169312,0.36258751153945923,-0.05376249924302101
1788107471462458600,10.455458740234375,0.2601499855518341,0.3405874967575073,-0.029424998909235
1788107471472546600,10.465546630859375,0.28462499380111694,0.3235374987125397,0.02199999988079071
1788107471482637600,10.475637451171876,0.29919999837875366,0.30153748393058777,0.12086249887943268
1788107471492723200,10.48572314453125,0.3004375100135803,0.28929999470710754,0.2381500005722046
1788107471502806800,10.495806884765624,0.28338751196861267,0.2905375063419342,0.3334375023841858
1788107471512897000,10.50589697265625,0.27114999294281006,0.26606249809265137,0.3651999831199646
1788107471522983200,10.515983154296874,0.27114999294281006,0.23430000245571136,0.34443750977516174
1788107471533068000,10.526068115234375,0.26743748784065247,0.24158750474452972,0.3041499853134155
1788107471543158000,10.536157958984376,0.2564375102519989,0.26606249809265137,0.2516250014305115
1788107471553249800,10.546249755859375,0.2283875048160553,0.3260124921798706,0.20886249840259552
1788107471563335400,10.55633544921875,0.2003374993801117,0.4016374945640564,0.1905750036239624
1788107471573426000,10.566426025390625,0.18314999341964722,0.4151124954223633,0.17833749949932098
1788107471583516700,10.5765166015625,0.17338749766349792,0.3735874891281128,0.15633749961853027
1788107471593604600,10.5866044921875,0.16733749210834503,0.31130000948905945,0.1293874979019165
1788107471603684000,10.59668408203125,0.16733749210834503,0.2428250014781952,0.10752499848604202
1788107471613776600,10.606776611328126,0.16733749210834503,0.18796250224113464,0.0976250022649765
1788107471623865000,10.616864990234374,0.16609999537467957,0.1597750037908554,0.09281250089406967
1788107471633952500,10.626952392578126,0.15262499451637268,0.18548749387264252,0.08181250095367432
1788107471644043800,10.637043701171875,0.12815000116825104,0.2110625058412552,0.05486249923706055
1788107471654139400,10.647139404296874,0.0952875018119812,0.2404875010251999,0.025575000792741776
1788107471664233500,10.6572333984375,0.057337500154972076,0.2550624907016754,-0.00494999997317791
1788107471674318000,10.667318115234375,0.023099999874830246,0.24777500331401825,-0.0317624993622303
1788107471684409600,10.67740966796875,0.004812499973922968,0.21353749930858612,-0.057475000619888306
1788107471694508300,10.68750830078125,-0.0037124999798834324,0.18301250040531158,-0.07576250284910202
1788107471704599800,10.697599853515625,-0.01347499992698431,0.17201249301433563,-0.08923749625682831
1788107471714692000,10.707692138671876,-0.030662499368190765,0.18053749203681946,-0.10752499848604202
1788107471734857000,10.72785693359375,-0.04647500067949295,0.20748749375343323,-0.15771250426769257
1788107471744935200,10.73793505859375,-0.045237500220537186,0.227012500166893,-0.1882375031709671
1788107471755027500,10.74802734375,-0.037950001657009125,0.23058749735355377,-0.2125750035047531
1788107471765119500,10.758119384765624,-0.035475000739097595,0.23801249265670776,-0.2297624945640564
1788107471775208000,10.7682080078125,-0.045237500220537186,0.24529999494552612,-0.23952500522136688
1788107471785295000,10.778295166015624,-0.06476250290870667,0.26001250743865967,-0.24076250195503235
1788107471795385600,10.788385498046875,-0.07452499866485596,0.26124998927116394,-0.24310000240802765
1788107471805471700,10.7984716796875,-0.07452499866485596,0.2428250014781952,-0.24310000240802765
1788107471815563000,10.80856298828125,-0.07095000147819519,0.20253749191761017,-0.24681249260902405
1788107471825696800,10.81869677734375,-0.06847500056028366,0.16472500562667847,-0.2615250051021576
1788107471835782000,10.828781982421875,-0.08071249723434448,0.15248750150203705,-0.2750000059604645
1788107471845871400,10.838871337890625,-0.09418749809265137,0.15619999170303345,-0.2761000096797943
1788107471855966500,10.848966552734375,-0.0989999994635582,0.17572499811649323,-0.2810499966144562
1788107471866044400,10.85904443359375,-0.10395000129938126,0.20377500355243683,-0.2798124849796295
1788107471876136400,10.869136474609375,-0.0989999994635582,0.20006249845027924,-0.2761000096797943
1788107471886224400,10.879224365234375,-0.08923749625682831,0.15125000476837158,-0.2773374915122986
1788107471896316200,10.889316162109376,-0.08442500233650208,0.10243749618530273,-0.2870999872684479
1788107471906413000,10.8994130859375,-0.08676250278949738,0.05224999785423279,-0.30428749322891235
1788107471916506600,10.909506591796875,-0.09776250272989273,0.02667500078678131,-0.32257500290870667
1788107471926591500,10.919591552734374,-0.10876250267028809,0.011962499469518661,-0.35186249017715454
1788107471936681000,10.929680908203125,-0.10628750175237656,-0.007562499959021807,-0.3848625123500824
1788107471946759700,10.939759765625,-0.09652499854564667,-0.018562499433755875,-0.404387503862381
1788107471956851000,10.949850830078125,-0.09776250272989273,-0.005087499972432852,-0.38733750581741333
1788107471966937900,10.959937744140625,-0.12223749607801437,0.037675000727176666,-0.32133749127388
1788107471977031200,10.97003125,-0.16499999165534973,0.09253749996423721,-0.2199999988079071
1788107471987120600,10.98012060546875,-0.201712504029274,0.10353749990463257,-0.11495000123977661
1788107471997208800,10.990208740234374,-0.22247499227523804,0.05224999785423279,-0.042762499302625656
1788107472007287300,11.000287353515626,-0.2358125001192093,-0.01732499897480011,-0.020762499421834946
1788107472017376000,11.0103759765625,-0.25052499771118164,-0.057612501084804535,-0.023237500339746475
1788107472027467800,11.0204677734375,-0.25905001163482666,-0.10779999941587448,-0.050187498331069946
1788107472037551000,11.030551025390626,-0.2529999911785126,-0.1518000066280365,-0.09652499854564667
1788107472047648500,11.0406484375,-0.24076250195503235,-0.15537500381469727,-0.15152500569820404
1788107472057740300,11.050740234375,-0.23952500522136688,-0.11756250262260437,-0.20047499239444733
1788107472067836400,11.06083642578125,-0.24681249260902405,-0.0625625029206276,-0.22728750109672546
1788107472077923300,11.07092333984375,-0.26028749346733093,-0.02956249937415123,-0.22852499783039093
1788107472088029400,11.081029541015624,-0.2750000059604645,-0.01484999991953373,-0.21876250207424164
1788107472098116000,11.0911162109375,-0.2895750105381012,-0.025849999859929085,-0.18700000643730164
1788107472108217300,11.10121728515625,-0.3030500113964081,-0.07108750194311142,-0.16128750145435333
1788107472118300400,11.111300537109376,-0.3078624904155731,-0.10903749614953995,-0.13805000483989716
1788107472128392700,11.121392822265625,-0.3018124997615814,-0.13956250250339508,-0.12594999372959137
1788107472138482000,11.13148193359375,-0.296999990940094,-0.11261250078678131,-0.10876250267028809
1788107472148568600,11.141568603515625,-0.2932874858379364,-0.05156249925494194,-0.09171249717473984
1788107472158652700,11.151652587890625,-0.2798124849796295,-0.01251249946653843,-0.08923749625682831
1788107472168740000,11.161739990234375,-0.25423750281333923,0.01691249944269657,-0.0929500013589859
1788107472178818800,11.17181884765625,-0.23704999685287476,0.02419999986886978,-0.06228749826550484
1788107472188907000,11.181906982421875,-0.23100000619888306,-0.01251249946653843,-0.01718750037252903
1788107472198997500,11.19199755859375,-0.2358125001192093,-0.07356250286102295,0.0317624993622303
1788107472209094400,11.202094482421876,-0.24076250195503235,-0.13832500576972961,0.0658624991774559
1788107472219184400,11.212184326171876,-0.24433749914169312,-0.18713749945163727,0.08552499860525131
1788107472229264000,11.222263916015624,-0.2517625093460083,-0.1859000027179718,0.10752499848604202
1788107472239342600,11.232342529296876,-0.26028749346733093,-0.16885000467300415,0.10986249893903732
1788107472249438700,11.242438720703126,-0.2675749957561493,-0.14313749969005585,0.09404999762773514
1788107472269618200,11.2626181640625,-0.2737624943256378,-0.1615625023841858,0.032999999821186066
1788107472279697400,11.272697509765624,-0.2835249900817871,-0.16279999911785126,-0.002474999986588955
1788107472289785600,11.28278564453125,-0.2993375062942505,-0.17366249859333038,-0.007424999959766865
1788107472299865000,11.292864990234374,-0.31033748388290405,-0.1859000027179718,0.010999999940395355
1788107472309950500,11.302950439453125,-0.3188624978065491,-0.21037499606609344,0.028049999848008156
1788107472320029700,11.31302978515625,-0.32752498984336853,-0.2470874935388565,0.037812501192092896
1788107472330125300,11.323125244140625,-0.32628750801086426,-0.3044250011444092,0.020762499421834946
1788107472340211200,11.333211181640625,-0.3188624978065491,-0.34595000743865967,-0.008662499487400055
1788107472350303000,11.343302978515625,-0.3091000020503998,-0.3581874966621399,-0.045237500220537186
1788107472360385800,11.3533857421875,-0.3030500113964081,-0.3251875042915344,-0.07823749631643295
1788107472370487000,11.363487060546875,-0.296999990940094,-0.2909500002861023,-0.11123749613761902
1788107472380574500,11.373574462890625,-0.28600001335144043,-0.2591874897480011,-0.12952500581741333
1788107472390670300,11.38367041015625,-0.2798124849796295,-0.2494249939918518,-0.13805000483989716
1788107472400751900,11.393751953125,-0.2712875008583069,-0.27018749713897705,-0.13199999928474426
1788107472410850600,11.4038505859375,-0.27252501249313354,-0.272662490606308,-0.10999999940395355
1788107472420932900,11.413932861328124,-0.27857500314712524,-0.2666124999523163,-0.0672374963760376
1788107472431027000,11.42402685546875,-0.2810499966144562,-0.25437501072883606,-0.020762499421834946
1788107472441107500,11.434107421875,-0.2810499966144562,-0.24213749170303345,0.010999999940395355
1788107472451198200,11.4441982421875,-0.2700499892234802,-0.24818749725818634,0.020762499421834946
1788107472461292300,11.454292236328126,-0.25657498836517334,-0.2690874934196472,0.010999999940395355
1788107472471387000,11.464386962890625,-0.24433749914169312,-0.2690874934196472,-0.006187499966472387
1788107472481474600,11.474474609375,-0.233474999666214,-0.2494249939918518,-0.020762499421834946
1788107472491569200,11.484569091796875,-0.22605000436306,-0.22866250574588776,-0.03918749839067459
1788107472501653800,11.49465380859375,-0.21147499978542328,-0.2176624983549118,-0.0611874982714653
1788107472511743700,11.50474365234375,-0.19552500545978546,-0.20913749933242798,-0.07328750193119049
1788107472521828600,11.51482861328125,-0.18947499990463257,-0.20432500541210175,-0.08318749815225601
1788107472531920100,11.524920166015624,-0.18576249480247498,-0.2079000025987625,-0.08799999952316284
1788107472542004700,11.535004638671875,-0.17104999721050262,-0.22990000247955322,-0.07823749631643295
1788107472552103200,11.545103271484376,-0.1467124968767166,-0.23485000431537628,-0.0611874982714653
1788107472562183400,11.555183349609376,-0.1307625025510788,-0.20308749377727509,-0.032999999821186066
1788107472572273700,11.565273681640624,-0.10999999940395355,-0.15908749401569366,0.015812499448657036
1788107472582346500,11.575346435546875,-0.07095000147819519,-0.13708749413490295,0.07809999585151672
1788107472592446200,11.5854462890625,-0.037950001657009125,-0.11261250078678131,0.15028749406337738
1788107472602536000,11.595535888671876,-0.028187500312924385,-0.07108750194311142,0.24433749914169312
1788107472612618500,11.605618408203124,-0.047712501138448715,-0.04427500069141388,0.34443750977516174
1788107472622705000,11.615704833984376,-0.0672374963760376,-0.09308750182390213,0.420199990272522
1788107472632792000,11.6257919921875,-0.07576250284910202,-0.17132499814033508,0.45925000309944153
1788107472642876700,11.635876708984375,-0.09171249717473984,-0.24089999496936798,0.4544374942779541
1788107472652971800,11.6459716796875,-0.11618749797344208,-0.28613749146461487,0.4141499996185303
1788107472663054600,11.6560546875,-0.13323749601840973,-0.3227125108242035,0.3469125032424927
1788107472673150000,11.66614990234375,-0.1344749927520752,-0.31185001134872437,0.2686749994754791
1788107472683237600,11.676237548828125,-0.1381874978542328,-0.26785001158714294,0.19415000081062317
1788107472693323500,11.686323486328124,-0.13928750157356262,-0.21642500162124634,0.13557499647140503
1788107472703408600,11.69640869140625,-0.14300000667572021,-0.17132499814033508,0.10986249893903732
1788107472713494300,11.706494384765625,-0.14423750340938568,-0.15661250054836273,0.10257499665021896
1788107472723591400,11.71659130859375,-0.1467124968767166,-0.1518000066280365,0.10257499665021896
1788107472733680600,11.7266806640625,-0.14918750524520874,-0.17008750140666962,0.11728750169277191
1788107472743760100,11.736760009765625,-0.1467124968767166,-0.19085000455379486,0.13928750157356262
1788107472753860400,11.7468603515625,-0.1467124968767166,-0.21642500162124634,0.15386250615119934
1788107472763947300,11.756947265625,-0.1381874978542328,-0.22866250574588776,0.15262499451637268
1788107472774053400,11.767053466796876,-0.12718750536441803,-0.2055625021457672,0.14904999732971191
1788107472784131800,11.7771318359375,-0.12347500026226044,-0.11756250262260437,0.16238750517368317
1788107472794235000,11.78723486328125,-0.12223749607801437,0.0009624999947845936,0.19181250035762787
1788107472804311800,11.797311767578124,-0.12594999372959137,0.07301250100135803,0.2283875048160553
1788107472814409000,11.807408935546874,-0.12347500026226044,0.08524999767541885,0.2601499855518341
1788107472824496400,11.817496337890624,-0.12223749607801437,0.05224999785423279,0.29067498445510864
1788107472834592800,11.8275927734375,-0.12223749607801437,-0.01251249946653843,0.29919999837875366
1788107472844675800,11.83767578125,-0.1247124969959259,-0.07961250096559525,0.3151499927043915
1788107472854763800,11.847763671875,-0.13199999928474426,-0.1260875016450882,0.31267499923706055
1788107472864845300,11.85784521484375,-0.1405249983072281,-0.12732499837875366,0.2773374915122986
1788107472874934800,11.867934814453125,-0.14794999361038208,-0.0943249985575676,0.2186249941587448
1788107472885021200,11.878021240234375,-0.15523749589920044,-0.040562499314546585,0.1551000028848648
1788107472895111400,11.888111328125,-0.15771250426769257,0.0034374999813735485,0.07686249911785126
1788107472905197800,11.89819775390625,-0.14176249504089355,-0.002749999985098839,-0.0012374999932944775
1788107472915286500,11.90828662109375,-0.10999999940395355,-0.05403750017285347,-0.05871250107884407
1788107472925367800,11.918367919921875,-0.08195000141859055,-0.10532499849796295,-0.0952875018119812
1788107472935457000,11.92845703125,-0.057475000619888306,-0.11508750170469284,-0.11604999750852585
1788107472945535500,11.938535400390625,-0.050187498331069946,-0.09556250274181366,-0.11852499842643738
1788107472955630000,11.948630126953125,-0.047712501138448715,-0.05156249925494194,-0.1270499974489212
1788107472965716000,11.958716064453125,-0.040424998849630356,0.009487500414252281,-0.14176249504089355
1788107472975802000,11.968802001953126,-0.01966249942779541,0.06077500060200691,-0.14904999732971191
1788107472985889000,11.978888916015626,0.0170499999076128,0.09748750180006027,-0.13928750157356262
1788107472995972400,11.988972412109375,0.045099999755620956,0.13529999554157257,-0.1050499975681305
1788107473006065700,11.999065673828126,0.06104999780654907,0.15372499823570251,-0.05252499878406525
1788107473016160000,12.009159912109375,0.07933750003576279,0.14396250247955322,0.0012374999932944775
1788107473026238700,12.01923876953125,0.10615000128746033,0.09501250088214874,0.03904999792575836
1788107473036330500,12.02933056640625,0.13791249692440033,0.03396249935030937,0.05857500061392784
1788107473046420000,12.039419921875,0.15262499451637268,0.005912499967962503,0.05486249923706055
1788107473056520000,12.04952001953125,0.14781250059604645,0.04001250118017197,0.05486249923706055
1788107473066604500,12.0596044921875,0.1270499974489212,0.12430000305175781,0.08552499860525131
1788107473076694300,12.0696943359375,0.11715000122785568,0.1915374994277954,0.12581250071525574
1788107473086778600,12.079778564453125,0.1270499974489212,0.19648750126361847,0.13928750157356262
1788107473096874800,12.089874755859375,0.15015000104904175,0.14396250247955322,0.14038750529289246
1788107473106954800,12.099954833984375,0.1648624986410141,0.08648750185966492,0.1611499935388565
1788107473117046000,12.1100458984375,0.15262499451637268,0.03519999980926514,0.1905750036239624
1788107473147318000,12.140318115234376,0.04881250113248825,0.07177499681711197,0.2125750035047531
1788107473157410300,12.150410400390625,0.01209999993443489,0.11219999939203262,0.21615000069141388
1788107473167507700,12.1605078125,-0.010999999940395355,0.1097249984741211,0.2149125039577484
1788107473177599200,12.17059912109375,-0.03189999982714653,0.09501250088214874,0.2381500005722046
1788107473187691800,12.18069189453125,-0.06476250290870667,0.11343749612569809,0.29067498445510864
1788107473197781200,12.19078125,-0.12828749418258667,0.13420000672340393,0.35186249017715454
1788107473207874000,12.2008740234375,-0.17476250231266022,0.09624999761581421,0.3749625086784363
1788107473217962500,12.21096240234375,-0.18328750133514404,0.01924999989569187,0.340862512588501
1788107473228051200,12.22105126953125,-0.18576249480247498,-0.055275000631809235,0.2638624906539917
1788107473238143200,12.231143310546875,-0.18205000460147858,-0.12113749980926514,0.14533749222755432
1788107473248234800,12.24123486328125,-0.1699499934911728,-0.16637499630451202,0.002337499987334013
1788107473258326500,12.251326416015624,-0.15399999916553497,-0.1443749964237213,-0.11495000123977661
1788107473268416000,12.261416015625,-0.13323749601840973,-0.07479999959468842,-0.21504999697208405
1788107473278501400,12.27150146484375,-0.11495000123977661,0.02419999986886978,-0.2895750105381012
1788107473288594700,12.2815947265625,-0.10023749619722366,0.10477499663829803,-0.340862512588501
1788107473298680000,12.29168017578125,-0.07466249912977219,0.15853749215602875,-0.37757501006126404
1788107473308767200,12.301767333984374,-0.05376249924302101,0.22082500159740448,-0.3885749876499176
1788107473318850300,12.311850341796875,-0.06476250290870667,0.23182499408721924,-0.36410000920295715
1788107473328941000,12.321941162109376,-0.08071249723434448,0.19882500171661377,-0.3188624978065491
1788107473339028200,12.3320283203125,-0.09418749809265137,0.1634874939918518,-0.26510000228881836
1788107473349114600,12.342114501953125,-0.10023749619722366,0.12196250259876251,-0.19181250035762787
1788107473359200800,12.35220068359375,-0.07823749631643295,0.05967500060796738,-0.12594999372959137
1788107473369293000,12.36229296875,-0.03671250119805336,0.014437500387430191,-0.0989999994635582
1788107473379384000,12.372384033203126,0.0035749999806284904,-0.005087499972432852,-0.1270499974489212
1788107473389472000,12.382471923828126,0.028049999848008156,0.013199999928474426,-0.17847499251365662
1788107473399549000,12.392548828125,0.03904999792575836,0.05719999969005585,-0.21147499978542328
1788107473409632000,12.402632080078124,0.02433750033378601,0.15496249496936798,-0.19676250219345093
1788107473419710700,12.412710693359376,0.0010999999940395355,0.23058749735355377,-0.13805000483989716
1788107473429797000,12.422797119140625,0.006049999967217445,0.22577500343322754,-0.05871250107884407
1788107473439882200,12.43288232421875,0.02433750033378601,0.18177500367164612,0.028049999848008156
1788107473449959400,12.44295947265625,0.037812501192092896,0.10724999755620956,0.11838749796152115
1788107473460039400,12.453039306640624,0.05004999786615372,0.015675000846385956,0.19786250591278076
1788107473470125800,12.463125732421876,0.05857500061392784,-0.04427500069141388,0.26138749718666077
1788107473480205300,12.473205322265626,0.05609999969601631,-0.04908749833703041,0.30662500858306885
1788107473490276600,12.483276611328124,0.04881250113248825,-0.021037500351667404,0.32120001316070557
1788107473500365000,12.493364990234374,0.037812501192092896,0.021724998950958252,0.32120001316070557
1788107473510462200,12.503462158203124,0.02681249938905239,0.0681999996304512,0.29809999465942383
1788107473520548600,12.513548583984376,0.013337500393390656,0.09501250088214874,0.26743748784065247
1788107473530639600,12.5236396484375,-0.00013749999925494194,0.09501250088214874,0.24791249632835388
1788107473540719400,12.53371923828125,-0.01347499992698431,0.06696250289678574,0.24062499403953552
1788107473550803200,12.54380322265625,-0.030662499368190765,0.014437500387430191,0.23457500338554382
1788107473560886800,12.55388671875,-0.04647500067949295,-0.04661250114440918,0.22110000252723694
1788107473570980600,12.563980712890626,-0.05623750016093254,-0.11013749986886978,0.1868624985218048
1788107473581069600,12.574069580078126,-0.05623750016093254,-0.142037495970726,0.14038750529289246
1788107473591164400,12.584164306640625,-0.04895000159740448,-0.12856249511241913,0.0976250022649765
1788107473601252900,12.5942529296875,-0.037950001657009125,-0.0845625028014183,0.0635249987244606
